\"rt\",\"key_press\",\"trial_type\",\"trial_index\",\"time_elapsed\",\"internal_node_id\",\"view_history\",\"responses\",\"Id\",\"Rt\",\"ResKeyCode\",\"ResCorr\",\"TrialType2\",\"Image\",\"Label\",\"Location\",\"CorrectResponse\",\"Block\",\"BlockTrial\",\"Condition\",\"LabelType\",\"Subcondition\",\"trialNum\"
\"83414\",\"32\",\"text\",\"0\",\"83416\",\"0.0-0.0-0.0\",\"\",\"\",\"\",\"\",\"\",\"\",\"\",\"\",\"\",\"\",\"\",\"\",\"\",\"\",\"\",\"\",\"\"
\"102197\",\"\",\"instructions\",\"1\",\"185614\",\"0.0-1.0\",\"[{\"\"page_index\"\":0,\"\"viewing_time\"\":102196}]\",\"\",\"\",\"\",\"\",\"\",\"\",\"\",\"\",\"\",\"\",\"\",\"\",\"\",\"\",\"\",\"\"
\"48268\",\"\",\"survey-multi-choice\",\"2\",\"233907\",\"0.0-2.0\",\"\",\"{\"\"Q0\"\":\"\"Da\"\",\"\"Q1\"\":\"\"Da\"\",\"\"Q2\"\":\"\"Da\"\",\"\"Q3\"\":\"\"Da\"\",\"\"Q4\"\":\"\"Da\"\",\"\"Q5\"\":\"\"Da\"\"}\",\"\",\"\",\"\",\"\",\"\",\"\",\"\",\"\",\"\",\"\",\"\",\"\",\"\",\"\",\"\"
\"\",\"\",\"bio\",\"3\",\"245327\",\"0.0-3.0\",\"\",\"{\"\"age\"\":\"\"20\"\",\"\"gender\"\":\"\"m\"\",\"\"specify\"\":\"\"\"\"}\",\"\",\"\",\"\",\"\",\"\",\"\",\"\",\"\",\"\",\"\",\"\",\"\",\"\",\"\",\"\"
\"\",\"\",\"approach-retreat\",\"4\",\"257181\",\"0.0-4.0\",\"\",\"\",\"2-3\",\"10346\",\"40\",\"0\",\"Training\",\"Stims/Figures/27-C-30-1.bmp\",\"mala:na\",\"Up\",\"38\",\"1\",\"1\",\"1\",\"S\",\"J\",\"1\"
\"\",\"\",\"approach-retreat\",\"5\",\"273222\",\"0.0-5.0\",\"\",\"\",\"2-3\",\"14536\",\"38\",\"1\",\"Training\",\"Stims/Figures/44-J-10-3.bmp\",\"tapa:ka\",\"Down\",\"38\",\"1\",\"2\",\"1\",\"P\",\"J\",\"2\"
\"\",\"\",\"approach-retreat\",\"6\",\"279303\",\"0.0-6.0\",\"\",\"\",\"2-3\",\"4576\",\"40\",\"1\",\"Training\",\"Stims/Figures/118-J-0-2.bmp\",\"tapa:ka\",\"Up\",\"40\",\"1\",\"3\",\"1\",\"P\",\"J\",\"3\"
\"\",\"\",\"approach-retreat\",\"7\",\"285144\",\"0.0-7.0\",\"\",\"\",\"2-3\",\"4335\",\"39\",\"1\",\"Training\",\"Stims/Figures/7-C-20-4.bmp\",\"mala:na\",\"Right\",\"39\",\"1\",\"4\",\"1\",\"S\",\"J\",\"4\"
\"\",\"\",\"approach-retreat\",\"8\",\"290951\",\"0.0-8.0\",\"\",\"\",\"2-3\",\"4303\",\"37\",\"1\",\"Training\",\"Stims/Figures/44-C-30-3.bmp\",\"mala:na\",\"Left\",\"37\",\"1\",\"5\",\"1\",\"S\",\"J\",\"5\"
\"\",\"\",\"approach-retreat\",\"9\",\"296546\",\"0.0-9.0\",\"\",\"\",\"2-3\",\"4088\",\"39\",\"1\",\"Training\",\"Stims/Figures/74-J-10-4.bmp\",\"tapa:ka\",\"Left\",\"39\",\"1\",\"6\",\"1\",\"P\",\"J\",\"6\"
\"\",\"\",\"approach-retreat\",\"10\",\"302167\",\"0.0-10.0\",\"\",\"\",\"2-3\",\"4115\",\"38\",\"1\",\"Training\",\"Stims/Figures/7-J-10-4.bmp\",\"tapa:ka\",\"Down\",\"38\",\"1\",\"7\",\"1\",\"P\",\"J\",\"7\"
\"\",\"\",\"approach-retreat\",\"11\",\"307791\",\"0.0-11.0\",\"\",\"\",\"2-3\",\"4120\",\"37\",\"1\",\"Training\",\"Stims/Figures/57-C-30-1.bmp\",\"mala:na\",\"Left\",\"37\",\"1\",\"8\",\"1\",\"S\",\"J\",\"8\"
\"\",\"\",\"approach-retreat\",\"12\",\"313305\",\"0.0-12.0\",\"\",\"\",\"2-3\",\"4008\",\"40\",\"1\",\"Training\",\"Stims/Figures/118-C-20-2.bmp\",\"mala:na\",\"Down\",\"40\",\"1\",\"9\",\"1\",\"S\",\"J\",\"9\"
\"\",\"\",\"approach-retreat\",\"13\",\"318766\",\"0.0-13.0\",\"\",\"\",\"2-3\",\"3956\",\"39\",\"1\",\"Training\",\"Stims/Figures/139-C-20-2.bmp\",\"mala:na\",\"Right\",\"39\",\"1\",\"10\",\"1\",\"S\",\"J\",\"10\"
\"\",\"\",\"approach-retreat\",\"14\",\"324268\",\"0.0-14.0\",\"\",\"\",\"2-3\",\"3997\",\"39\",\"0\",\"Training\",\"Stims/Figures/57-J-0-1.bmp\",\"tapa:ka\",\"Right\",\"37\",\"1\",\"11\",\"1\",\"P\",\"J\",\"11\"
\"\",\"\",\"approach-retreat\",\"15\",\"329880\",\"0.0-15.0\",\"\",\"\",\"2-3\",\"4107\",\"40\",\"0\",\"Training\",\"Stims/Figures/144-J-10-3.bmp\",\"tapa:ka\",\"Down\",\"38\",\"1\",\"12\",\"1\",\"P\",\"J\",\"12\"
\"\",\"\",\"approach-retreat\",\"16\",\"335468\",\"0.0-16.0\",\"\",\"\",\"2-3\",\"4082\",\"37\",\"1\",\"Training\",\"Stims/Figures/27-J-0-1.bmp\",\"tapa:ka\",\"Right\",\"37\",\"1\",\"13\",\"1\",\"P\",\"J\",\"13\"
\"\",\"\",\"approach-retreat\",\"17\",\"341094\",\"0.0-17.0\",\"\",\"\",\"2-3\",\"4121\",\"38\",\"1\",\"Training\",\"Stims/Figures/74-C-20-4.bmp\",\"mala:na\",\"Up\",\"38\",\"1\",\"14\",\"1\",\"S\",\"J\",\"14\"
\"\",\"\",\"approach-retreat\",\"18\",\"346665\",\"0.0-18.0\",\"\",\"\",\"2-3\",\"4067\",\"39\",\"1\",\"Training\",\"Stims/Figures/139-J-0-2.bmp\",\"tapa:ka\",\"Left\",\"39\",\"1\",\"15\",\"1\",\"P\",\"J\",\"15\"
\"\",\"\",\"approach-retreat\",\"19\",\"352142\",\"0.0-19.0\",\"\",\"\",\"2-3\",\"3971\",\"38\",\"1\",\"Training\",\"Stims/Figures/144-C-30-3.bmp\",\"mala:na\",\"Up\",\"38\",\"1\",\"16\",\"1\",\"S\",\"J\",\"16\"
\"\",\"\",\"approach-retreat\",\"20\",\"358802\",\"0.0-20.0\",\"\",\"\",\"2-3\",\"5156\",\"37\",\"0\",\"Training\",\"Stims/Figures/44-C-30-3.bmp\",\"mala:na\",\"Right\",\"39\",\"2\",\"1\",\"1\",\"S\",\"J\",\"17\"
\"\",\"\",\"approach-retreat\",\"21\",\"365597\",\"0.0-21.0\",\"\",\"\",\"2-3\",\"5290\",\"37\",\"0\",\"Training\",\"Stims/Figures/27-J-0-1.bmp\",\"tapa:ka\",\"Left\",\"39\",\"2\",\"2\",\"1\",\"P\",\"J\",\"18\"
\"\",\"\",\"approach-retreat\",\"22\",\"371827\",\"0.0-22.0\",\"\",\"\",\"2-3\",\"4725\",\"40\",\"1\",\"Training\",\"Stims/Figures/118-J-0-2.bmp\",\"tapa:ka\",\"Up\",\"40\",\"2\",\"3\",\"1\",\"P\",\"J\",\"19\"
\"\",\"\",\"approach-retreat\",\"23\",\"377491\",\"0.0-23.0\",\"\",\"\",\"2-3\",\"4157\",\"38\",\"1\",\"Training\",\"Stims/Figures/74-J-10-4.bmp\",\"tapa:ka\",\"Down\",\"38\",\"2\",\"4\",\"1\",\"P\",\"J\",\"20\"
\"\",\"\",\"approach-retreat\",\"24\",\"382993\",\"0.0-24.0\",\"\",\"\",\"2-3\",\"3997\",\"38\",\"1\",\"Training\",\"Stims/Figures/44-J-10-3.bmp\",\"tapa:ka\",\"Down\",\"38\",\"2\",\"5\",\"1\",\"P\",\"J\",\"21\"
\"\",\"\",\"approach-retreat\",\"25\",\"388699\",\"0.0-25.0\",\"\",\"\",\"2-3\",\"4202\",\"39\",\"1\",\"Training\",\"Stims/Figures/144-J-10-3.bmp\",\"tapa:ka\",\"Left\",\"39\",\"2\",\"6\",\"1\",\"P\",\"J\",\"22\"
\"\",\"\",\"approach-retreat\",\"26\",\"394648\",\"0.0-26.0\",\"\",\"\",\"2-3\",\"4443\",\"38\",\"1\",\"Training\",\"Stims/Figures/144-C-30-3.bmp\",\"mala:na\",\"Up\",\"38\",\"2\",\"7\",\"1\",\"S\",\"J\",\"23\"
\"\",\"\",\"approach-retreat\",\"27\",\"400145\",\"0.0-27.0\",\"\",\"\",\"2-3\",\"3992\",\"39\",\"1\",\"Training\",\"Stims/Figures/27-C-30-1.bmp\",\"mala:na\",\"Right\",\"39\",\"2\",\"8\",\"1\",\"S\",\"J\",\"24\"
\"\",\"\",\"approach-retreat\",\"28\",\"405554\",\"0.0-28.0\",\"\",\"\",\"2-3\",\"3905\",\"39\",\"1\",\"Training\",\"Stims/Figures/57-J-0-1.bmp\",\"tapa:ka\",\"Left\",\"39\",\"2\",\"9\",\"1\",\"P\",\"J\",\"25\"
\"\",\"\",\"approach-retreat\",\"29\",\"412086\",\"0.0-29.0\",\"\",\"\",\"2-3\",\"5026\",\"38\",\"0\",\"Training\",\"Stims/Figures/7-C-20-4.bmp\",\"mala:na\",\"Down\",\"40\",\"2\",\"10\",\"1\",\"S\",\"J\",\"26\"
\"\",\"\",\"approach-retreat\",\"30\",\"417465\",\"0.0-30.0\",\"\",\"\",\"2-3\",\"3876\",\"39\",\"1\",\"Training\",\"Stims/Figures/118-C-20-2.bmp\",\"mala:na\",\"Right\",\"39\",\"2\",\"11\",\"1\",\"S\",\"J\",\"27\"
\"\",\"\",\"approach-retreat\",\"31\",\"422951\",\"0.0-31.0\",\"\",\"\",\"2-3\",\"3982\",\"38\",\"1\",\"Training\",\"Stims/Figures/139-C-20-2.bmp\",\"mala:na\",\"Up\",\"38\",\"2\",\"12\",\"1\",\"S\",\"J\",\"28\"
\"\",\"\",\"approach-retreat\",\"32\",\"428478\",\"0.0-32.0\",\"\",\"\",\"2-3\",\"4023\",\"39\",\"1\",\"Training\",\"Stims/Figures/139-J-0-2.bmp\",\"tapa:ka\",\"Left\",\"39\",\"2\",\"13\",\"1\",\"P\",\"J\",\"29\"
\"\",\"\",\"approach-retreat\",\"33\",\"434035\",\"0.0-33.0\",\"\",\"\",\"2-3\",\"4053\",\"40\",\"1\",\"Training\",\"Stims/Figures/7-J-10-4.bmp\",\"tapa:ka\",\"Up\",\"40\",\"2\",\"14\",\"1\",\"P\",\"J\",\"30\"
\"\",\"\",\"approach-retreat\",\"34\",\"439637\",\"0.0-34.0\",\"\",\"\",\"2-3\",\"4096\",\"40\",\"1\",\"Training\",\"Stims/Figures/74-C-20-4.bmp\",\"mala:na\",\"Down\",\"40\",\"2\",\"15\",\"1\",\"S\",\"J\",\"31\"
\"\",\"\",\"approach-retreat\",\"35\",\"445058\",\"0.0-35.0\",\"\",\"\",\"2-3\",\"3916\",\"39\",\"1\",\"Training\",\"Stims/Figures/57-C-30-1.bmp\",\"mala:na\",\"Right\",\"39\",\"2\",\"16\",\"1\",\"S\",\"J\",\"32\"
\"\",\"\",\"approach-retreat\",\"36\",\"450699\",\"0.0-36.0\",\"\",\"\",\"2-3\",\"4136\",\"39\",\"1\",\"Training\",\"Stims/Figures/7-J-10-4.bmp\",\"tapa:ka\",\"Left\",\"39\",\"3\",\"1\",\"1\",\"P\",\"J\",\"33\"
\"\",\"\",\"approach-retreat\",\"37\",\"456605\",\"0.0-37.0\",\"\",\"\",\"2-3\",\"4401\",\"40\",\"1\",\"Training\",\"Stims/Figures/144-J-10-3.bmp\",\"tapa:ka\",\"Up\",\"40\",\"3\",\"2\",\"1\",\"P\",\"J\",\"34\"
\"\",\"\",\"approach-retreat\",\"38\",\"462246\",\"0.0-38.0\",\"\",\"\",\"2-3\",\"4135\",\"40\",\"1\",\"Training\",\"Stims/Figures/27-C-30-1.bmp\",\"mala:na\",\"Down\",\"40\",\"3\",\"3\",\"1\",\"S\",\"J\",\"35\"
\"\",\"\",\"approach-retreat\",\"39\",\"467895\",\"0.0-39.0\",\"\",\"\",\"2-3\",\"4145\",\"40\",\"1\",\"Training\",\"Stims/Figures/139-J-0-2.bmp\",\"tapa:ka\",\"Up\",\"40\",\"3\",\"4\",\"1\",\"P\",\"J\",\"36\"
\"\",\"\",\"approach-retreat\",\"40\",\"473627\",\"0.0-40.0\",\"\",\"\",\"2-3\",\"4224\",\"38\",\"1\",\"Training\",\"Stims/Figures/118-J-0-2.bmp\",\"tapa:ka\",\"Down\",\"38\",\"3\",\"5\",\"1\",\"P\",\"J\",\"37\"
\"\",\"\",\"approach-retreat\",\"41\",\"479167\",\"0.0-41.0\",\"\",\"\",\"2-3\",\"4035\",\"39\",\"1\",\"Training\",\"Stims/Figures/7-C-20-4.bmp\",\"mala:na\",\"Right\",\"39\",\"3\",\"6\",\"1\",\"S\",\"J\",\"38\"
\"\",\"\",\"approach-retreat\",\"42\",\"484672\",\"0.0-42.0\",\"\",\"\",\"2-3\",\"4001\",\"39\",\"1\",\"Training\",\"Stims/Figures/44-J-10-3.bmp\",\"tapa:ka\",\"Left\",\"39\",\"3\",\"7\",\"1\",\"P\",\"J\",\"39\"
\"\",\"\",\"approach-retreat\",\"43\",\"490369\",\"0.0-43.0\",\"\",\"\",\"2-3\",\"4192\",\"39\",\"1\",\"Training\",\"Stims/Figures/118-C-20-2.bmp\",\"mala:na\",\"Right\",\"39\",\"3\",\"8\",\"1\",\"S\",\"J\",\"40\"
\"\",\"\",\"approach-retreat\",\"44\",\"496601\",\"0.0-44.0\",\"\",\"\",\"2-3\",\"4727\",\"40\",\"1\",\"Training\",\"Stims/Figures/139-C-20-2.bmp\",\"mala:na\",\"Down\",\"40\",\"3\",\"9\",\"1\",\"S\",\"J\",\"41\"
\"\",\"\",\"approach-retreat\",\"45\",\"502169\",\"0.0-45.0\",\"\",\"\",\"2-3\",\"4063\",\"40\",\"1\",\"Training\",\"Stims/Figures/57-J-0-1.bmp\",\"tapa:ka\",\"Up\",\"40\",\"3\",\"10\",\"1\",\"P\",\"J\",\"42\"
\"\",\"\",\"approach-retreat\",\"46\",\"507694\",\"0.0-46.0\",\"\",\"\",\"2-3\",\"4021\",\"39\",\"1\",\"Training\",\"Stims/Figures/74-J-10-4.bmp\",\"tapa:ka\",\"Left\",\"39\",\"3\",\"11\",\"1\",\"P\",\"J\",\"43\"
\"\",\"\",\"approach-retreat\",\"47\",\"513280\",\"0.0-47.0\",\"\",\"\",\"2-3\",\"4079\",\"39\",\"1\",\"Training\",\"Stims/Figures/74-C-20-4.bmp\",\"mala:na\",\"Right\",\"39\",\"3\",\"12\",\"1\",\"S\",\"J\",\"44\"
\"\",\"\",\"approach-retreat\",\"48\",\"518793\",\"0.0-48.0\",\"\",\"\",\"2-3\",\"4008\",\"39\",\"1\",\"Training\",\"Stims/Figures/57-C-30-1.bmp\",\"mala:na\",\"Right\",\"39\",\"3\",\"13\",\"1\",\"S\",\"J\",\"45\"
\"\",\"\",\"approach-retreat\",\"49\",\"524513\",\"0.0-49.0\",\"\",\"\",\"2-3\",\"4216\",\"40\",\"0\",\"Training\",\"Stims/Figures/27-J-0-1.bmp\",\"tapa:ka\",\"Down\",\"38\",\"3\",\"14\",\"1\",\"P\",\"J\",\"46\"
\"\",\"\",\"approach-retreat\",\"50\",\"531289\",\"0.0-50.0\",\"\",\"\",\"2-3\",\"5272\",\"38\",\"1\",\"Training\",\"Stims/Figures/144-C-30-3.bmp\",\"mala:na\",\"Up\",\"38\",\"3\",\"15\",\"1\",\"S\",\"J\",\"47\"
\"\",\"\",\"approach-retreat\",\"51\",\"537839\",\"0.0-51.0\",\"\",\"\",\"2-3\",\"5044\",\"37\",\"1\",\"Training\",\"Stims/Figures/44-C-30-3.bmp\",\"mala:na\",\"Left\",\"37\",\"3\",\"16\",\"1\",\"S\",\"J\",\"48\"
\"\",\"\",\"approach-retreat\",\"52\",\"544004\",\"0.0-52.0\",\"\",\"\",\"2-3\",\"4660\",\"38\",\"1\",\"Training\",\"Stims/Figures/57-C-30-1.bmp\",\"mala:na\",\"Up\",\"38\",\"4\",\"1\",\"1\",\"S\",\"J\",\"49\"
\"\",\"\",\"approach-retreat\",\"53\",\"549734\",\"0.0-53.0\",\"\",\"\",\"2-3\",\"4225\",\"39\",\"1\",\"Training\",\"Stims/Figures/7-C-20-4.bmp\",\"mala:na\",\"Right\",\"39\",\"4\",\"2\",\"1\",\"S\",\"J\",\"50\"
\"\",\"\",\"approach-retreat\",\"54\",\"555293\",\"0.0-54.0\",\"\",\"\",\"2-3\",\"4055\",\"40\",\"1\",\"Training\",\"Stims/Figures/74-J-10-4.bmp\",\"tapa:ka\",\"Up\",\"40\",\"4\",\"3\",\"1\",\"P\",\"J\",\"51\"
\"\",\"\",\"approach-retreat\",\"55\",\"560787\",\"0.0-55.0\",\"\",\"\",\"2-3\",\"3989\",\"40\",\"1\",\"Training\",\"Stims/Figures/144-J-10-3.bmp\",\"tapa:ka\",\"Up\",\"40\",\"4\",\"4\",\"1\",\"P\",\"J\",\"52\"
\"\",\"\",\"approach-retreat\",\"56\",\"566821\",\"0.0-56.0\",\"\",\"\",\"2-3\",\"4528\",\"40\",\"1\",\"Training\",\"Stims/Figures/144-C-30-3.bmp\",\"mala:na\",\"Down\",\"40\",\"4\",\"5\",\"1\",\"S\",\"J\",\"53\"
\"\",\"\",\"approach-retreat\",\"57\",\"572397\",\"0.0-57.0\",\"\",\"\",\"2-3\",\"4069\",\"37\",\"1\",\"Training\",\"Stims/Figures/7-J-10-4.bmp\",\"tapa:ka\",\"Right\",\"37\",\"4\",\"6\",\"1\",\"P\",\"J\",\"54\"
\"\",\"\",\"approach-retreat\",\"58\",\"578633\",\"0.0-58.0\",\"\",\"\",\"2-3\",\"4732\",\"39\",\"1\",\"Training\",\"Stims/Figures/139-C-20-2.bmp\",\"mala:na\",\"Right\",\"39\",\"4\",\"7\",\"1\",\"S\",\"J\",\"55\"
\"\",\"\",\"approach-retreat\",\"59\",\"584370\",\"0.0-59.0\",\"\",\"\",\"2-3\",\"4231\",\"40\",\"1\",\"Training\",\"Stims/Figures/44-C-30-3.bmp\",\"mala:na\",\"Down\",\"40\",\"4\",\"8\",\"1\",\"S\",\"J\",\"56\"
\"\",\"\",\"approach-retreat\",\"60\",\"589843\",\"0.0-60.0\",\"\",\"\",\"2-3\",\"3968\",\"40\",\"1\",\"Training\",\"Stims/Figures/27-C-30-1.bmp\",\"mala:na\",\"Down\",\"40\",\"4\",\"9\",\"1\",\"S\",\"J\",\"57\"
\"\",\"\",\"approach-retreat\",\"61\",\"595442\",\"0.0-61.0\",\"\",\"\",\"2-3\",\"4092\",\"40\",\"1\",\"Training\",\"Stims/Figures/118-J-0-2.bmp\",\"tapa:ka\",\"Up\",\"40\",\"4\",\"10\",\"1\",\"P\",\"J\",\"58\"
\"\",\"\",\"approach-retreat\",\"62\",\"600844\",\"0.0-62.0\",\"\",\"\",\"2-3\",\"3898\",\"39\",\"1\",\"Training\",\"Stims/Figures/139-J-0-2.bmp\",\"tapa:ka\",\"Left\",\"39\",\"4\",\"11\",\"1\",\"P\",\"J\",\"59\"
\"\",\"\",\"approach-retreat\",\"63\",\"607256\",\"0.0-63.0\",\"\",\"\",\"2-3\",\"4907\",\"38\",\"1\",\"Training\",\"Stims/Figures/57-J-0-1.bmp\",\"tapa:ka\",\"Down\",\"38\",\"4\",\"12\",\"1\",\"P\",\"J\",\"60\"
\"\",\"\",\"approach-retreat\",\"64\",\"612775\",\"0.0-64.0\",\"\",\"\",\"2-3\",\"4014\",\"39\",\"1\",\"Training\",\"Stims/Figures/27-J-0-1.bmp\",\"tapa:ka\",\"Left\",\"39\",\"4\",\"13\",\"1\",\"P\",\"J\",\"61\"
\"\",\"\",\"approach-retreat\",\"65\",\"618723\",\"0.0-65.0\",\"\",\"\",\"2-3\",\"4444\",\"39\",\"1\",\"Training\",\"Stims/Figures/44-J-10-3.bmp\",\"tapa:ka\",\"Left\",\"39\",\"4\",\"14\",\"1\",\"P\",\"J\",\"62\"
\"\",\"\",\"approach-retreat\",\"66\",\"624802\",\"0.0-66.0\",\"\",\"\",\"2-3\",\"4574\",\"37\",\"1\",\"Training\",\"Stims/Figures/118-C-20-2.bmp\",\"mala:na\",\"Left\",\"37\",\"4\",\"15\",\"1\",\"S\",\"J\",\"63\"
\"\",\"\",\"approach-retreat\",\"67\",\"630328\",\"0.0-67.0\",\"\",\"\",\"2-3\",\"4023\",\"39\",\"1\",\"Training\",\"Stims/Figures/74-C-20-4.bmp\",\"mala:na\",\"Right\",\"39\",\"4\",\"16\",\"1\",\"S\",\"J\",\"64\"
\"\",\"\",\"approach-retreat\",\"68\",\"635749\",\"0.0-68.0\",\"\",\"\",\"2-3\",\"3915\",\"39\",\"1\",\"Training\",\"Stims/Figures/27-J-0-1.bmp\",\"tapa:ka\",\"Left\",\"39\",\"5\",\"1\",\"1\",\"P\",\"J\",\"65\"
\"\",\"\",\"approach-retreat\",\"69\",\"641651\",\"0.0-69.0\",\"\",\"\",\"2-3\",\"4397\",\"40\",\"1\",\"Training\",\"Stims/Figures/57-C-30-1.bmp\",\"mala:na\",\"Down\",\"40\",\"5\",\"2\",\"1\",\"S\",\"J\",\"66\"
\"\",\"\",\"approach-retreat\",\"70\",\"647781\",\"0.0-70.0\",\"\",\"\",\"2-3\",\"4625\",\"37\",\"0\",\"Training\",\"Stims/Figures/44-J-10-3.bmp\",\"tapa:ka\",\"Left\",\"39\",\"5\",\"3\",\"1\",\"P\",\"J\",\"67\"
\"\",\"\",\"approach-retreat\",\"71\",\"653372\",\"0.0-71.0\",\"\",\"\",\"2-3\",\"4086\",\"37\",\"1\",\"Training\",\"Stims/Figures/118-J-0-2.bmp\",\"tapa:ka\",\"Right\",\"37\",\"5\",\"4\",\"1\",\"P\",\"J\",\"68\"
\"\",\"\",\"approach-retreat\",\"72\",\"658899\",\"0.0-72.0\",\"\",\"\",\"2-3\",\"4021\",\"38\",\"1\",\"Training\",\"Stims/Figures/118-C-20-2.bmp\",\"mala:na\",\"Up\",\"38\",\"5\",\"5\",\"1\",\"S\",\"J\",\"69\"
\"\",\"\",\"approach-retreat\",\"73\",\"664293\",\"0.0-73.0\",\"\",\"\",\"2-3\",\"3889\",\"39\",\"1\",\"Training\",\"Stims/Figures/44-C-30-3.bmp\",\"mala:na\",\"Right\",\"39\",\"5\",\"6\",\"1\",\"S\",\"J\",\"70\"
\"\",\"\",\"approach-retreat\",\"74\",\"669782\",\"0.0-74.0\",\"\",\"\",\"2-3\",\"3984\",\"37\",\"1\",\"Training\",\"Stims/Figures/7-J-10-4.bmp\",\"tapa:ka\",\"Right\",\"37\",\"5\",\"7\",\"1\",\"P\",\"J\",\"71\"
\"\",\"\",\"approach-retreat\",\"75\",\"675329\",\"0.0-75.0\",\"\",\"\",\"2-3\",\"4042\",\"40\",\"1\",\"Training\",\"Stims/Figures/7-C-20-4.bmp\",\"mala:na\",\"Down\",\"40\",\"5\",\"8\",\"1\",\"S\",\"J\",\"72\"
\"\",\"\",\"approach-retreat\",\"76\",\"681154\",\"0.0-76.0\",\"\",\"\",\"2-3\",\"4320\",\"39\",\"1\",\"Training\",\"Stims/Figures/27-C-30-1.bmp\",\"mala:na\",\"Right\",\"39\",\"5\",\"9\",\"1\",\"S\",\"J\",\"73\"
\"\",\"\",\"approach-retreat\",\"77\",\"686669\",\"0.0-77.0\",\"\",\"\",\"2-3\",\"4010\",\"38\",\"1\",\"Training\",\"Stims/Figures/144-J-10-3.bmp\",\"tapa:ka\",\"Down\",\"38\",\"5\",\"10\",\"1\",\"P\",\"J\",\"74\"
\"\",\"\",\"approach-retreat\",\"78\",\"692138\",\"0.0-78.0\",\"\",\"\",\"2-3\",\"3964\",\"39\",\"1\",\"Training\",\"Stims/Figures/57-J-0-1.bmp\",\"tapa:ka\",\"Left\",\"39\",\"5\",\"11\",\"1\",\"P\",\"J\",\"75\"
\"\",\"\",\"approach-retreat\",\"79\",\"697959\",\"0.0-79.0\",\"\",\"\",\"2-3\",\"4315\",\"40\",\"1\",\"Training\",\"Stims/Figures/139-J-0-2.bmp\",\"tapa:ka\",\"Up\",\"40\",\"5\",\"12\",\"1\",\"P\",\"J\",\"76\"
\"\",\"\",\"approach-retreat\",\"80\",\"703563\",\"0.0-80.0\",\"\",\"\",\"2-3\",\"4099\",\"37\",\"1\",\"Training\",\"Stims/Figures/139-C-20-2.bmp\",\"mala:na\",\"Left\",\"37\",\"5\",\"13\",\"1\",\"S\",\"J\",\"77\"
\"\",\"\",\"approach-retreat\",\"81\",\"709236\",\"0.0-81.0\",\"\",\"\",\"2-3\",\"4168\",\"40\",\"1\",\"Training\",\"Stims/Figures/74-J-10-4.bmp\",\"tapa:ka\",\"Up\",\"40\",\"5\",\"14\",\"1\",\"P\",\"J\",\"78\"
\"\",\"\",\"approach-retreat\",\"82\",\"715464\",\"0.0-82.0\",\"\",\"\",\"2-3\",\"4721\",\"40\",\"1\",\"Training\",\"Stims/Figures/144-C-30-3.bmp\",\"mala:na\",\"Down\",\"40\",\"5\",\"15\",\"1\",\"S\",\"J\",\"79\"
\"\",\"\",\"approach-retreat\",\"83\",\"721747\",\"0.0-83.0\",\"\",\"\",\"2-3\",\"4778\",\"38\",\"1\",\"Training\",\"Stims/Figures/74-C-20-4.bmp\",\"mala:na\",\"Up\",\"38\",\"5\",\"16\",\"1\",\"S\",\"J\",\"80\"
\"\",\"\",\"approach-retreat\",\"84\",\"728004\",\"0.0-84.0\",\"\",\"\",\"2-3\",\"4750\",\"40\",\"1\",\"Training\",\"Stims/Figures/139-J-0-2.bmp\",\"tapa:ka\",\"Up\",\"40\",\"6\",\"1\",\"1\",\"P\",\"J\",\"81\"
\"\",\"\",\"approach-retreat\",\"85\",\"733454\",\"0.0-85.0\",\"\",\"\",\"2-3\",\"3945\",\"40\",\"1\",\"Training\",\"Stims/Figures/7-J-10-4.bmp\",\"tapa:ka\",\"Up\",\"40\",\"6\",\"2\",\"1\",\"P\",\"J\",\"82\"
\"\",\"\",\"approach-retreat\",\"86\",\"739431\",\"0.0-86.0\",\"\",\"\",\"2-3\",\"4471\",\"39\",\"1\",\"Training\",\"Stims/Figures/57-C-30-1.bmp\",\"mala:na\",\"Right\",\"39\",\"6\",\"3\",\"1\",\"S\",\"J\",\"83\"
\"\",\"\",\"approach-retreat\",\"87\",\"744844\",\"0.0-87.0\",\"\",\"\",\"2-3\",\"3909\",\"37\",\"1\",\"Training\",\"Stims/Figures/57-J-0-1.bmp\",\"tapa:ka\",\"Right\",\"37\",\"6\",\"4\",\"1\",\"P\",\"J\",\"84\"
\"\",\"\",\"approach-retreat\",\"88\",\"750541\",\"0.0-88.0\",\"\",\"\",\"2-3\",\"4193\",\"40\",\"1\",\"Training\",\"Stims/Figures/139-C-20-2.bmp\",\"mala:na\",\"Down\",\"40\",\"6\",\"5\",\"1\",\"S\",\"J\",\"85\"
\"\",\"\",\"approach-retreat\",\"89\",\"756063\",\"0.0-89.0\",\"\",\"\",\"2-3\",\"4016\",\"37\",\"1\",\"Training\",\"Stims/Figures/144-J-10-3.bmp\",\"tapa:ka\",\"Right\",\"37\",\"6\",\"6\",\"1\",\"P\",\"J\",\"86\"
\"\",\"\",\"approach-retreat\",\"90\",\"761943\",\"0.0-90.0\",\"\",\"\",\"2-3\",\"4375\",\"39\",\"1\",\"Training\",\"Stims/Figures/44-J-10-3.bmp\",\"tapa:ka\",\"Left\",\"39\",\"6\",\"7\",\"1\",\"P\",\"J\",\"87\"
\"\",\"\",\"approach-retreat\",\"91\",\"767675\",\"0.0-91.0\",\"\",\"\",\"2-3\",\"4227\",\"39\",\"1\",\"Training\",\"Stims/Figures/118-J-0-2.bmp\",\"tapa:ka\",\"Left\",\"39\",\"6\",\"8\",\"1\",\"P\",\"J\",\"88\"
\"\",\"\",\"approach-retreat\",\"92\",\"773296\",\"0.0-92.0\",\"\",\"\",\"2-3\",\"4116\",\"37\",\"1\",\"Training\",\"Stims/Figures/118-C-20-2.bmp\",\"mala:na\",\"Left\",\"37\",\"6\",\"9\",\"1\",\"S\",\"J\",\"89\"
\"\",\"\",\"approach-retreat\",\"93\",\"779298\",\"0.0-93.0\",\"\",\"\",\"2-3\",\"4497\",\"40\",\"1\",\"Training\",\"Stims/Figures/44-C-30-3.bmp\",\"mala:na\",\"Down\",\"40\",\"6\",\"10\",\"1\",\"S\",\"J\",\"90\"
\"\",\"\",\"approach-retreat\",\"94\",\"784873\",\"0.0-94.0\",\"\",\"\",\"2-3\",\"4069\",\"40\",\"1\",\"Training\",\"Stims/Figures/27-J-0-1.bmp\",\"tapa:ka\",\"Up\",\"40\",\"6\",\"11\",\"1\",\"P\",\"J\",\"91\"
\"\",\"\",\"approach-retreat\",\"95\",\"790696\",\"0.0-95.0\",\"\",\"\",\"2-3\",\"4317\",\"40\",\"1\",\"Training\",\"Stims/Figures/7-C-20-4.bmp\",\"mala:na\",\"Down\",\"40\",\"6\",\"12\",\"1\",\"S\",\"J\",\"92\"
\"\",\"\",\"approach-retreat\",\"96\",\"796381\",\"0.0-96.0\",\"\",\"\",\"2-3\",\"4181\",\"37\",\"1\",\"Training\",\"Stims/Figures/74-C-20-4.bmp\",\"mala:na\",\"Left\",\"37\",\"6\",\"13\",\"1\",\"S\",\"J\",\"93\"
\"\",\"\",\"approach-retreat\",\"97\",\"804057\",\"0.0-97.0\",\"\",\"\",\"2-3\",\"6170\",\"39\",\"1\",\"Training\",\"Stims/Figures/27-C-30-1.bmp\",\"mala:na\",\"Right\",\"39\",\"6\",\"14\",\"1\",\"S\",\"J\",\"94\"
\"\",\"\",\"approach-retreat\",\"98\",\"809616\",\"0.0-98.0\",\"\",\"\",\"2-3\",\"4053\",\"40\",\"1\",\"Training\",\"Stims/Figures/74-J-10-4.bmp\",\"tapa:ka\",\"Up\",\"40\",\"6\",\"15\",\"1\",\"P\",\"J\",\"95\"
\"\",\"\",\"approach-retreat\",\"99\",\"815415\",\"0.0-99.0\",\"\",\"\",\"2-3\",\"4295\",\"40\",\"1\",\"Training\",\"Stims/Figures/144-C-30-3.bmp\",\"mala:na\",\"Down\",\"40\",\"6\",\"16\",\"1\",\"S\",\"J\",\"96\"
\"\",\"\",\"approach-retreat\",\"100\",\"820973\",\"0.0-100.0\",\"\",\"\",\"2-3\",\"4052\",\"38\",\"1\",\"Training\",\"Stims/Figures/144-J-10-3.bmp\",\"tapa:ka\",\"Down\",\"38\",\"7\",\"1\",\"1\",\"P\",\"J\",\"97\"
\"\",\"\",\"approach-retreat\",\"101\",\"826706\",\"0.0-101.0\",\"\",\"\",\"2-3\",\"4230\",\"37\",\"1\",\"Training\",\"Stims/Figures/74-C-20-4.bmp\",\"mala:na\",\"Left\",\"37\",\"7\",\"2\",\"1\",\"S\",\"J\",\"98\"
\"\",\"\",\"approach-retreat\",\"102\",\"832308\",\"0.0-102.0\",\"\",\"\",\"2-3\",\"4097\",\"39\",\"1\",\"Training\",\"Stims/Figures/139-C-20-2.bmp\",\"mala:na\",\"Right\",\"39\",\"7\",\"3\",\"1\",\"S\",\"J\",\"99\"
\"\",\"\",\"approach-retreat\",\"103\",\"838244\",\"0.0-103.0\",\"\",\"\",\"2-3\",\"4429\",\"40\",\"1\",\"Training\",\"Stims/Figures/7-C-20-4.bmp\",\"mala:na\",\"Down\",\"40\",\"7\",\"4\",\"1\",\"S\",\"J\",\"100\"
\"\",\"\",\"approach-retreat\",\"104\",\"844432\",\"0.0-104.0\",\"\",\"\",\"2-3\",\"4682\",\"37\",\"1\",\"Training\",\"Stims/Figures/27-J-0-1.bmp\",\"tapa:ka\",\"Right\",\"37\",\"7\",\"5\",\"1\",\"P\",\"J\",\"101\"
\"\",\"\",\"approach-retreat\",\"105\",\"850205\",\"0.0-105.0\",\"\",\"\",\"2-3\",\"4267\",\"38\",\"1\",\"Training\",\"Stims/Figures/144-C-30-3.bmp\",\"mala:na\",\"Up\",\"38\",\"7\",\"6\",\"1\",\"S\",\"J\",\"102\"
\"\",\"\",\"approach-retreat\",\"106\",\"855761\",\"0.0-106.0\",\"\",\"\",\"2-3\",\"4051\",\"37\",\"1\",\"Training\",\"Stims/Figures/27-C-30-1.bmp\",\"mala:na\",\"Left\",\"37\",\"7\",\"7\",\"1\",\"S\",\"J\",\"103\"
\"\",\"\",\"approach-retreat\",\"107\",\"861214\",\"0.0-107.0\",\"\",\"\",\"2-3\",\"3949\",\"39\",\"1\",\"Training\",\"Stims/Figures/139-J-0-2.bmp\",\"tapa:ka\",\"Left\",\"39\",\"7\",\"8\",\"1\",\"P\",\"J\",\"104\"
\"\",\"\",\"approach-retreat\",\"108\",\"867139\",\"0.0-108.0\",\"\",\"\",\"2-3\",\"4420\",\"38\",\"1\",\"Training\",\"Stims/Figures/7-J-10-4.bmp\",\"tapa:ka\",\"Down\",\"38\",\"7\",\"9\",\"1\",\"P\",\"J\",\"105\"
\"\",\"\",\"approach-retreat\",\"109\",\"872737\",\"0.0-109.0\",\"\",\"\",\"2-3\",\"4094\",\"40\",\"1\",\"Training\",\"Stims/Figures/44-J-10-3.bmp\",\"tapa:ka\",\"Up\",\"40\",\"7\",\"10\",\"1\",\"P\",\"J\",\"106\"
\"\",\"\",\"approach-retreat\",\"110\",\"878323\",\"0.0-110.0\",\"\",\"\",\"2-3\",\"4079\",\"38\",\"1\",\"Training\",\"Stims/Figures/57-C-30-1.bmp\",\"mala:na\",\"Up\",\"38\",\"7\",\"11\",\"1\",\"S\",\"J\",\"107\"
\"\",\"\",\"approach-retreat\",\"111\",\"884035\",\"0.0-111.0\",\"\",\"\",\"2-3\",\"4206\",\"40\",\"1\",\"Training\",\"Stims/Figures/118-C-20-2.bmp\",\"mala:na\",\"Down\",\"40\",\"7\",\"12\",\"1\",\"S\",\"J\",\"108\"
\"\",\"\",\"approach-retreat\",\"112\",\"889640\",\"0.0-112.0\",\"\",\"\",\"2-3\",\"4101\",\"39\",\"1\",\"Training\",\"Stims/Figures/44-C-30-3.bmp\",\"mala:na\",\"Right\",\"39\",\"7\",\"13\",\"1\",\"S\",\"J\",\"109\"
\"\",\"\",\"approach-retreat\",\"113\",\"895065\",\"0.0-113.0\",\"\",\"\",\"2-3\",\"3921\",\"39\",\"1\",\"Training\",\"Stims/Figures/118-J-0-2.bmp\",\"tapa:ka\",\"Left\",\"39\",\"7\",\"14\",\"1\",\"P\",\"J\",\"110\"
\"\",\"\",\"approach-retreat\",\"114\",\"900761\",\"0.0-114.0\",\"\",\"\",\"2-3\",\"4191\",\"40\",\"1\",\"Training\",\"Stims/Figures/74-J-10-4.bmp\",\"tapa:ka\",\"Up\",\"40\",\"7\",\"15\",\"1\",\"P\",\"J\",\"111\"
\"\",\"\",\"approach-retreat\",\"115\",\"906328\",\"0.0-115.0\",\"\",\"\",\"2-3\",\"4062\",\"37\",\"1\",\"Training\",\"Stims/Figures/57-J-0-1.bmp\",\"tapa:ka\",\"Right\",\"37\",\"7\",\"16\",\"1\",\"P\",\"J\",\"112\"
\"\",\"\",\"approach-retreat\",\"116\",\"911793\",\"0.0-116.0\",\"\",\"\",\"2-3\",\"3960\",\"40\",\"1\",\"Training\",\"Stims/Figures/144-J-10-3.bmp\",\"tapa:ka\",\"Up\",\"40\",\"8\",\"1\",\"1\",\"P\",\"J\",\"113\"
\"\",\"\",\"approach-retreat\",\"117\",\"917248\",\"0.0-117.0\",\"\",\"\",\"2-3\",\"3950\",\"38\",\"1\",\"Training\",\"Stims/Figures/57-C-30-1.bmp\",\"mala:na\",\"Up\",\"38\",\"8\",\"2\",\"1\",\"S\",\"J\",\"114\"
\"\",\"\",\"approach-retreat\",\"118\",\"922957\",\"0.0-118.0\",\"\",\"\",\"2-3\",\"4203\",\"40\",\"1\",\"Training\",\"Stims/Figures/118-C-20-2.bmp\",\"mala:na\",\"Down\",\"40\",\"8\",\"3\",\"1\",\"S\",\"J\",\"115\"
\"\",\"\",\"approach-retreat\",\"119\",\"928369\",\"0.0-119.0\",\"\",\"\",\"2-3\",\"3907\",\"39\",\"1\",\"Training\",\"Stims/Figures/74-C-20-4.bmp\",\"mala:na\",\"Right\",\"39\",\"8\",\"4\",\"1\",\"S\",\"J\",\"116\"
\"\",\"\",\"approach-retreat\",\"120\",\"934413\",\"0.0-120.0\",\"\",\"\",\"2-3\",\"4538\",\"40\",\"0\",\"Training\",\"Stims/Figures/57-J-0-1.bmp\",\"tapa:ka\",\"Down\",\"38\",\"8\",\"5\",\"1\",\"P\",\"J\",\"117\"
\"\",\"\",\"approach-retreat\",\"121\",\"940483\",\"0.0-121.0\",\"\",\"\",\"2-3\",\"4565\",\"39\",\"1\",\"Training\",\"Stims/Figures/44-J-10-3.bmp\",\"tapa:ka\",\"Left\",\"39\",\"8\",\"6\",\"1\",\"P\",\"J\",\"118\"
\"\",\"\",\"approach-retreat\",\"122\",\"946349\",\"0.0-122.0\",\"\",\"\",\"2-3\",\"4361\",\"38\",\"1\",\"Training\",\"Stims/Figures/118-J-0-2.bmp\",\"tapa:ka\",\"Down\",\"38\",\"8\",\"7\",\"1\",\"P\",\"J\",\"119\"
\"\",\"\",\"approach-retreat\",\"123\",\"952244\",\"0.0-123.0\",\"\",\"\",\"2-3\",\"4390\",\"37\",\"1\",\"Training\",\"Stims/Figures/27-J-0-1.bmp\",\"tapa:ka\",\"Right\",\"37\",\"8\",\"8\",\"1\",\"P\",\"J\",\"120\"
\"\",\"\",\"approach-retreat\",\"124\",\"958241\",\"0.0-124.0\",\"\",\"\",\"2-3\",\"4492\",\"37\",\"1\",\"Training\",\"Stims/Figures/139-C-20-2.bmp\",\"mala:na\",\"Left\",\"37\",\"8\",\"9\",\"1\",\"S\",\"J\",\"121\"
\"\",\"\",\"approach-retreat\",\"125\",\"964293\",\"0.0-125.0\",\"\",\"\",\"2-3\",\"4549\",\"37\",\"1\",\"Training\",\"Stims/Figures/139-J-0-2.bmp\",\"tapa:ka\",\"Right\",\"37\",\"8\",\"10\",\"1\",\"P\",\"J\",\"122\"
\"\",\"\",\"approach-retreat\",\"126\",\"970147\",\"0.0-126.0\",\"\",\"\",\"2-3\",\"4348\",\"39\",\"1\",\"Training\",\"Stims/Figures/144-C-30-3.bmp\",\"mala:na\",\"Right\",\"39\",\"8\",\"11\",\"1\",\"S\",\"J\",\"123\"
\"\",\"\",\"approach-retreat\",\"127\",\"975815\",\"0.0-127.0\",\"\",\"\",\"2-3\",\"4163\",\"40\",\"1\",\"Training\",\"Stims/Figures/27-C-30-1.bmp\",\"mala:na\",\"Down\",\"40\",\"8\",\"12\",\"1\",\"S\",\"J\",\"124\"
\"\",\"\",\"approach-retreat\",\"128\",\"981677\",\"0.0-128.0\",\"\",\"\",\"2-3\",\"4357\",\"40\",\"1\",\"Training\",\"Stims/Figures/74-J-10-4.bmp\",\"tapa:ka\",\"Up\",\"40\",\"8\",\"13\",\"1\",\"P\",\"J\",\"125\"
\"\",\"\",\"approach-retreat\",\"129\",\"987420\",\"0.0-129.0\",\"\",\"\",\"2-3\",\"4238\",\"38\",\"1\",\"Training\",\"Stims/Figures/7-C-20-4.bmp\",\"mala:na\",\"Up\",\"38\",\"8\",\"14\",\"1\",\"S\",\"J\",\"126\"
\"\",\"\",\"approach-retreat\",\"130\",\"995071\",\"0.0-130.0\",\"\",\"\",\"2-3\",\"6146\",\"37\",\"1\",\"Training\",\"Stims/Figures/44-C-30-3.bmp\",\"mala:na\",\"Left\",\"37\",\"8\",\"15\",\"1\",\"S\",\"J\",\"127\"
\"\",\"\",\"approach-retreat\",\"131\",\"1000887\",\"0.0-131.0\",\"\",\"\",\"2-3\",\"4311\",\"39\",\"1\",\"Training\",\"Stims/Figures/7-J-10-4.bmp\",\"tapa:ka\",\"Left\",\"39\",\"8\",\"16\",\"1\",\"P\",\"J\",\"128\"
\"\",\"\",\"approach-retreat\",\"132\",\"1006803\",\"0.0-132.0\",\"\",\"\",\"2-3\",\"4411\",\"37\",\"1\",\"Training\",\"Stims/Figures/44-C-30-3.bmp\",\"mala:na\",\"Left\",\"37\",\"9\",\"1\",\"1\",\"S\",\"J\",\"129\"
\"\",\"\",\"approach-retreat\",\"133\",\"1013283\",\"0.0-133.0\",\"\",\"\",\"2-3\",\"4977\",\"40\",\"1\",\"Training\",\"Stims/Figures/7-C-20-4.bmp\",\"mala:na\",\"Down\",\"40\",\"9\",\"2\",\"1\",\"S\",\"J\",\"130\"
\"\",\"\",\"approach-retreat\",\"134\",\"1018899\",\"0.0-134.0\",\"\",\"\",\"2-3\",\"4110\",\"39\",\"1\",\"Training\",\"Stims/Figures/74-J-10-4.bmp\",\"tapa:ka\",\"Left\",\"39\",\"9\",\"3\",\"1\",\"P\",\"J\",\"131\"
\"\",\"\",\"approach-retreat\",\"135\",\"1025550\",\"0.0-135.0\",\"\",\"\",\"2-3\",\"5145\",\"38\",\"1\",\"Training\",\"Stims/Figures/139-J-0-2.bmp\",\"tapa:ka\",\"Down\",\"38\",\"9\",\"4\",\"1\",\"P\",\"J\",\"132\"
\"\",\"\",\"approach-retreat\",\"136\",\"1031060\",\"0.0-136.0\",\"\",\"\",\"2-3\",\"4005\",\"40\",\"1\",\"Training\",\"Stims/Figures/74-C-20-4.bmp\",\"mala:na\",\"Down\",\"40\",\"9\",\"5\",\"1\",\"S\",\"J\",\"133\"
\"\",\"\",\"approach-retreat\",\"137\",\"1036523\",\"0.0-137.0\",\"\",\"\",\"2-3\",\"3957\",\"37\",\"1\",\"Training\",\"Stims/Figures/57-J-0-1.bmp\",\"tapa:ka\",\"Right\",\"37\",\"9\",\"6\",\"1\",\"P\",\"J\",\"134\"
\"\",\"\",\"approach-retreat\",\"138\",\"1042606\",\"0.0-138.0\",\"\",\"\",\"2-3\",\"4579\",\"40\",\"1\",\"Training\",\"Stims/Figures/7-J-10-4.bmp\",\"tapa:ka\",\"Up\",\"40\",\"9\",\"7\",\"1\",\"P\",\"J\",\"135\"
\"\",\"\",\"approach-retreat\",\"139\",\"1048062\",\"0.0-139.0\",\"\",\"\",\"2-3\",\"3951\",\"40\",\"1\",\"Training\",\"Stims/Figures/144-J-10-3.bmp\",\"tapa:ka\",\"Up\",\"40\",\"9\",\"8\",\"1\",\"P\",\"J\",\"136\"
\"\",\"\",\"approach-retreat\",\"140\",\"1053617\",\"0.0-140.0\",\"\",\"\",\"2-3\",\"4050\",\"40\",\"1\",\"Training\",\"Stims/Figures/44-J-10-3.bmp\",\"tapa:ka\",\"Up\",\"40\",\"9\",\"9\",\"1\",\"P\",\"J\",\"137\"
\"\",\"\",\"approach-retreat\",\"141\",\"1059029\",\"0.0-141.0\",\"\",\"\",\"2-3\",\"3907\",\"39\",\"1\",\"Training\",\"Stims/Figures/57-C-30-1.bmp\",\"mala:na\",\"Right\",\"39\",\"9\",\"10\",\"1\",\"S\",\"J\",\"138\"
\"\",\"\",\"approach-retreat\",\"142\",\"1064609\",\"0.0-142.0\",\"\",\"\",\"2-3\",\"4075\",\"37\",\"1\",\"Training\",\"Stims/Figures/27-J-0-1.bmp\",\"tapa:ka\",\"Right\",\"37\",\"9\",\"11\",\"1\",\"P\",\"J\",\"139\"
\"\",\"\",\"approach-retreat\",\"143\",\"1070206\",\"0.0-143.0\",\"\",\"\",\"2-3\",\"4091\",\"39\",\"1\",\"Training\",\"Stims/Figures/139-C-20-2.bmp\",\"mala:na\",\"Right\",\"39\",\"9\",\"12\",\"1\",\"S\",\"J\",\"140\"
\"\",\"\",\"approach-retreat\",\"144\",\"1075779\",\"0.0-144.0\",\"\",\"\",\"2-3\",\"4068\",\"37\",\"1\",\"Training\",\"Stims/Figures/118-C-20-2.bmp\",\"mala:na\",\"Left\",\"37\",\"9\",\"13\",\"1\",\"S\",\"J\",\"141\"
\"\",\"\",\"approach-retreat\",\"145\",\"1081936\",\"0.0-145.0\",\"\",\"\",\"2-3\",\"4653\",\"37\",\"1\",\"Training\",\"Stims/Figures/27-C-30-1.bmp\",\"mala:na\",\"Left\",\"37\",\"9\",\"14\",\"1\",\"S\",\"J\",\"142\"
\"\",\"\",\"approach-retreat\",\"146\",\"1087578\",\"0.0-146.0\",\"\",\"\",\"2-3\",\"4138\",\"40\",\"1\",\"Training\",\"Stims/Figures/118-J-0-2.bmp\",\"tapa:ka\",\"Up\",\"40\",\"9\",\"15\",\"1\",\"P\",\"J\",\"143\"
\"\",\"\",\"approach-retreat\",\"147\",\"1093015\",\"0.0-147.0\",\"\",\"\",\"2-3\",\"3931\",\"40\",\"1\",\"Training\",\"Stims/Figures/144-C-30-3.bmp\",\"mala:na\",\"Down\",\"40\",\"9\",\"16\",\"1\",\"S\",\"J\",\"144\"
\"18532\",\"\",\"instructions\",\"148\",\"1111547\",\"0.0-148.0\",\"[{\"\"page_index\"\":0,\"\"viewing_time\"\":18531}]\",\"\",\"\",\"\",\"\",\"\",\"\",\"\",\"\",\"\",\"\",\"\",\"\",\"\",\"\",\"\",\"\"
\"\",\"\",\"approach-retreat\",\"149\",\"1120323\",\"0.0-149.0\",\"\",\"\",\"2-3\",\"7273\",\"38\",\"0\",\"Testing\",\"Stims/Figures/44-J-10-3.bmp\",\"tapa:ka\",\"Up\",\"40\",\"1\",\"1\",\"1\",\"P\",\"J\",\"1\"
\"\",\"\",\"approach-retreat\",\"150\",\"1125983\",\"0.0-150.0\",\"\",\"\",\"2-3\",\"4156\",\"37\",\"0\",\"Testing\",\"Stims/Figures/139-J-0-2.bmp\",\"tapa:ka\",\"Left\",\"39\",\"1\",\"2\",\"1\",\"P\",\"J\",\"2\"
\"\",\"\",\"approach-retreat\",\"151\",\"1131695\",\"0.0-151.0\",\"\",\"\",\"2-3\",\"4208\",\"37\",\"0\",\"Testing\",\"Stims/Figures/74-C-20-4.bmp\",\"mala:na\",\"Right\",\"39\",\"1\",\"3\",\"1\",\"S\",\"J\",\"3\"
\"\",\"\",\"approach-retreat\",\"152\",\"1137143\",\"0.0-152.0\",\"\",\"\",\"2-3\",\"3944\",\"37\",\"1\",\"Testing\",\"Stims/Figures/86-C-30-1.bmp\",\"mala:na\",\"Left\",\"37\",\"1\",\"4\",\"1\",\"S\",\"J\",\"4\"
\"\",\"\",\"approach-retreat\",\"153\",\"1142752\",\"0.0-153.0\",\"\",\"\",\"2-3\",\"4105\",\"37\",\"0\",\"Testing\",\"Stims/Figures/19-C-20-4.bmp\",\"mala:na\",\"Right\",\"39\",\"1\",\"5\",\"1\",\"S\",\"J\",\"5\"
\"\",\"\",\"approach-retreat\",\"154\",\"1150495\",\"0.0-154.0\",\"\",\"\",\"2-3\",\"6239\",\"40\",\"0\",\"Testing\",\"Stims/Figures/118-C-20-2.bmp\",\"mala:na\",\"Up\",\"38\",\"1\",\"6\",\"1\",\"S\",\"J\",\"6\"
\"\",\"\",\"approach-retreat\",\"155\",\"1155921\",\"0.0-155.0\",\"\",\"\",\"2-3\",\"3923\",\"37\",\"0\",\"Testing\",\"Stims/Figures/111-C-30-3.bmp\",\"mala:na\",\"Right\",\"39\",\"1\",\"7\",\"1\",\"S\",\"J\",\"7\"
\"\",\"\",\"approach-retreat\",\"156\",\"1161414\",\"0.0-156.0\",\"\",\"\",\"2-3\",\"3988\",\"39\",\"0\",\"Testing\",\"Stims/Figures/139-C-20-2.bmp\",\"mala:na\",\"Left\",\"37\",\"1\",\"8\",\"1\",\"S\",\"J\",\"8\"
\"\",\"\",\"approach-retreat\",\"157\",\"1166943\",\"0.0-157.0\",\"\",\"\",\"2-3\",\"4024\",\"40\",\"0\",\"Testing\",\"Stims/Figures/94-C-20-2.bmp\",\"mala:na\",\"Up\",\"38\",\"1\",\"9\",\"1\",\"S\",\"J\",\"9\"
\"\",\"\",\"approach-retreat\",\"158\",\"1172559\",\"0.0-158.0\",\"\",\"\",\"2-3\",\"4113\",\"38\",\"0\",\"Testing\",\"Stims/Figures/57-C-30-1.bmp\",\"mala:na\",\"Down\",\"40\",\"1\",\"10\",\"1\",\"S\",\"J\",\"10\"
\"\",\"\",\"approach-retreat\",\"159\",\"1178176\",\"0.0-159.0\",\"\",\"\",\"2-3\",\"4114\",\"39\",\"0\",\"Testing\",\"Stims/Figures/27-J-0-1.bmp\",\"tapa:ka\",\"Right\",\"37\",\"1\",\"11\",\"1\",\"P\",\"J\",\"11\"
\"\",\"\",\"approach-retreat\",\"160\",\"1183916\",\"0.0-160.0\",\"\",\"\",\"2-3\",\"4235\",\"40\",\"0\",\"Testing\",\"Stims/Figures/94-J-0-2.bmp\",\"tapa:ka\",\"Down\",\"38\",\"1\",\"12\",\"1\",\"P\",\"J\",\"12\"
\"\",\"\",\"approach-retreat\",\"161\",\"1189671\",\"0.0-161.0\",\"\",\"\",\"2-3\",\"4251\",\"40\",\"0\",\"Testing\",\"Stims/Figures/144-J-10-3.bmp\",\"tapa:ka\",\"Down\",\"38\",\"1\",\"13\",\"1\",\"P\",\"J\",\"13\"
\"\",\"\",\"approach-retreat\",\"162\",\"1195280\",\"0.0-162.0\",\"\",\"\",\"2-3\",\"4104\",\"39\",\"0\",\"Testing\",\"Stims/Figures/57-J-0-1.bmp\",\"tapa:ka\",\"Right\",\"37\",\"1\",\"14\",\"1\",\"P\",\"J\",\"14\"
\"\",\"\",\"approach-retreat\",\"163\",\"1200765\",\"0.0-163.0\",\"\",\"\",\"2-3\",\"3981\",\"39\",\"0\",\"Testing\",\"Stims/Figures/44-C-30-3.bmp\",\"mala:na\",\"Left\",\"37\",\"1\",\"15\",\"1\",\"S\",\"J\",\"15\"
\"\",\"\",\"approach-retreat\",\"164\",\"1206280\",\"0.0-164.0\",\"\",\"\",\"2-3\",\"4010\",\"38\",\"0\",\"Testing\",\"Stims/Figures/74-J-10-4.bmp\",\"tapa:ka\",\"Up\",\"40\",\"1\",\"16\",\"1\",\"P\",\"J\",\"16\"
\"\",\"\",\"approach-retreat\",\"165\",\"1211832\",\"0.0-165.0\",\"\",\"\",\"2-3\",\"4046\",\"37\",\"0\",\"Testing\",\"Stims/Figures/111-J-10-3.bmp\",\"tapa:ka\",\"Left\",\"39\",\"1\",\"17\",\"1\",\"P\",\"J\",\"17\"
\"\",\"\",\"approach-retreat\",\"166\",\"1217497\",\"0.0-166.0\",\"\",\"\",\"2-3\",\"4160\",\"39\",\"0\",\"Testing\",\"Stims/Figures/27-C-30-1.bmp\",\"mala:na\",\"Left\",\"37\",\"1\",\"18\",\"1\",\"S\",\"J\",\"18\"
\"\",\"\",\"approach-retreat\",\"167\",\"1223060\",\"0.0-167.0\",\"\",\"\",\"2-3\",\"4057\",\"39\",\"0\",\"Testing\",\"Stims/Figures/19-J-10-4.bmp\",\"tapa:ka\",\"Right\",\"37\",\"1\",\"19\",\"1\",\"P\",\"J\",\"19\"
\"\",\"\",\"approach-retreat\",\"168\",\"1228720\",\"0.0-168.0\",\"\",\"\",\"2-3\",\"4154\",\"40\",\"0\",\"Testing\",\"Stims/Figures/118-J-0-2.bmp\",\"tapa:ka\",\"Down\",\"38\",\"1\",\"20\",\"1\",\"P\",\"J\",\"20\"
\"\",\"\",\"approach-retreat\",\"169\",\"1234533\",\"0.0-169.0\",\"\",\"\",\"2-3\",\"4309\",\"40\",\"0\",\"Testing\",\"Stims/Figures/7-C-20-4.bmp\",\"mala:na\",\"Up\",\"38\",\"1\",\"21\",\"1\",\"S\",\"J\",\"21\"
\"\",\"\",\"approach-retreat\",\"170\",\"1240205\",\"0.0-170.0\",\"\",\"\",\"2-3\",\"4168\",\"38\",\"1\",\"Testing\",\"Stims/Figures/7-J-10-4.bmp\",\"tapa:ka\",\"Down\",\"38\",\"1\",\"22\",\"1\",\"P\",\"J\",\"22\"
\"\",\"\",\"approach-retreat\",\"171\",\"1245955\",\"0.0-171.0\",\"\",\"\",\"2-3\",\"4246\",\"38\",\"0\",\"Testing\",\"Stims/Figures/86-J-0-1.bmp\",\"tapa:ka\",\"Up\",\"40\",\"1\",\"23\",\"1\",\"P\",\"J\",\"23\"
\"\",\"\",\"approach-retreat\",\"172\",\"1251565\",\"0.0-172.0\",\"\",\"\",\"2-3\",\"4105\",\"38\",\"0\",\"Testing\",\"Stims/Figures/144-C-30-3.bmp\",\"mala:na\",\"Down\",\"40\",\"1\",\"24\",\"1\",\"S\",\"J\",\"24\"
\"\",\"\",\"approach-retreat\",\"173\",\"1257218\",\"0.0-173.0\",\"\",\"\",\"2-3\",\"4150\",\"39\",\"0\",\"Testing\",\"Stims/Figures/139-J-0-2.bmp\",\"tapa:ka\",\"Right\",\"37\",\"2\",\"1\",\"1\",\"P\",\"J\",\"25\"
\"\",\"\",\"approach-retreat\",\"174\",\"1263168\",\"0.0-174.0\",\"\",\"\",\"2-3\",\"4444\",\"39\",\"0\",\"Testing\",\"Stims/Figures/94-J-0-2.bmp\",\"tapa:ka\",\"Right\",\"37\",\"2\",\"2\",\"1\",\"P\",\"J\",\"26\"
\"\",\"\",\"approach-retreat\",\"175\",\"1268750\",\"0.0-175.0\",\"\",\"\",\"2-3\",\"4077\",\"39\",\"0\",\"Testing\",\"Stims/Figures/111-C-30-3.bmp\",\"mala:na\",\"Left\",\"37\",\"2\",\"3\",\"1\",\"S\",\"J\",\"27\"
\"\",\"\",\"approach-retreat\",\"176\",\"1274386\",\"0.0-176.0\",\"\",\"\",\"2-3\",\"4132\",\"38\",\"0\",\"Testing\",\"Stims/Figures/86-J-0-1.bmp\",\"tapa:ka\",\"Up\",\"40\",\"2\",\"4\",\"1\",\"P\",\"J\",\"28\"
\"\",\"\",\"approach-retreat\",\"177\",\"1280133\",\"0.0-177.0\",\"\",\"\",\"2-3\",\"4242\",\"38\",\"1\",\"Testing\",\"Stims/Figures/144-J-10-3.bmp\",\"tapa:ka\",\"Down\",\"38\",\"2\",\"5\",\"1\",\"P\",\"J\",\"29\"
\"\",\"\",\"approach-retreat\",\"178\",\"1285744\",\"0.0-178.0\",\"\",\"\",\"2-3\",\"4106\",\"38\",\"0\",\"Testing\",\"Stims/Figures/57-J-0-1.bmp\",\"tapa:ka\",\"Up\",\"40\",\"2\",\"6\",\"1\",\"P\",\"J\",\"30\"
\"\",\"\",\"approach-retreat\",\"179\",\"1291166\",\"0.0-179.0\",\"\",\"\",\"2-3\",\"3917\",\"39\",\"0\",\"Testing\",\"Stims/Figures/7-C-20-4.bmp\",\"mala:na\",\"Left\",\"37\",\"2\",\"7\",\"1\",\"S\",\"J\",\"31\"
\"\",\"\",\"approach-retreat\",\"180\",\"1296907\",\"0.0-180.0\",\"\",\"\",\"2-3\",\"4237\",\"40\",\"0\",\"Testing\",\"Stims/Figures/118-J-0-2.bmp\",\"tapa:ka\",\"Down\",\"38\",\"2\",\"8\",\"1\",\"P\",\"J\",\"32\"
\"\",\"\",\"approach-retreat\",\"181\",\"1302433\",\"0.0-181.0\",\"\",\"\",\"2-3\",\"4022\",\"39\",\"0\",\"Testing\",\"Stims/Figures/139-C-20-2.bmp\",\"mala:na\",\"Left\",\"37\",\"2\",\"9\",\"1\",\"S\",\"J\",\"33\"
\"\",\"\",\"approach-retreat\",\"182\",\"1308153\",\"0.0-182.0\",\"\",\"\",\"2-3\",\"4215\",\"37\",\"0\",\"Testing\",\"Stims/Figures/27-J-0-1.bmp\",\"tapa:ka\",\"Left\",\"39\",\"2\",\"10\",\"1\",\"P\",\"J\",\"34\"
\"\",\"\",\"approach-retreat\",\"183\",\"1315045\",\"0.0-183.0\",\"\",\"\",\"2-3\",\"5388\",\"39\",\"0\",\"Testing\",\"Stims/Figures/44-J-10-3.bmp\",\"tapa:ka\",\"Right\",\"37\",\"2\",\"11\",\"1\",\"P\",\"J\",\"35\"
\"\",\"\",\"approach-retreat\",\"184\",\"1320546\",\"0.0-184.0\",\"\",\"\",\"2-3\",\"3997\",\"38\",\"0\",\"Testing\",\"Stims/Figures/74-J-10-4.bmp\",\"tapa:ka\",\"Up\",\"40\",\"2\",\"12\",\"1\",\"P\",\"J\",\"36\"
\"\",\"\",\"approach-retreat\",\"185\",\"1326076\",\"0.0-185.0\",\"\",\"\",\"2-3\",\"4026\",\"37\",\"0\",\"Testing\",\"Stims/Figures/94-C-20-2.bmp\",\"mala:na\",\"Right\",\"39\",\"2\",\"13\",\"1\",\"S\",\"J\",\"37\"
\"\",\"\",\"approach-retreat\",\"186\",\"1331528\",\"0.0-186.0\",\"\",\"\",\"2-3\",\"3949\",\"39\",\"0\",\"Testing\",\"Stims/Figures/7-J-10-4.bmp\",\"tapa:ka\",\"Right\",\"37\",\"2\",\"14\",\"1\",\"P\",\"J\",\"38\"
\"\",\"\",\"approach-retreat\",\"187\",\"1337252\",\"0.0-187.0\",\"\",\"\",\"2-3\",\"4220\",\"38\",\"0\",\"Testing\",\"Stims/Figures/57-C-30-1.bmp\",\"mala:na\",\"Down\",\"40\",\"2\",\"15\",\"1\",\"S\",\"J\",\"39\"
\"\",\"\",\"approach-retreat\",\"188\",\"1342810\",\"0.0-188.0\",\"\",\"\",\"2-3\",\"4054\",\"38\",\"0\",\"Testing\",\"Stims/Figures/144-C-30-3.bmp\",\"mala:na\",\"Down\",\"40\",\"2\",\"16\",\"1\",\"S\",\"J\",\"40\"
\"\",\"\",\"approach-retreat\",\"189\",\"1348280\",\"0.0-189.0\",\"\",\"\",\"2-3\",\"3965\",\"39\",\"0\",\"Testing\",\"Stims/Figures/86-C-30-1.bmp\",\"mala:na\",\"Left\",\"37\",\"2\",\"17\",\"1\",\"S\",\"J\",\"41\"
\"\",\"\",\"approach-retreat\",\"190\",\"1354324\",\"0.0-190.0\",\"\",\"\",\"2-3\",\"4540\",\"38\",\"0\",\"Testing\",\"Stims/Figures/118-C-20-2.bmp\",\"mala:na\",\"Down\",\"40\",\"2\",\"18\",\"1\",\"S\",\"J\",\"42\"
\"\",\"\",\"approach-retreat\",\"191\",\"1361808\",\"0.0-191.0\",\"\",\"\",\"2-3\",\"5980\",\"39\",\"0\",\"Testing\",\"Stims/Figures/19-C-20-4.bmp\",\"mala:na\",\"Left\",\"37\",\"2\",\"19\",\"1\",\"S\",\"J\",\"43\"
\"\",\"\",\"approach-retreat\",\"192\",\"1368558\",\"0.0-192.0\",\"\",\"\",\"2-3\",\"5247\",\"38\",\"0\",\"Testing\",\"Stims/Figures/19-J-10-4.bmp\",\"tapa:ka\",\"Up\",\"40\",\"2\",\"20\",\"1\",\"P\",\"J\",\"44\"
\"\",\"\",\"approach-retreat\",\"193\",\"1374313\",\"0.0-193.0\",\"\",\"\",\"2-3\",\"4251\",\"40\",\"0\",\"Testing\",\"Stims/Figures/44-C-30-3.bmp\",\"mala:na\",\"Up\",\"38\",\"2\",\"21\",\"1\",\"S\",\"J\",\"45\"
\"\",\"\",\"approach-retreat\",\"194\",\"1380697\",\"0.0-194.0\",\"\",\"\",\"2-3\",\"4879\",\"38\",\"0\",\"Testing\",\"Stims/Figures/111-J-10-3.bmp\",\"tapa:ka\",\"Up\",\"40\",\"2\",\"22\",\"1\",\"P\",\"J\",\"46\"
\"\",\"\",\"approach-retreat\",\"195\",\"1386314\",\"0.0-195.0\",\"\",\"\",\"2-3\",\"4112\",\"38\",\"0\",\"Testing\",\"Stims/Figures/27-C-30-1.bmp\",\"mala:na\",\"Down\",\"40\",\"2\",\"23\",\"1\",\"S\",\"J\",\"47\"
\"\",\"\",\"approach-retreat\",\"196\",\"1391936\",\"0.0-196.0\",\"\",\"\",\"2-3\",\"4118\",\"37\",\"0\",\"Testing\",\"Stims/Figures/74-C-20-4.bmp\",\"mala:na\",\"Right\",\"39\",\"2\",\"24\",\"1\",\"S\",\"J\",\"48\"
\"\",\"\",\"approach-retreat\",\"197\",\"1398175\",\"0.0-197.0\",\"\",\"\",\"2-3\",\"4735\",\"40\",\"0\",\"Testing\",\"Stims/Figures/94-C-20-2.bmp\",\"mala:na\",\"Up\",\"38\",\"3\",\"1\",\"1\",\"S\",\"J\",\"49\"
\"\",\"\",\"approach-retreat\",\"198\",\"1403652\",\"0.0-198.0\",\"\",\"\",\"2-3\",\"3973\",\"38\",\"0\",\"Testing\",\"Stims/Figures/111-J-10-3.bmp\",\"tapa:ka\",\"Up\",\"40\",\"3\",\"2\",\"1\",\"P\",\"J\",\"50\"
\"\",\"\",\"approach-retreat\",\"199\",\"1409756\",\"0.0-199.0\",\"\",\"\",\"2-3\",\"4599\",\"39\",\"0\",\"Testing\",\"Stims/Figures/118-C-20-2.bmp\",\"mala:na\",\"Left\",\"37\",\"3\",\"3\",\"1\",\"S\",\"J\",\"51\"
\"\",\"\",\"approach-retreat\",\"200\",\"1415267\",\"0.0-200.0\",\"\",\"\",\"2-3\",\"4007\",\"39\",\"0\",\"Testing\",\"Stims/Figures/57-C-30-1.bmp\",\"mala:na\",\"Left\",\"37\",\"3\",\"4\",\"1\",\"S\",\"J\",\"52\"
\"\",\"\",\"approach-retreat\",\"201\",\"1420771\",\"0.0-201.0\",\"\",\"\",\"2-3\",\"4000\",\"39\",\"0\",\"Testing\",\"Stims/Figures/74-C-20-4.bmp\",\"mala:na\",\"Left\",\"37\",\"3\",\"5\",\"1\",\"S\",\"J\",\"53\"
\"\",\"\",\"approach-retreat\",\"202\",\"1426303\",\"0.0-202.0\",\"\",\"\",\"2-3\",\"4027\",\"38\",\"0\",\"Testing\",\"Stims/Figures/7-J-10-4.bmp\",\"tapa:ka\",\"Up\",\"40\",\"3\",\"6\",\"1\",\"P\",\"J\",\"54\"
\"\",\"\",\"approach-retreat\",\"203\",\"1432186\",\"0.0-203.0\",\"\",\"\",\"2-3\",\"4379\",\"40\",\"0\",\"Testing\",\"Stims/Figures/94-J-0-2.bmp\",\"tapa:ka\",\"Down\",\"38\",\"3\",\"7\",\"1\",\"P\",\"J\",\"55\"
\"\",\"\",\"approach-retreat\",\"204\",\"1437823\",\"0.0-204.0\",\"\",\"\",\"2-3\",\"4133\",\"38\",\"0\",\"Testing\",\"Stims/Figures/139-C-20-2.bmp\",\"mala:na\",\"Down\",\"40\",\"3\",\"8\",\"1\",\"S\",\"J\",\"56\"
\"\",\"\",\"approach-retreat\",\"205\",\"1443411\",\"0.0-205.0\",\"\",\"\",\"2-3\",\"4083\",\"39\",\"0\",\"Testing\",\"Stims/Figures/7-C-20-4.bmp\",\"mala:na\",\"Left\",\"37\",\"3\",\"9\",\"1\",\"S\",\"J\",\"57\"
\"\",\"\",\"approach-retreat\",\"206\",\"1449770\",\"0.0-206.0\",\"\",\"\",\"2-3\",\"4854\",\"37\",\"0\",\"Testing\",\"Stims/Figures/86-C-30-1.bmp\",\"mala:na\",\"Right\",\"39\",\"3\",\"10\",\"1\",\"S\",\"J\",\"58\"
\"\",\"\",\"approach-retreat\",\"207\",\"1455238\",\"0.0-207.0\",\"\",\"\",\"2-3\",\"3965\",\"39\",\"0\",\"Testing\",\"Stims/Figures/27-C-30-1.bmp\",\"mala:na\",\"Left\",\"37\",\"3\",\"11\",\"1\",\"S\",\"J\",\"59\"
\"\",\"\",\"approach-retreat\",\"208\",\"1460752\",\"0.0-208.0\",\"\",\"\",\"2-3\",\"4009\",\"38\",\"0\",\"Testing\",\"Stims/Figures/44-C-30-3.bmp\",\"mala:na\",\"Down\",\"40\",\"3\",\"12\",\"1\",\"S\",\"J\",\"60\"
\"\",\"\",\"approach-retreat\",\"209\",\"1467664\",\"0.0-209.0\",\"\",\"\",\"2-3\",\"5407\",\"39\",\"0\",\"Testing\",\"Stims/Figures/57-J-0-1.bmp\",\"tapa:ka\",\"Right\",\"37\",\"3\",\"13\",\"1\",\"P\",\"J\",\"61\"
\"\",\"\",\"approach-retreat\",\"210\",\"1473946\",\"0.0-210.0\",\"\",\"\",\"2-3\",\"4777\",\"39\",\"0\",\"Testing\",\"Stims/Figures/74-J-10-4.bmp\",\"tapa:ka\",\"Right\",\"37\",\"3\",\"14\",\"1\",\"P\",\"J\",\"62\"
\"\",\"\",\"approach-retreat\",\"211\",\"1479837\",\"0.0-211.0\",\"\",\"\",\"2-3\",\"4387\",\"40\",\"0\",\"Testing\",\"Stims/Figures/44-J-10-3.bmp\",\"tapa:ka\",\"Down\",\"38\",\"3\",\"15\",\"1\",\"P\",\"J\",\"63\"
\"\",\"\",\"approach-retreat\",\"212\",\"1485468\",\"0.0-212.0\",\"\",\"\",\"2-3\",\"4125\",\"39\",\"0\",\"Testing\",\"Stims/Figures/27-J-0-1.bmp\",\"tapa:ka\",\"Right\",\"37\",\"3\",\"16\",\"1\",\"P\",\"J\",\"64\"
\"\",\"\",\"approach-retreat\",\"213\",\"1491474\",\"0.0-213.0\",\"\",\"\",\"2-3\",\"4502\",\"38\",\"0\",\"Testing\",\"Stims/Figures/139-J-0-2.bmp\",\"tapa:ka\",\"Up\",\"40\",\"3\",\"17\",\"1\",\"P\",\"J\",\"65\"
\"\",\"\",\"approach-retreat\",\"214\",\"1498127\",\"0.0-214.0\",\"\",\"\",\"2-3\",\"5149\",\"37\",\"0\",\"Testing\",\"Stims/Figures/19-J-10-4.bmp\",\"tapa:ka\",\"Left\",\"39\",\"3\",\"18\",\"1\",\"P\",\"J\",\"66\"
\"\",\"\",\"approach-retreat\",\"215\",\"1504431\",\"0.0-215.0\",\"\",\"\",\"2-3\",\"4801\",\"37\",\"0\",\"Testing\",\"Stims/Figures/111-C-30-3.bmp\",\"mala:na\",\"Right\",\"39\",\"3\",\"19\",\"1\",\"S\",\"J\",\"67\"
\"\",\"\",\"approach-retreat\",\"216\",\"1509967\",\"0.0-216.0\",\"\",\"\",\"2-3\",\"4032\",\"38\",\"0\",\"Testing\",\"Stims/Figures/118-J-0-2.bmp\",\"tapa:ka\",\"Up\",\"40\",\"3\",\"20\",\"1\",\"P\",\"J\",\"68\"
\"\",\"\",\"approach-retreat\",\"217\",\"1515521\",\"0.0-217.0\",\"\",\"\",\"2-3\",\"4051\",\"37\",\"0\",\"Testing\",\"Stims/Figures/19-C-20-4.bmp\",\"mala:na\",\"Right\",\"39\",\"3\",\"21\",\"1\",\"S\",\"J\",\"69\"
\"\",\"\",\"approach-retreat\",\"218\",\"1521434\",\"0.0-218.0\",\"\",\"\",\"2-3\",\"4408\",\"40\",\"0\",\"Testing\",\"Stims/Figures/144-J-10-3.bmp\",\"tapa:ka\",\"Down\",\"38\",\"3\",\"22\",\"1\",\"P\",\"J\",\"70\"
\"\",\"\",\"approach-retreat\",\"219\",\"1527133\",\"0.0-219.0\",\"\",\"\",\"2-3\",\"4195\",\"40\",\"0\",\"Testing\",\"Stims/Figures/86-J-0-1.bmp\",\"tapa:ka\",\"Down\",\"38\",\"3\",\"23\",\"1\",\"P\",\"J\",\"71\"
\"\",\"\",\"approach-retreat\",\"220\",\"1533436\",\"0.0-220.0\",\"\",\"\",\"2-3\",\"4800\",\"40\",\"0\",\"Testing\",\"Stims/Figures/144-C-30-3.bmp\",\"mala:na\",\"Up\",\"38\",\"3\",\"24\",\"1\",\"S\",\"J\",\"72\"
\"\",\"\",\"approach-retreat\",\"221\",\"1539276\",\"0.0-221.0\",\"\",\"\",\"2-3\",\"4337\",\"38\",\"0\",\"Testing\",\"Stims/Figures/74-C-20-4.bmp\",\"mala:na\",\"Down\",\"40\",\"4\",\"1\",\"1\",\"S\",\"J\",\"73\"
\"\",\"\",\"approach-retreat\",\"222\",\"1546195\",\"0.0-222.0\",\"\",\"\",\"2-3\",\"5416\",\"37\",\"0\",\"Testing\",\"Stims/Figures/57-J-0-1.bmp\",\"tapa:ka\",\"Left\",\"39\",\"4\",\"2\",\"1\",\"P\",\"J\",\"74\"
\"\",\"\",\"approach-retreat\",\"223\",\"1552274\",\"0.0-223.0\",\"\",\"\",\"2-3\",\"4574\",\"37\",\"0\",\"Testing\",\"Stims/Figures/94-C-20-2.bmp\",\"mala:na\",\"Right\",\"39\",\"4\",\"3\",\"1\",\"S\",\"J\",\"75\"
\"\",\"\",\"approach-retreat\",\"224\",\"1557868\",\"0.0-224.0\",\"\",\"\",\"2-3\",\"4090\",\"40\",\"0\",\"Testing\",\"Stims/Figures/144-C-30-3.bmp\",\"mala:na\",\"Up\",\"38\",\"4\",\"4\",\"1\",\"S\",\"J\",\"76\"
\"\",\"\",\"approach-retreat\",\"225\",\"1563326\",\"0.0-225.0\",\"\",\"\",\"2-3\",\"3951\",\"39\",\"0\",\"Testing\",\"Stims/Figures/44-C-30-3.bmp\",\"mala:na\",\"Left\",\"37\",\"4\",\"5\",\"1\",\"S\",\"J\",\"77\"
\"\",\"\",\"approach-retreat\",\"226\",\"1569154\",\"0.0-226.0\",\"\",\"\",\"2-3\",\"4324\",\"38\",\"0\",\"Testing\",\"Stims/Figures/111-J-10-3.bmp\",\"tapa:ka\",\"Up\",\"40\",\"4\",\"6\",\"1\",\"P\",\"J\",\"78\"
\"\",\"\",\"approach-retreat\",\"227\",\"1574759\",\"0.0-227.0\",\"\",\"\",\"2-3\",\"4100\",\"38\",\"0\",\"Testing\",\"Stims/Figures/86-J-0-1.bmp\",\"tapa:ka\",\"Up\",\"40\",\"4\",\"7\",\"1\",\"P\",\"J\",\"79\"
\"\",\"\",\"approach-retreat\",\"228\",\"1580367\",\"0.0-228.0\",\"\",\"\",\"2-3\",\"4103\",\"39\",\"0\",\"Testing\",\"Stims/Figures/44-J-10-3.bmp\",\"tapa:ka\",\"Right\",\"37\",\"4\",\"8\",\"1\",\"P\",\"J\",\"80\"
\"\",\"\",\"approach-retreat\",\"229\",\"1586257\",\"0.0-229.0\",\"\",\"\",\"2-3\",\"4386\",\"38\",\"0\",\"Testing\",\"Stims/Figures/7-C-20-4.bmp\",\"mala:na\",\"Down\",\"40\",\"4\",\"9\",\"1\",\"S\",\"J\",\"81\"
\"\",\"\",\"approach-retreat\",\"230\",\"1592619\",\"0.0-230.0\",\"\",\"\",\"2-3\",\"4857\",\"40\",\"0\",\"Testing\",\"Stims/Figures/19-J-10-4.bmp\",\"tapa:ka\",\"Down\",\"38\",\"4\",\"10\",\"1\",\"P\",\"J\",\"82\"
\"\",\"\",\"approach-retreat\",\"231\",\"1598157\",\"0.0-231.0\",\"\",\"\",\"2-3\",\"4034\",\"40\",\"0\",\"Testing\",\"Stims/Figures/139-C-20-2.bmp\",\"mala:na\",\"Up\",\"38\",\"4\",\"11\",\"1\",\"S\",\"J\",\"83\"
\"\",\"\",\"approach-retreat\",\"232\",\"1603715\",\"0.0-232.0\",\"\",\"\",\"2-3\",\"4054\",\"39\",\"1\",\"Testing\",\"Stims/Figures/74-J-10-4.bmp\",\"tapa:ka\",\"Left\",\"39\",\"4\",\"12\",\"1\",\"P\",\"J\",\"84\"
\"\",\"\",\"approach-retreat\",\"233\",\"1609164\",\"0.0-233.0\",\"\",\"\",\"2-3\",\"3944\",\"39\",\"0\",\"Testing\",\"Stims/Figures/19-C-20-4.bmp\",\"mala:na\",\"Left\",\"37\",\"4\",\"13\",\"1\",\"S\",\"J\",\"85\"
\"\",\"\",\"approach-retreat\",\"234\",\"1615371\",\"0.0-234.0\",\"\",\"\",\"2-3\",\"4701\",\"37\",\"0\",\"Testing\",\"Stims/Figures/57-C-30-1.bmp\",\"mala:na\",\"Right\",\"39\",\"4\",\"14\",\"1\",\"S\",\"J\",\"86\"
\"\",\"\",\"approach-retreat\",\"235\",\"1621130\",\"0.0-235.0\",\"\",\"\",\"2-3\",\"4255\",\"40\",\"0\",\"Testing\",\"Stims/Figures/27-J-0-1.bmp\",\"tapa:ka\",\"Down\",\"38\",\"4\",\"15\",\"1\",\"P\",\"J\",\"87\"
\"\",\"\",\"approach-retreat\",\"236\",\"1626910\",\"0.0-236.0\",\"\",\"\",\"2-3\",\"4276\",\"38\",\"0\",\"Testing\",\"Stims/Figures/144-J-10-3.bmp\",\"tapa:ka\",\"Up\",\"40\",\"4\",\"16\",\"1\",\"P\",\"J\",\"88\"
\"\",\"\",\"approach-retreat\",\"237\",\"1632884\",\"0.0-237.0\",\"\",\"\",\"2-3\",\"4470\",\"38\",\"0\",\"Testing\",\"Stims/Figures/7-J-10-4.bmp\",\"tapa:ka\",\"Up\",\"40\",\"4\",\"17\",\"1\",\"P\",\"J\",\"89\"
\"\",\"\",\"approach-retreat\",\"238\",\"1638336\",\"0.0-238.0\",\"\",\"\",\"2-3\",\"3947\",\"37\",\"0\",\"Testing\",\"Stims/Figures/111-C-30-3.bmp\",\"mala:na\",\"Right\",\"39\",\"4\",\"18\",\"1\",\"S\",\"J\",\"90\"
\"\",\"\",\"approach-retreat\",\"239\",\"1643993\",\"0.0-239.0\",\"\",\"\",\"2-3\",\"4152\",\"37\",\"0\",\"Testing\",\"Stims/Figures/27-C-30-1.bmp\",\"mala:na\",\"Right\",\"39\",\"4\",\"19\",\"1\",\"S\",\"J\",\"91\"
\"\",\"\",\"approach-retreat\",\"240\",\"1649541\",\"0.0-240.0\",\"\",\"\",\"2-3\",\"4044\",\"40\",\"0\",\"Testing\",\"Stims/Figures/118-J-0-2.bmp\",\"tapa:ka\",\"Down\",\"38\",\"4\",\"20\",\"1\",\"P\",\"J\",\"92\"
\"\",\"\",\"approach-retreat\",\"241\",\"1655029\",\"0.0-241.0\",\"\",\"\",\"2-3\",\"3983\",\"39\",\"0\",\"Testing\",\"Stims/Figures/86-C-30-1.bmp\",\"mala:na\",\"Left\",\"37\",\"4\",\"21\",\"1\",\"S\",\"J\",\"93\"
\"\",\"\",\"approach-retreat\",\"242\",\"1660995\",\"0.0-242.0\",\"\",\"\",\"2-3\",\"4461\",\"38\",\"0\",\"Testing\",\"Stims/Figures/118-C-20-2.bmp\",\"mala:na\",\"Down\",\"40\",\"4\",\"22\",\"1\",\"S\",\"J\",\"94\"
\"\",\"\",\"approach-retreat\",\"243\",\"1666434\",\"0.0-243.0\",\"\",\"\",\"2-3\",\"3934\",\"37\",\"0\",\"Testing\",\"Stims/Figures/94-J-0-2.bmp\",\"tapa:ka\",\"Left\",\"39\",\"4\",\"23\",\"1\",\"P\",\"J\",\"95\"
\"\",\"\",\"approach-retreat\",\"244\",\"1672456\",\"0.0-244.0\",\"\",\"\",\"2-3\",\"4518\",\"39\",\"0\",\"Testing\",\"Stims/Figures/139-J-0-2.bmp\",\"tapa:ka\",\"Right\",\"37\",\"4\",\"24\",\"1\",\"P\",\"J\",\"96\"
\"32689\",\"\",\"survey-text\",\"245\",\"1705149\",\"0.0-245.0\",\"\",\"{\"\"Q0\"\":\"\"PS170005\"\"}\",\"\",\"\",\"\",\"\",\"\",\"\",\"\",\"\",\"\",\"\",\"\",\"\",\"\",\"\",\"\"
