\"rt\",\"key_press\",\"trial_type\",\"trial_index\",\"time_elapsed\",\"internal_node_id\",\"view_history\",\"responses\",\"Id\",\"Rt\",\"ResKeyCode\",\"ResCorr\",\"TrialType2\",\"Image\",\"Label\",\"Location\",\"CorrectResponse\",\"Block\",\"BlockTrial\",\"Condition\",\"LabelType\",\"Subcondition\",\"trialNum\"
\"46426\",\"32\",\"text\",\"0\",\"46437\",\"0.0-0.0-0.0\",\"\",\"\",\"\",\"\",\"\",\"\",\"\",\"\",\"\",\"\",\"\",\"\",\"\",\"\",\"\",\"\",\"\"
\"50079\",\"\",\"instructions\",\"1\",\"96522\",\"0.0-1.0\",\"[{\"\"page_index\"\":0,\"\"viewing_time\"\":50079}]\",\"\",\"\",\"\",\"\",\"\",\"\",\"\",\"\",\"\",\"\",\"\",\"\",\"\",\"\",\"\",\"\"
\"19385\",\"\",\"survey-multi-choice\",\"2\",\"115947\",\"0.0-2.0\",\"\",\"{\"\"Q0\"\":\"\"Da\"\",\"\"Q1\"\":\"\"Da\"\",\"\"Q2\"\":\"\"Da\"\",\"\"Q3\"\":\"\"Da\"\",\"\"Q4\"\":\"\"Da\"\",\"\"Q5\"\":\"\"Da\"\"}\",\"\",\"\",\"\",\"\",\"\",\"\",\"\",\"\",\"\",\"\",\"\",\"\",\"\",\"\",\"\"
\"\",\"\",\"bio\",\"3\",\"123220\",\"0.0-3.0\",\"\",\"{\"\"age\"\":\"\"19\"\",\"\"gender\"\":\"\"f\"\",\"\"specify\"\":\"\"\"\"}\",\"\",\"\",\"\",\"\",\"\",\"\",\"\",\"\",\"\",\"\",\"\",\"\",\"\",\"\",\"\"
\"\",\"\",\"approach-retreat\",\"4\",\"131290\",\"0.0-4.0\",\"\",\"\",\"1-4\",\"6551\",\"37\",\"1\",\"Training\",\"Stims/Figures/86-C-30-1.bmp\",\"pa:pata\",\"Left\",\"37\",\"1\",\"1\",\"2\",\"P\",\"J\",\"1\"
\"\",\"\",\"approach-retreat\",\"5\",\"138426\",\"0.0-5.0\",\"\",\"\",\"1-4\",\"5631\",\"37\",\"0\",\"Training\",\"Stims/Figures/85-C-20-2.bmp\",\"pa:pata\",\"Right\",\"39\",\"1\",\"2\",\"2\",\"P\",\"J\",\"2\"
\"\",\"\",\"approach-retreat\",\"6\",\"145192\",\"0.0-6.0\",\"\",\"\",\"1-4\",\"5261\",\"39\",\"1\",\"Training\",\"Stims/Figures/19-J-10-4.bmp\",\"nalala\",\"Left\",\"39\",\"1\",\"3\",\"2\",\"S\",\"J\",\"3\"
\"\",\"\",\"approach-retreat\",\"7\",\"152135\",\"0.0-7.0\",\"\",\"\",\"1-4\",\"5437\",\"40\",\"0\",\"Training\",\"Stims/Figures/144-C-30-3.bmp\",\"pa:pata\",\"Up\",\"38\",\"1\",\"4\",\"2\",\"P\",\"J\",\"4\"
\"\",\"\",\"approach-retreat\",\"8\",\"160407\",\"0.0-8.0\",\"\",\"\",\"1-4\",\"6766\",\"38\",\"1\",\"Training\",\"Stims/Figures/27-J-0-1.bmp\",\"nalala\",\"Down\",\"38\",\"1\",\"5\",\"2\",\"S\",\"J\",\"5\"
\"\",\"\",\"approach-retreat\",\"9\",\"167127\",\"0.0-9.0\",\"\",\"\",\"1-4\",\"5213\",\"37\",\"1\",\"Training\",\"Stims/Figures/74-C-20-4.bmp\",\"pa:pata\",\"Left\",\"37\",\"1\",\"6\",\"2\",\"P\",\"J\",\"6\"
\"\",\"\",\"approach-retreat\",\"10\",\"174684\",\"0.0-10.0\",\"\",\"\",\"1-4\",\"6047\",\"40\",\"1\",\"Training\",\"Stims/Figures/128-C-30-3.bmp\",\"pa:pata\",\"Down\",\"40\",\"1\",\"7\",\"2\",\"P\",\"J\",\"7\"
\"\",\"\",\"approach-retreat\",\"11\",\"181955\",\"0.0-11.0\",\"\",\"\",\"1-4\",\"5757\",\"40\",\"1\",\"Training\",\"Stims/Figures/85-J-0-2.bmp\",\"nalala\",\"Up\",\"40\",\"1\",\"8\",\"2\",\"S\",\"J\",\"8\"
\"\",\"\",\"approach-retreat\",\"12\",\"187865\",\"0.0-12.0\",\"\",\"\",\"1-4\",\"4397\",\"40\",\"1\",\"Training\",\"Stims/Figures/128-J-10-3.bmp\",\"nalala\",\"Up\",\"40\",\"1\",\"9\",\"2\",\"S\",\"J\",\"9\"
\"\",\"\",\"approach-retreat\",\"13\",\"195191\",\"0.0-13.0\",\"\",\"\",\"1-4\",\"5821\",\"37\",\"1\",\"Training\",\"Stims/Figures/118-J-0-2.bmp\",\"nalala\",\"Right\",\"37\",\"1\",\"10\",\"2\",\"S\",\"J\",\"10\"
\"\",\"\",\"approach-retreat\",\"14\",\"201565\",\"0.0-14.0\",\"\",\"\",\"1-4\",\"4862\",\"39\",\"1\",\"Training\",\"Stims/Figures/144-J-10-3.bmp\",\"nalala\",\"Left\",\"39\",\"1\",\"11\",\"2\",\"S\",\"J\",\"11\"
\"\",\"\",\"approach-retreat\",\"15\",\"208342\",\"0.0-15.0\",\"\",\"\",\"1-4\",\"5267\",\"38\",\"0\",\"Training\",\"Stims/Figures/27-C-30-1.bmp\",\"pa:pata\",\"Down\",\"40\",\"1\",\"12\",\"2\",\"P\",\"J\",\"12\"
\"\",\"\",\"approach-retreat\",\"16\",\"214423\",\"0.0-16.0\",\"\",\"\",\"1-4\",\"4577\",\"40\",\"1\",\"Training\",\"Stims/Figures/74-J-10-4.bmp\",\"nalala\",\"Up\",\"40\",\"1\",\"13\",\"2\",\"S\",\"J\",\"13\"
\"\",\"\",\"approach-retreat\",\"17\",\"220906\",\"0.0-17.0\",\"\",\"\",\"1-4\",\"4971\",\"39\",\"1\",\"Training\",\"Stims/Figures/19-C-20-4.bmp\",\"pa:pata\",\"Right\",\"39\",\"1\",\"14\",\"2\",\"P\",\"J\",\"14\"
\"\",\"\",\"approach-retreat\",\"18\",\"227962\",\"0.0-18.0\",\"\",\"\",\"1-4\",\"5552\",\"39\",\"1\",\"Training\",\"Stims/Figures/118-C-20-2.bmp\",\"pa:pata\",\"Right\",\"39\",\"1\",\"15\",\"2\",\"P\",\"J\",\"15\"
\"\",\"\",\"approach-retreat\",\"19\",\"234952\",\"0.0-19.0\",\"\",\"\",\"1-4\",\"5479\",\"38\",\"1\",\"Training\",\"Stims/Figures/86-J-0-1.bmp\",\"nalala\",\"Down\",\"38\",\"1\",\"16\",\"2\",\"S\",\"J\",\"16\"
\"\",\"\",\"approach-retreat\",\"20\",\"241342\",\"0.0-20.0\",\"\",\"\",\"1-4\",\"4871\",\"39\",\"0\",\"Training\",\"Stims/Figures/144-C-30-3.bmp\",\"pa:pata\",\"Left\",\"37\",\"2\",\"1\",\"2\",\"P\",\"J\",\"17\"
\"\",\"\",\"approach-retreat\",\"21\",\"247807\",\"0.0-21.0\",\"\",\"\",\"1-4\",\"4959\",\"37\",\"1\",\"Training\",\"Stims/Figures/86-J-0-1.bmp\",\"nalala\",\"Right\",\"37\",\"2\",\"2\",\"2\",\"S\",\"J\",\"18\"
\"\",\"\",\"approach-retreat\",\"22\",\"254086\",\"0.0-22.0\",\"\",\"\",\"1-4\",\"4774\",\"39\",\"1\",\"Training\",\"Stims/Figures/27-J-0-1.bmp\",\"nalala\",\"Left\",\"39\",\"2\",\"3\",\"2\",\"S\",\"J\",\"19\"
\"\",\"\",\"approach-retreat\",\"23\",\"260859\",\"0.0-23.0\",\"\",\"\",\"1-4\",\"5261\",\"40\",\"1\",\"Training\",\"Stims/Figures/118-J-0-2.bmp\",\"nalala\",\"Up\",\"40\",\"2\",\"4\",\"2\",\"S\",\"J\",\"20\"
\"\",\"\",\"approach-retreat\",\"24\",\"267484\",\"0.0-24.0\",\"\",\"\",\"1-4\",\"5113\",\"38\",\"1\",\"Training\",\"Stims/Figures/85-J-0-2.bmp\",\"nalala\",\"Down\",\"38\",\"2\",\"5\",\"2\",\"S\",\"J\",\"21\"
\"\",\"\",\"approach-retreat\",\"25\",\"274434\",\"0.0-25.0\",\"\",\"\",\"1-4\",\"5438\",\"40\",\"1\",\"Training\",\"Stims/Figures/74-C-20-4.bmp\",\"pa:pata\",\"Down\",\"40\",\"2\",\"6\",\"2\",\"P\",\"J\",\"22\"
\"\",\"\",\"approach-retreat\",\"26\",\"280665\",\"0.0-26.0\",\"\",\"\",\"1-4\",\"4720\",\"40\",\"1\",\"Training\",\"Stims/Figures/128-J-10-3.bmp\",\"nalala\",\"Up\",\"40\",\"2\",\"7\",\"2\",\"S\",\"J\",\"23\"
\"\",\"\",\"approach-retreat\",\"27\",\"286496\",\"0.0-27.0\",\"\",\"\",\"1-4\",\"4317\",\"40\",\"1\",\"Training\",\"Stims/Figures/74-J-10-4.bmp\",\"nalala\",\"Up\",\"40\",\"2\",\"8\",\"2\",\"S\",\"J\",\"24\"
\"\",\"\",\"approach-retreat\",\"28\",\"292680\",\"0.0-28.0\",\"\",\"\",\"1-4\",\"4676\",\"37\",\"1\",\"Training\",\"Stims/Figures/128-C-30-3.bmp\",\"pa:pata\",\"Left\",\"37\",\"2\",\"9\",\"2\",\"P\",\"J\",\"25\"
\"\",\"\",\"approach-retreat\",\"29\",\"300268\",\"0.0-29.0\",\"\",\"\",\"1-4\",\"6075\",\"40\",\"1\",\"Training\",\"Stims/Figures/19-J-10-4.bmp\",\"nalala\",\"Up\",\"40\",\"2\",\"10\",\"2\",\"S\",\"J\",\"26\"
\"\",\"\",\"approach-retreat\",\"30\",\"306085\",\"0.0-30.0\",\"\",\"\",\"1-4\",\"4305\",\"37\",\"1\",\"Training\",\"Stims/Figures/27-C-30-1.bmp\",\"pa:pata\",\"Left\",\"37\",\"2\",\"11\",\"2\",\"P\",\"J\",\"27\"
\"\",\"\",\"approach-retreat\",\"31\",\"312116\",\"0.0-31.0\",\"\",\"\",\"1-4\",\"4517\",\"38\",\"1\",\"Training\",\"Stims/Figures/144-J-10-3.bmp\",\"nalala\",\"Down\",\"38\",\"2\",\"12\",\"2\",\"S\",\"J\",\"28\"
\"\",\"\",\"approach-retreat\",\"32\",\"318163\",\"0.0-32.0\",\"\",\"\",\"1-4\",\"4534\",\"39\",\"1\",\"Training\",\"Stims/Figures/85-C-20-2.bmp\",\"pa:pata\",\"Right\",\"39\",\"2\",\"13\",\"2\",\"P\",\"J\",\"29\"
\"\",\"\",\"approach-retreat\",\"33\",\"324064\",\"0.0-33.0\",\"\",\"\",\"1-4\",\"4384\",\"37\",\"0\",\"Training\",\"Stims/Figures/19-C-20-4.bmp\",\"pa:pata\",\"Right\",\"39\",\"2\",\"14\",\"2\",\"P\",\"J\",\"30\"
\"\",\"\",\"approach-retreat\",\"34\",\"330488\",\"0.0-34.0\",\"\",\"\",\"1-4\",\"4911\",\"40\",\"1\",\"Training\",\"Stims/Figures/118-C-20-2.bmp\",\"pa:pata\",\"Down\",\"40\",\"2\",\"15\",\"2\",\"P\",\"J\",\"31\"
\"\",\"\",\"approach-retreat\",\"35\",\"336559\",\"0.0-35.0\",\"\",\"\",\"1-4\",\"4558\",\"39\",\"1\",\"Training\",\"Stims/Figures/86-C-30-1.bmp\",\"pa:pata\",\"Right\",\"39\",\"2\",\"16\",\"2\",\"P\",\"J\",\"32\"
\"\",\"\",\"approach-retreat\",\"36\",\"342389\",\"0.0-36.0\",\"\",\"\",\"1-4\",\"4319\",\"39\",\"1\",\"Training\",\"Stims/Figures/86-C-30-1.bmp\",\"pa:pata\",\"Right\",\"39\",\"3\",\"1\",\"2\",\"P\",\"J\",\"33\"
\"\",\"\",\"approach-retreat\",\"37\",\"348028\",\"0.0-37.0\",\"\",\"\",\"1-4\",\"4132\",\"39\",\"1\",\"Training\",\"Stims/Figures/144-C-30-3.bmp\",\"pa:pata\",\"Right\",\"39\",\"3\",\"2\",\"2\",\"P\",\"J\",\"34\"
\"\",\"\",\"approach-retreat\",\"38\",\"354665\",\"0.0-38.0\",\"\",\"\",\"1-4\",\"5123\",\"37\",\"1\",\"Training\",\"Stims/Figures/19-J-10-4.bmp\",\"nalala\",\"Right\",\"37\",\"3\",\"3\",\"2\",\"S\",\"J\",\"35\"
\"\",\"\",\"approach-retreat\",\"39\",\"360979\",\"0.0-39.0\",\"\",\"\",\"1-4\",\"4803\",\"38\",\"1\",\"Training\",\"Stims/Figures/128-J-10-3.bmp\",\"nalala\",\"Down\",\"38\",\"3\",\"4\",\"2\",\"S\",\"J\",\"36\"
\"\",\"\",\"approach-retreat\",\"40\",\"367026\",\"0.0-40.0\",\"\",\"\",\"1-4\",\"4536\",\"40\",\"1\",\"Training\",\"Stims/Figures/85-J-0-2.bmp\",\"nalala\",\"Up\",\"40\",\"3\",\"5\",\"2\",\"S\",\"J\",\"37\"
\"\",\"\",\"approach-retreat\",\"41\",\"374120\",\"0.0-41.0\",\"\",\"\",\"1-4\",\"5583\",\"38\",\"1\",\"Training\",\"Stims/Figures/74-C-20-4.bmp\",\"pa:pata\",\"Up\",\"38\",\"3\",\"6\",\"2\",\"P\",\"J\",\"38\"
\"\",\"\",\"approach-retreat\",\"42\",\"380255\",\"0.0-42.0\",\"\",\"\",\"1-4\",\"4624\",\"39\",\"0\",\"Training\",\"Stims/Figures/128-C-30-3.bmp\",\"pa:pata\",\"Left\",\"37\",\"3\",\"7\",\"2\",\"P\",\"J\",\"39\"
\"\",\"\",\"approach-retreat\",\"43\",\"386218\",\"0.0-43.0\",\"\",\"\",\"1-4\",\"4446\",\"38\",\"1\",\"Training\",\"Stims/Figures/144-J-10-3.bmp\",\"nalala\",\"Down\",\"38\",\"3\",\"8\",\"2\",\"S\",\"J\",\"40\"
\"\",\"\",\"approach-retreat\",\"44\",\"392726\",\"0.0-44.0\",\"\",\"\",\"1-4\",\"4996\",\"37\",\"1\",\"Training\",\"Stims/Figures/27-C-30-1.bmp\",\"pa:pata\",\"Left\",\"37\",\"3\",\"9\",\"2\",\"P\",\"J\",\"41\"
\"\",\"\",\"approach-retreat\",\"45\",\"399254\",\"0.0-45.0\",\"\",\"\",\"1-4\",\"5023\",\"38\",\"1\",\"Training\",\"Stims/Figures/118-C-20-2.bmp\",\"pa:pata\",\"Up\",\"38\",\"3\",\"10\",\"2\",\"P\",\"J\",\"42\"
\"\",\"\",\"approach-retreat\",\"46\",\"406710\",\"0.0-46.0\",\"\",\"\",\"1-4\",\"5951\",\"37\",\"1\",\"Training\",\"Stims/Figures/86-J-0-1.bmp\",\"nalala\",\"Right\",\"37\",\"3\",\"11\",\"2\",\"S\",\"J\",\"43\"
\"\",\"\",\"approach-retreat\",\"47\",\"412851\",\"0.0-47.0\",\"\",\"\",\"1-4\",\"4516\",\"38\",\"1\",\"Training\",\"Stims/Figures/74-J-10-4.bmp\",\"nalala\",\"Down\",\"38\",\"3\",\"12\",\"2\",\"S\",\"J\",\"44\"
\"\",\"\",\"approach-retreat\",\"48\",\"418993\",\"0.0-48.0\",\"\",\"\",\"1-4\",\"4637\",\"37\",\"1\",\"Training\",\"Stims/Figures/85-C-20-2.bmp\",\"pa:pata\",\"Left\",\"37\",\"3\",\"13\",\"2\",\"P\",\"J\",\"45\"
\"\",\"\",\"approach-retreat\",\"49\",\"425278\",\"0.0-49.0\",\"\",\"\",\"1-4\",\"4782\",\"40\",\"1\",\"Training\",\"Stims/Figures/118-J-0-2.bmp\",\"nalala\",\"Up\",\"40\",\"3\",\"14\",\"2\",\"S\",\"J\",\"46\"
\"\",\"\",\"approach-retreat\",\"50\",\"431850\",\"0.0-50.0\",\"\",\"\",\"1-4\",\"5067\",\"39\",\"1\",\"Training\",\"Stims/Figures/27-J-0-1.bmp\",\"nalala\",\"Left\",\"39\",\"3\",\"15\",\"2\",\"S\",\"J\",\"47\"
\"\",\"\",\"approach-retreat\",\"51\",\"438148\",\"0.0-51.0\",\"\",\"\",\"1-4\",\"4793\",\"40\",\"1\",\"Training\",\"Stims/Figures/19-C-20-4.bmp\",\"pa:pata\",\"Down\",\"40\",\"3\",\"16\",\"2\",\"P\",\"J\",\"48\"
\"\",\"\",\"approach-retreat\",\"52\",\"445027\",\"0.0-52.0\",\"\",\"\",\"1-4\",\"5376\",\"39\",\"1\",\"Training\",\"Stims/Figures/86-J-0-1.bmp\",\"nalala\",\"Left\",\"39\",\"4\",\"1\",\"2\",\"S\",\"J\",\"49\"
\"\",\"\",\"approach-retreat\",\"53\",\"451084\",\"0.0-53.0\",\"\",\"\",\"1-4\",\"4551\",\"38\",\"1\",\"Training\",\"Stims/Figures/19-J-10-4.bmp\",\"nalala\",\"Down\",\"38\",\"4\",\"2\",\"2\",\"S\",\"J\",\"50\"
\"\",\"\",\"approach-retreat\",\"54\",\"457468\",\"0.0-54.0\",\"\",\"\",\"1-4\",\"4880\",\"38\",\"1\",\"Training\",\"Stims/Figures/144-C-30-3.bmp\",\"pa:pata\",\"Up\",\"38\",\"4\",\"3\",\"2\",\"P\",\"J\",\"51\"
\"\",\"\",\"approach-retreat\",\"55\",\"463591\",\"0.0-55.0\",\"\",\"\",\"1-4\",\"4608\",\"38\",\"1\",\"Training\",\"Stims/Figures/144-J-10-3.bmp\",\"nalala\",\"Down\",\"38\",\"4\",\"4\",\"2\",\"S\",\"J\",\"52\"
\"\",\"\",\"approach-retreat\",\"56\",\"470889\",\"0.0-56.0\",\"\",\"\",\"1-4\",\"5791\",\"39\",\"1\",\"Training\",\"Stims/Figures/85-J-0-2.bmp\",\"nalala\",\"Left\",\"39\",\"4\",\"5\",\"2\",\"S\",\"J\",\"53\"
\"\",\"\",\"approach-retreat\",\"57\",\"477976\",\"0.0-57.0\",\"\",\"\",\"1-4\",\"5580\",\"40\",\"1\",\"Training\",\"Stims/Figures/128-J-10-3.bmp\",\"nalala\",\"Up\",\"40\",\"4\",\"6\",\"2\",\"S\",\"J\",\"54\"
\"\",\"\",\"approach-retreat\",\"58\",\"484399\",\"0.0-58.0\",\"\",\"\",\"1-4\",\"4912\",\"37\",\"1\",\"Training\",\"Stims/Figures/74-C-20-4.bmp\",\"pa:pata\",\"Left\",\"37\",\"4\",\"7\",\"2\",\"P\",\"J\",\"55\"
\"\",\"\",\"approach-retreat\",\"59\",\"490579\",\"0.0-59.0\",\"\",\"\",\"1-4\",\"4667\",\"39\",\"1\",\"Training\",\"Stims/Figures/27-C-30-1.bmp\",\"pa:pata\",\"Right\",\"39\",\"4\",\"8\",\"2\",\"P\",\"J\",\"56\"
\"\",\"\",\"approach-retreat\",\"60\",\"496840\",\"0.0-60.0\",\"\",\"\",\"1-4\",\"4745\",\"37\",\"1\",\"Training\",\"Stims/Figures/19-C-20-4.bmp\",\"pa:pata\",\"Left\",\"37\",\"4\",\"9\",\"2\",\"P\",\"J\",\"57\"
\"\",\"\",\"approach-retreat\",\"61\",\"505757\",\"0.0-61.0\",\"\",\"\",\"1-4\",\"7411\",\"37\",\"1\",\"Training\",\"Stims/Figures/118-J-0-2.bmp\",\"nalala\",\"Right\",\"37\",\"4\",\"10\",\"2\",\"S\",\"J\",\"58\"
\"\",\"\",\"approach-retreat\",\"62\",\"513716\",\"0.0-62.0\",\"\",\"\",\"1-4\",\"6424\",\"37\",\"0\",\"Training\",\"Stims/Figures/118-C-20-2.bmp\",\"pa:pata\",\"Right\",\"39\",\"4\",\"11\",\"2\",\"P\",\"J\",\"59\"
\"\",\"\",\"approach-retreat\",\"63\",\"522283\",\"0.0-63.0\",\"\",\"\",\"1-4\",\"7062\",\"40\",\"1\",\"Training\",\"Stims/Figures/85-C-20-2.bmp\",\"pa:pata\",\"Down\",\"40\",\"4\",\"12\",\"2\",\"P\",\"J\",\"60\"
\"\",\"\",\"approach-retreat\",\"64\",\"529924\",\"0.0-64.0\",\"\",\"\",\"1-4\",\"6129\",\"38\",\"1\",\"Training\",\"Stims/Figures/128-C-30-3.bmp\",\"pa:pata\",\"Up\",\"38\",\"4\",\"13\",\"2\",\"P\",\"J\",\"61\"
\"\",\"\",\"approach-retreat\",\"65\",\"535883\",\"0.0-65.0\",\"\",\"\",\"1-4\",\"4453\",\"37\",\"1\",\"Training\",\"Stims/Figures/74-J-10-4.bmp\",\"nalala\",\"Right\",\"37\",\"4\",\"14\",\"2\",\"S\",\"J\",\"62\"
\"\",\"\",\"approach-retreat\",\"66\",\"541948\",\"0.0-66.0\",\"\",\"\",\"1-4\",\"4561\",\"38\",\"1\",\"Training\",\"Stims/Figures/27-J-0-1.bmp\",\"nalala\",\"Down\",\"38\",\"4\",\"15\",\"2\",\"S\",\"J\",\"63\"
\"\",\"\",\"approach-retreat\",\"67\",\"548049\",\"0.0-67.0\",\"\",\"\",\"1-4\",\"4596\",\"38\",\"1\",\"Training\",\"Stims/Figures/86-C-30-1.bmp\",\"pa:pata\",\"Up\",\"38\",\"4\",\"16\",\"2\",\"P\",\"J\",\"64\"
\"\",\"\",\"approach-retreat\",\"68\",\"554458\",\"0.0-68.0\",\"\",\"\",\"1-4\",\"4905\",\"37\",\"0\",\"Training\",\"Stims/Figures/144-J-10-3.bmp\",\"nalala\",\"Left\",\"39\",\"5\",\"1\",\"2\",\"S\",\"J\",\"65\"
\"\",\"\",\"approach-retreat\",\"69\",\"560990\",\"0.0-69.0\",\"\",\"\",\"1-4\",\"5020\",\"37\",\"1\",\"Training\",\"Stims/Figures/19-J-10-4.bmp\",\"nalala\",\"Right\",\"37\",\"5\",\"2\",\"2\",\"S\",\"J\",\"66\"
\"\",\"\",\"approach-retreat\",\"70\",\"567551\",\"0.0-70.0\",\"\",\"\",\"1-4\",\"5048\",\"40\",\"1\",\"Training\",\"Stims/Figures/85-J-0-2.bmp\",\"nalala\",\"Up\",\"40\",\"5\",\"3\",\"2\",\"S\",\"J\",\"67\"
\"\",\"\",\"approach-retreat\",\"71\",\"574171\",\"0.0-71.0\",\"\",\"\",\"1-4\",\"5114\",\"39\",\"1\",\"Training\",\"Stims/Figures/74-J-10-4.bmp\",\"nalala\",\"Left\",\"39\",\"5\",\"4\",\"2\",\"S\",\"J\",\"68\"
\"\",\"\",\"approach-retreat\",\"72\",\"580754\",\"0.0-72.0\",\"\",\"\",\"1-4\",\"5079\",\"40\",\"1\",\"Training\",\"Stims/Figures/27-C-30-1.bmp\",\"pa:pata\",\"Down\",\"40\",\"5\",\"5\",\"2\",\"P\",\"J\",\"69\"
\"\",\"\",\"approach-retreat\",\"73\",\"587738\",\"0.0-73.0\",\"\",\"\",\"1-4\",\"5478\",\"39\",\"1\",\"Training\",\"Stims/Figures/118-C-20-2.bmp\",\"pa:pata\",\"Right\",\"39\",\"5\",\"6\",\"2\",\"P\",\"J\",\"70\"
\"\",\"\",\"approach-retreat\",\"74\",\"594803\",\"0.0-74.0\",\"\",\"\",\"1-4\",\"5554\",\"38\",\"1\",\"Training\",\"Stims/Figures/85-C-20-2.bmp\",\"pa:pata\",\"Up\",\"38\",\"5\",\"7\",\"2\",\"P\",\"J\",\"71\"
\"\",\"\",\"approach-retreat\",\"75\",\"601681\",\"0.0-75.0\",\"\",\"\",\"1-4\",\"5371\",\"38\",\"1\",\"Training\",\"Stims/Figures/27-J-0-1.bmp\",\"nalala\",\"Down\",\"38\",\"5\",\"8\",\"2\",\"S\",\"J\",\"72\"
\"\",\"\",\"approach-retreat\",\"76\",\"608267\",\"0.0-76.0\",\"\",\"\",\"1-4\",\"5073\",\"37\",\"1\",\"Training\",\"Stims/Figures/118-J-0-2.bmp\",\"nalala\",\"Right\",\"37\",\"5\",\"9\",\"2\",\"S\",\"J\",\"73\"
\"\",\"\",\"approach-retreat\",\"77\",\"614857\",\"0.0-77.0\",\"\",\"\",\"1-4\",\"5084\",\"38\",\"1\",\"Training\",\"Stims/Figures/74-C-20-4.bmp\",\"pa:pata\",\"Up\",\"38\",\"5\",\"10\",\"2\",\"P\",\"J\",\"74\"
\"\",\"\",\"approach-retreat\",\"78\",\"621168\",\"0.0-78.0\",\"\",\"\",\"1-4\",\"4804\",\"39\",\"1\",\"Training\",\"Stims/Figures/19-C-20-4.bmp\",\"pa:pata\",\"Right\",\"39\",\"5\",\"11\",\"2\",\"P\",\"J\",\"75\"
\"\",\"\",\"approach-retreat\",\"79\",\"627406\",\"0.0-79.0\",\"\",\"\",\"1-4\",\"4714\",\"37\",\"1\",\"Training\",\"Stims/Figures/128-C-30-3.bmp\",\"pa:pata\",\"Left\",\"37\",\"5\",\"12\",\"2\",\"P\",\"J\",\"76\"
\"\",\"\",\"approach-retreat\",\"80\",\"633854\",\"0.0-80.0\",\"\",\"\",\"1-4\",\"4943\",\"38\",\"1\",\"Training\",\"Stims/Figures/86-J-0-1.bmp\",\"nalala\",\"Down\",\"38\",\"5\",\"13\",\"2\",\"S\",\"J\",\"77\"
\"\",\"\",\"approach-retreat\",\"81\",\"639862\",\"0.0-81.0\",\"\",\"\",\"1-4\",\"4496\",\"40\",\"1\",\"Training\",\"Stims/Figures/86-C-30-1.bmp\",\"pa:pata\",\"Down\",\"40\",\"5\",\"14\",\"2\",\"P\",\"J\",\"78\"
\"\",\"\",\"approach-retreat\",\"82\",\"646703\",\"0.0-82.0\",\"\",\"\",\"1-4\",\"5335\",\"40\",\"1\",\"Training\",\"Stims/Figures/128-J-10-3.bmp\",\"nalala\",\"Up\",\"40\",\"5\",\"15\",\"2\",\"S\",\"J\",\"79\"
\"\",\"\",\"approach-retreat\",\"83\",\"652606\",\"0.0-83.0\",\"\",\"\",\"1-4\",\"4396\",\"37\",\"1\",\"Training\",\"Stims/Figures/144-C-30-3.bmp\",\"pa:pata\",\"Left\",\"37\",\"5\",\"16\",\"2\",\"P\",\"J\",\"80\"
\"\",\"\",\"approach-retreat\",\"84\",\"658861\",\"0.0-84.0\",\"\",\"\",\"1-4\",\"4752\",\"37\",\"1\",\"Training\",\"Stims/Figures/118-J-0-2.bmp\",\"nalala\",\"Right\",\"37\",\"6\",\"1\",\"2\",\"S\",\"J\",\"81\"
\"\",\"\",\"approach-retreat\",\"85\",\"665026\",\"0.0-85.0\",\"\",\"\",\"1-4\",\"4655\",\"38\",\"1\",\"Training\",\"Stims/Figures/74-C-20-4.bmp\",\"pa:pata\",\"Up\",\"38\",\"6\",\"2\",\"2\",\"P\",\"J\",\"82\"
\"\",\"\",\"approach-retreat\",\"86\",\"672139\",\"0.0-86.0\",\"\",\"\",\"1-4\",\"5607\",\"38\",\"1\",\"Training\",\"Stims/Figures/27-J-0-1.bmp\",\"nalala\",\"Down\",\"38\",\"6\",\"3\",\"2\",\"S\",\"J\",\"83\"
\"\",\"\",\"approach-retreat\",\"87\",\"677953\",\"0.0-87.0\",\"\",\"\",\"1-4\",\"4308\",\"37\",\"1\",\"Training\",\"Stims/Figures/144-C-30-3.bmp\",\"pa:pata\",\"Left\",\"37\",\"6\",\"4\",\"2\",\"P\",\"J\",\"84\"
\"\",\"\",\"approach-retreat\",\"88\",\"684112\",\"0.0-88.0\",\"\",\"\",\"1-4\",\"4645\",\"39\",\"1\",\"Training\",\"Stims/Figures/27-C-30-1.bmp\",\"pa:pata\",\"Right\",\"39\",\"6\",\"5\",\"2\",\"P\",\"J\",\"85\"
\"\",\"\",\"approach-retreat\",\"89\",\"690954\",\"0.0-89.0\",\"\",\"\",\"1-4\",\"5331\",\"40\",\"1\",\"Training\",\"Stims/Figures/85-C-20-2.bmp\",\"pa:pata\",\"Down\",\"40\",\"6\",\"6\",\"2\",\"P\",\"J\",\"86\"
\"\",\"\",\"approach-retreat\",\"90\",\"696859\",\"0.0-90.0\",\"\",\"\",\"1-4\",\"4400\",\"40\",\"1\",\"Training\",\"Stims/Figures/118-C-20-2.bmp\",\"pa:pata\",\"Down\",\"40\",\"6\",\"7\",\"2\",\"P\",\"J\",\"87\"
\"\",\"\",\"approach-retreat\",\"91\",\"703088\",\"0.0-91.0\",\"\",\"\",\"1-4\",\"4719\",\"37\",\"1\",\"Training\",\"Stims/Figures/144-J-10-3.bmp\",\"nalala\",\"Right\",\"37\",\"6\",\"8\",\"2\",\"S\",\"J\",\"88\"
\"\",\"\",\"approach-retreat\",\"92\",\"709482\",\"0.0-92.0\",\"\",\"\",\"1-4\",\"4878\",\"39\",\"1\",\"Training\",\"Stims/Figures/19-J-10-4.bmp\",\"nalala\",\"Left\",\"39\",\"6\",\"9\",\"2\",\"S\",\"J\",\"89\"
\"\",\"\",\"approach-retreat\",\"93\",\"716521\",\"0.0-93.0\",\"\",\"\",\"1-4\",\"5525\",\"39\",\"1\",\"Training\",\"Stims/Figures/128-C-30-3.bmp\",\"pa:pata\",\"Right\",\"39\",\"6\",\"10\",\"2\",\"P\",\"J\",\"90\"
\"\",\"\",\"approach-retreat\",\"94\",\"722904\",\"0.0-94.0\",\"\",\"\",\"1-4\",\"4872\",\"38\",\"1\",\"Training\",\"Stims/Figures/128-J-10-3.bmp\",\"nalala\",\"Down\",\"38\",\"6\",\"11\",\"2\",\"S\",\"J\",\"91\"
\"\",\"\",\"approach-retreat\",\"95\",\"729358\",\"0.0-95.0\",\"\",\"\",\"1-4\",\"4947\",\"40\",\"1\",\"Training\",\"Stims/Figures/86-J-0-1.bmp\",\"nalala\",\"Up\",\"40\",\"6\",\"12\",\"2\",\"S\",\"J\",\"92\"
\"\",\"\",\"approach-retreat\",\"96\",\"735446\",\"0.0-96.0\",\"\",\"\",\"1-4\",\"4576\",\"37\",\"1\",\"Training\",\"Stims/Figures/86-C-30-1.bmp\",\"pa:pata\",\"Left\",\"37\",\"6\",\"13\",\"2\",\"P\",\"J\",\"93\"
\"\",\"\",\"approach-retreat\",\"97\",\"741733\",\"0.0-97.0\",\"\",\"\",\"1-4\",\"4776\",\"40\",\"1\",\"Training\",\"Stims/Figures/85-J-0-2.bmp\",\"nalala\",\"Up\",\"40\",\"6\",\"14\",\"2\",\"S\",\"J\",\"94\"
\"\",\"\",\"approach-retreat\",\"98\",\"747500\",\"0.0-98.0\",\"\",\"\",\"1-4\",\"4256\",\"40\",\"1\",\"Training\",\"Stims/Figures/74-J-10-4.bmp\",\"nalala\",\"Up\",\"40\",\"6\",\"15\",\"2\",\"S\",\"J\",\"95\"
\"\",\"\",\"approach-retreat\",\"99\",\"753275\",\"0.0-99.0\",\"\",\"\",\"1-4\",\"4263\",\"37\",\"1\",\"Training\",\"Stims/Figures/19-C-20-4.bmp\",\"pa:pata\",\"Left\",\"37\",\"6\",\"16\",\"2\",\"P\",\"J\",\"96\"
\"\",\"\",\"approach-retreat\",\"100\",\"759211\",\"0.0-100.0\",\"\",\"\",\"1-4\",\"4424\",\"40\",\"1\",\"Training\",\"Stims/Figures/19-C-20-4.bmp\",\"pa:pata\",\"Down\",\"40\",\"7\",\"1\",\"2\",\"P\",\"J\",\"97\"
\"\",\"\",\"approach-retreat\",\"101\",\"765929\",\"0.0-101.0\",\"\",\"\",\"1-4\",\"5207\",\"39\",\"1\",\"Training\",\"Stims/Figures/144-C-30-3.bmp\",\"pa:pata\",\"Right\",\"39\",\"7\",\"2\",\"2\",\"P\",\"J\",\"98\"
\"\",\"\",\"approach-retreat\",\"102\",\"772035\",\"0.0-102.0\",\"\",\"\",\"1-4\",\"4595\",\"39\",\"1\",\"Training\",\"Stims/Figures/19-J-10-4.bmp\",\"nalala\",\"Left\",\"39\",\"7\",\"3\",\"2\",\"S\",\"J\",\"99\"
\"\",\"\",\"approach-retreat\",\"103\",\"777785\",\"0.0-103.0\",\"\",\"\",\"1-4\",\"4239\",\"39\",\"1\",\"Training\",\"Stims/Figures/144-J-10-3.bmp\",\"nalala\",\"Left\",\"39\",\"7\",\"4\",\"2\",\"S\",\"J\",\"100\"
\"\",\"\",\"approach-retreat\",\"104\",\"784970\",\"0.0-104.0\",\"\",\"\",\"1-4\",\"5668\",\"39\",\"1\",\"Training\",\"Stims/Figures/86-C-30-1.bmp\",\"pa:pata\",\"Right\",\"39\",\"7\",\"5\",\"2\",\"P\",\"J\",\"101\"
\"\",\"\",\"approach-retreat\",\"105\",\"791336\",\"0.0-105.0\",\"\",\"\",\"1-4\",\"4855\",\"39\",\"1\",\"Training\",\"Stims/Figures/128-J-10-3.bmp\",\"nalala\",\"Left\",\"39\",\"7\",\"6\",\"2\",\"S\",\"J\",\"102\"
\"\",\"\",\"approach-retreat\",\"106\",\"797576\",\"0.0-106.0\",\"\",\"\",\"1-4\",\"4729\",\"40\",\"1\",\"Training\",\"Stims/Figures/118-C-20-2.bmp\",\"pa:pata\",\"Down\",\"40\",\"7\",\"7\",\"2\",\"P\",\"J\",\"103\"
\"\",\"\",\"approach-retreat\",\"107\",\"803503\",\"0.0-107.0\",\"\",\"\",\"1-4\",\"4415\",\"40\",\"1\",\"Training\",\"Stims/Figures/27-J-0-1.bmp\",\"nalala\",\"Up\",\"40\",\"7\",\"8\",\"2\",\"S\",\"J\",\"104\"
\"\",\"\",\"approach-retreat\",\"108\",\"809346\",\"0.0-108.0\",\"\",\"\",\"1-4\",\"4331\",\"38\",\"1\",\"Training\",\"Stims/Figures/86-J-0-1.bmp\",\"nalala\",\"Down\",\"38\",\"7\",\"9\",\"2\",\"S\",\"J\",\"105\"
\"\",\"\",\"approach-retreat\",\"109\",\"815199\",\"0.0-109.0\",\"\",\"\",\"1-4\",\"4342\",\"38\",\"1\",\"Training\",\"Stims/Figures/118-J-0-2.bmp\",\"nalala\",\"Down\",\"38\",\"7\",\"10\",\"2\",\"S\",\"J\",\"106\"
\"\",\"\",\"approach-retreat\",\"110\",\"821645\",\"0.0-110.0\",\"\",\"\",\"1-4\",\"4933\",\"39\",\"1\",\"Training\",\"Stims/Figures/27-C-30-1.bmp\",\"pa:pata\",\"Right\",\"39\",\"7\",\"11\",\"2\",\"P\",\"J\",\"107\"
\"\",\"\",\"approach-retreat\",\"111\",\"827988\",\"0.0-111.0\",\"\",\"\",\"1-4\",\"4833\",\"37\",\"1\",\"Training\",\"Stims/Figures/74-C-20-4.bmp\",\"pa:pata\",\"Left\",\"37\",\"7\",\"12\",\"2\",\"P\",\"J\",\"108\"
\"\",\"\",\"approach-retreat\",\"112\",\"833926\",\"0.0-112.0\",\"\",\"\",\"1-4\",\"4427\",\"38\",\"0\",\"Training\",\"Stims/Figures/85-J-0-2.bmp\",\"nalala\",\"Up\",\"40\",\"7\",\"13\",\"2\",\"S\",\"J\",\"109\"
\"\",\"\",\"approach-retreat\",\"113\",\"840204\",\"0.0-113.0\",\"\",\"\",\"1-4\",\"4767\",\"38\",\"1\",\"Training\",\"Stims/Figures/85-C-20-2.bmp\",\"pa:pata\",\"Up\",\"38\",\"7\",\"14\",\"2\",\"P\",\"J\",\"110\"
\"\",\"\",\"approach-retreat\",\"114\",\"846235\",\"0.0-114.0\",\"\",\"\",\"1-4\",\"4520\",\"37\",\"1\",\"Training\",\"Stims/Figures/74-J-10-4.bmp\",\"nalala\",\"Right\",\"37\",\"7\",\"15\",\"2\",\"S\",\"J\",\"111\"
\"\",\"\",\"approach-retreat\",\"115\",\"852890\",\"0.0-115.0\",\"\",\"\",\"1-4\",\"5144\",\"38\",\"1\",\"Training\",\"Stims/Figures/128-C-30-3.bmp\",\"pa:pata\",\"Up\",\"38\",\"7\",\"16\",\"2\",\"P\",\"J\",\"112\"
\"\",\"\",\"approach-retreat\",\"116\",\"859466\",\"0.0-116.0\",\"\",\"\",\"1-4\",\"5057\",\"40\",\"1\",\"Training\",\"Stims/Figures/86-J-0-1.bmp\",\"nalala\",\"Up\",\"40\",\"8\",\"1\",\"2\",\"S\",\"J\",\"113\"
\"\",\"\",\"approach-retreat\",\"117\",\"865410\",\"0.0-117.0\",\"\",\"\",\"1-4\",\"4435\",\"38\",\"1\",\"Training\",\"Stims/Figures/74-C-20-4.bmp\",\"pa:pata\",\"Up\",\"38\",\"8\",\"2\",\"2\",\"P\",\"J\",\"114\"
\"\",\"\",\"approach-retreat\",\"118\",\"872162\",\"0.0-118.0\",\"\",\"\",\"1-4\",\"5240\",\"37\",\"1\",\"Training\",\"Stims/Figures/27-J-0-1.bmp\",\"nalala\",\"Right\",\"37\",\"8\",\"3\",\"2\",\"S\",\"J\",\"115\"
\"\",\"\",\"approach-retreat\",\"119\",\"878082\",\"0.0-119.0\",\"\",\"\",\"1-4\",\"4408\",\"38\",\"1\",\"Training\",\"Stims/Figures/19-J-10-4.bmp\",\"nalala\",\"Down\",\"38\",\"8\",\"4\",\"2\",\"S\",\"J\",\"116\"
\"\",\"\",\"approach-retreat\",\"120\",\"884314\",\"0.0-120.0\",\"\",\"\",\"1-4\",\"4719\",\"38\",\"1\",\"Training\",\"Stims/Figures/128-C-30-3.bmp\",\"pa:pata\",\"Up\",\"38\",\"8\",\"5\",\"2\",\"P\",\"J\",\"117\"
\"\",\"\",\"approach-retreat\",\"121\",\"890257\",\"0.0-121.0\",\"\",\"\",\"1-4\",\"4437\",\"37\",\"1\",\"Training\",\"Stims/Figures/86-C-30-1.bmp\",\"pa:pata\",\"Left\",\"37\",\"8\",\"6\",\"2\",\"P\",\"J\",\"118\"
\"\",\"\",\"approach-retreat\",\"122\",\"896007\",\"0.0-122.0\",\"\",\"\",\"1-4\",\"4238\",\"40\",\"1\",\"Training\",\"Stims/Figures/144-J-10-3.bmp\",\"nalala\",\"Up\",\"40\",\"8\",\"7\",\"2\",\"S\",\"J\",\"119\"
\"\",\"\",\"approach-retreat\",\"123\",\"901734\",\"0.0-123.0\",\"\",\"\",\"1-4\",\"4223\",\"38\",\"1\",\"Training\",\"Stims/Figures/85-J-0-2.bmp\",\"nalala\",\"Down\",\"38\",\"8\",\"8\",\"2\",\"S\",\"J\",\"120\"
\"\",\"\",\"approach-retreat\",\"124\",\"907405\",\"0.0-124.0\",\"\",\"\",\"1-4\",\"4159\",\"38\",\"1\",\"Training\",\"Stims/Figures/118-J-0-2.bmp\",\"nalala\",\"Down\",\"38\",\"8\",\"9\",\"2\",\"S\",\"J\",\"121\"
\"\",\"\",\"approach-retreat\",\"125\",\"913086\",\"0.0-125.0\",\"\",\"\",\"1-4\",\"4172\",\"37\",\"1\",\"Training\",\"Stims/Figures/144-C-30-3.bmp\",\"pa:pata\",\"Left\",\"37\",\"8\",\"10\",\"2\",\"P\",\"J\",\"122\"
\"\",\"\",\"approach-retreat\",\"126\",\"919130\",\"0.0-126.0\",\"\",\"\",\"1-4\",\"4533\",\"39\",\"1\",\"Training\",\"Stims/Figures/85-C-20-2.bmp\",\"pa:pata\",\"Right\",\"39\",\"8\",\"11\",\"2\",\"P\",\"J\",\"123\"
\"\",\"\",\"approach-retreat\",\"127\",\"925051\",\"0.0-127.0\",\"\",\"\",\"1-4\",\"4409\",\"38\",\"1\",\"Training\",\"Stims/Figures/128-J-10-3.bmp\",\"nalala\",\"Down\",\"38\",\"8\",\"12\",\"2\",\"S\",\"J\",\"124\"
\"\",\"\",\"approach-retreat\",\"128\",\"931428\",\"0.0-128.0\",\"\",\"\",\"1-4\",\"4865\",\"39\",\"1\",\"Training\",\"Stims/Figures/118-C-20-2.bmp\",\"pa:pata\",\"Right\",\"39\",\"8\",\"13\",\"2\",\"P\",\"J\",\"125\"
\"\",\"\",\"approach-retreat\",\"129\",\"938156\",\"0.0-129.0\",\"\",\"\",\"1-4\",\"5218\",\"37\",\"1\",\"Training\",\"Stims/Figures/19-C-20-4.bmp\",\"pa:pata\",\"Left\",\"37\",\"8\",\"14\",\"2\",\"P\",\"J\",\"126\"
\"\",\"\",\"approach-retreat\",\"130\",\"945346\",\"0.0-130.0\",\"\",\"\",\"1-4\",\"5681\",\"39\",\"1\",\"Training\",\"Stims/Figures/27-C-30-1.bmp\",\"pa:pata\",\"Right\",\"39\",\"8\",\"15\",\"2\",\"P\",\"J\",\"127\"
\"\",\"\",\"approach-retreat\",\"131\",\"953833\",\"0.0-131.0\",\"\",\"\",\"1-4\",\"6975\",\"39\",\"1\",\"Training\",\"Stims/Figures/74-J-10-4.bmp\",\"nalala\",\"Left\",\"39\",\"8\",\"16\",\"2\",\"S\",\"J\",\"128\"
\"\",\"\",\"approach-retreat\",\"132\",\"960842\",\"0.0-132.0\",\"\",\"\",\"1-4\",\"5493\",\"38\",\"1\",\"Training\",\"Stims/Figures/128-J-10-3.bmp\",\"nalala\",\"Down\",\"38\",\"9\",\"1\",\"2\",\"S\",\"J\",\"129\"
\"\",\"\",\"approach-retreat\",\"133\",\"967407\",\"0.0-133.0\",\"\",\"\",\"1-4\",\"5054\",\"39\",\"1\",\"Training\",\"Stims/Figures/144-C-30-3.bmp\",\"pa:pata\",\"Right\",\"39\",\"9\",\"2\",\"2\",\"P\",\"J\",\"130\"
\"\",\"\",\"approach-retreat\",\"134\",\"973834\",\"0.0-134.0\",\"\",\"\",\"1-4\",\"4918\",\"38\",\"1\",\"Training\",\"Stims/Figures/85-C-20-2.bmp\",\"pa:pata\",\"Up\",\"38\",\"9\",\"3\",\"2\",\"P\",\"J\",\"131\"
\"\",\"\",\"approach-retreat\",\"135\",\"979712\",\"0.0-135.0\",\"\",\"\",\"1-4\",\"4366\",\"37\",\"1\",\"Training\",\"Stims/Figures/74-C-20-4.bmp\",\"pa:pata\",\"Left\",\"37\",\"9\",\"4\",\"2\",\"P\",\"J\",\"132\"
\"\",\"\",\"approach-retreat\",\"136\",\"985750\",\"0.0-136.0\",\"\",\"\",\"1-4\",\"4526\",\"39\",\"1\",\"Training\",\"Stims/Figures/74-J-10-4.bmp\",\"nalala\",\"Left\",\"39\",\"9\",\"5\",\"2\",\"S\",\"J\",\"133\"
\"\",\"\",\"approach-retreat\",\"137\",\"991853\",\"0.0-137.0\",\"\",\"\",\"1-4\",\"4596\",\"39\",\"1\",\"Training\",\"Stims/Figures/19-C-20-4.bmp\",\"pa:pata\",\"Right\",\"39\",\"9\",\"6\",\"2\",\"P\",\"J\",\"134\"
\"\",\"\",\"approach-retreat\",\"138\",\"998349\",\"0.0-138.0\",\"\",\"\",\"1-4\",\"4984\",\"40\",\"1\",\"Training\",\"Stims/Figures/144-J-10-3.bmp\",\"nalala\",\"Up\",\"40\",\"9\",\"7\",\"2\",\"S\",\"J\",\"135\"
\"\",\"\",\"approach-retreat\",\"139\",\"1004796\",\"0.0-139.0\",\"\",\"\",\"1-4\",\"4941\",\"39\",\"1\",\"Training\",\"Stims/Figures/19-J-10-4.bmp\",\"nalala\",\"Left\",\"39\",\"9\",\"8\",\"2\",\"S\",\"J\",\"136\"
\"\",\"\",\"approach-retreat\",\"140\",\"1011236\",\"0.0-140.0\",\"\",\"\",\"1-4\",\"4927\",\"38\",\"1\",\"Training\",\"Stims/Figures/27-C-30-1.bmp\",\"pa:pata\",\"Up\",\"38\",\"9\",\"9\",\"2\",\"P\",\"J\",\"137\"
\"\",\"\",\"approach-retreat\",\"141\",\"1017197\",\"0.0-141.0\",\"\",\"\",\"1-4\",\"4447\",\"38\",\"1\",\"Training\",\"Stims/Figures/128-C-30-3.bmp\",\"pa:pata\",\"Up\",\"38\",\"9\",\"10\",\"2\",\"P\",\"J\",\"138\"
\"\",\"\",\"approach-retreat\",\"142\",\"1023485\",\"0.0-142.0\",\"\",\"\",\"1-4\",\"4774\",\"40\",\"1\",\"Training\",\"Stims/Figures/118-C-20-2.bmp\",\"pa:pata\",\"Down\",\"40\",\"9\",\"11\",\"2\",\"P\",\"J\",\"139\"
\"\",\"\",\"approach-retreat\",\"143\",\"1029915\",\"0.0-143.0\",\"\",\"\",\"1-4\",\"4919\",\"37\",\"1\",\"Training\",\"Stims/Figures/86-J-0-1.bmp\",\"nalala\",\"Right\",\"37\",\"9\",\"12\",\"2\",\"S\",\"J\",\"140\"
\"\",\"\",\"approach-retreat\",\"144\",\"1035709\",\"0.0-144.0\",\"\",\"\",\"1-4\",\"4280\",\"37\",\"1\",\"Training\",\"Stims/Figures/85-J-0-2.bmp\",\"nalala\",\"Right\",\"37\",\"9\",\"13\",\"2\",\"S\",\"J\",\"141\"
\"\",\"\",\"approach-retreat\",\"145\",\"1041577\",\"0.0-145.0\",\"\",\"\",\"1-4\",\"4358\",\"38\",\"1\",\"Training\",\"Stims/Figures/27-J-0-1.bmp\",\"nalala\",\"Down\",\"38\",\"9\",\"14\",\"2\",\"S\",\"J\",\"142\"
\"\",\"\",\"approach-retreat\",\"146\",\"1048281\",\"0.0-146.0\",\"\",\"\",\"1-4\",\"5192\",\"39\",\"1\",\"Training\",\"Stims/Figures/118-J-0-2.bmp\",\"nalala\",\"Left\",\"39\",\"9\",\"15\",\"2\",\"S\",\"J\",\"143\"
\"\",\"\",\"approach-retreat\",\"147\",\"1054330\",\"0.0-147.0\",\"\",\"\",\"1-4\",\"4543\",\"40\",\"1\",\"Training\",\"Stims/Figures/86-C-30-1.bmp\",\"pa:pata\",\"Down\",\"40\",\"9\",\"16\",\"2\",\"P\",\"J\",\"144\"
\"62387\",\"\",\"instructions\",\"148\",\"1116717\",\"0.0-148.0\",\"[{\"\"page_index\"\":0,\"\"viewing_time\"\":62386}]\",\"\",\"\",\"\",\"\",\"\",\"\",\"\",\"\",\"\",\"\",\"\",\"\",\"\",\"\",\"\",\"\"
\"\",\"\",\"approach-retreat\",\"149\",\"1123380\",\"0.0-149.0\",\"\",\"\",\"1-4\",\"5154\",\"37\",\"0\",\"Testing\",\"Stims/Figures/19-C-20-4.bmp\",\"pa:pata\",\"Right\",\"39\",\"1\",\"1\",\"2\",\"P\",\"J\",\"1\"
\"\",\"\",\"approach-retreat\",\"150\",\"1130749\",\"0.0-150.0\",\"\",\"\",\"1-4\",\"5862\",\"37\",\"1\",\"Testing\",\"Stims/Figures/86-C-30-1.bmp\",\"pa:pata\",\"Left\",\"37\",\"1\",\"2\",\"2\",\"P\",\"J\",\"2\"
\"\",\"\",\"approach-retreat\",\"151\",\"1139203\",\"0.0-151.0\",\"\",\"\",\"1-4\",\"6945\",\"38\",\"1\",\"Testing\",\"Stims/Figures/94-C-20-2.bmp\",\"pa:pata\",\"Up\",\"38\",\"1\",\"3\",\"2\",\"P\",\"J\",\"3\"
\"\",\"\",\"approach-retreat\",\"152\",\"1146404\",\"0.0-152.0\",\"\",\"\",\"1-4\",\"5691\",\"37\",\"0\",\"Testing\",\"Stims/Figures/144-C-30-3.bmp\",\"pa:pata\",\"Right\",\"39\",\"1\",\"4\",\"2\",\"P\",\"J\",\"4\"
\"\",\"\",\"approach-retreat\",\"153\",\"1153376\",\"0.0-153.0\",\"\",\"\",\"1-4\",\"5463\",\"39\",\"1\",\"Testing\",\"Stims/Figures/86-J-0-1.bmp\",\"nalala\",\"Left\",\"39\",\"1\",\"5\",\"2\",\"S\",\"J\",\"5\"
\"\",\"\",\"approach-retreat\",\"154\",\"1159410\",\"0.0-154.0\",\"\",\"\",\"1-4\",\"4526\",\"40\",\"1\",\"Testing\",\"Stims/Figures/128-J-10-3.bmp\",\"nalala\",\"Up\",\"40\",\"1\",\"6\",\"2\",\"S\",\"J\",\"6\"
\"\",\"\",\"approach-retreat\",\"155\",\"1165442\",\"0.0-155.0\",\"\",\"\",\"1-4\",\"4522\",\"38\",\"1\",\"Testing\",\"Stims/Figures/85-C-20-2.bmp\",\"pa:pata\",\"Up\",\"38\",\"1\",\"7\",\"2\",\"P\",\"J\",\"7\"
\"\",\"\",\"approach-retreat\",\"156\",\"1171575\",\"0.0-156.0\",\"\",\"\",\"1-4\",\"4624\",\"40\",\"1\",\"Testing\",\"Stims/Figures/44-C-30-3.bmp\",\"pa:pata\",\"Down\",\"40\",\"1\",\"8\",\"2\",\"P\",\"J\",\"8\"
\"\",\"\",\"approach-retreat\",\"157\",\"1177736\",\"0.0-157.0\",\"\",\"\",\"1-4\",\"4653\",\"37\",\"0\",\"Testing\",\"Stims/Figures/74-C-20-4.bmp\",\"pa:pata\",\"Right\",\"39\",\"1\",\"9\",\"2\",\"P\",\"J\",\"9\"
\"\",\"\",\"approach-retreat\",\"158\",\"1185608\",\"0.0-158.0\",\"\",\"\",\"1-4\",\"6363\",\"39\",\"0\",\"Testing\",\"Stims/Figures/93-C-30-1.bmp\",\"pa:pata\",\"Left\",\"37\",\"1\",\"10\",\"2\",\"P\",\"J\",\"10\"
\"\",\"\",\"approach-retreat\",\"159\",\"1192070\",\"0.0-159.0\",\"\",\"\",\"1-4\",\"4954\",\"38\",\"1\",\"Testing\",\"Stims/Figures/27-J-0-1.bmp\",\"nalala\",\"Down\",\"38\",\"1\",\"11\",\"2\",\"S\",\"J\",\"11\"
\"\",\"\",\"approach-retreat\",\"160\",\"1197808\",\"0.0-160.0\",\"\",\"\",\"1-4\",\"4235\",\"38\",\"1\",\"Testing\",\"Stims/Figures/44-J-10-3.bmp\",\"nalala\",\"Down\",\"38\",\"1\",\"12\",\"2\",\"S\",\"J\",\"12\"
\"\",\"\",\"approach-retreat\",\"161\",\"1204757\",\"0.0-161.0\",\"\",\"\",\"1-4\",\"5439\",\"39\",\"1\",\"Testing\",\"Stims/Figures/85-J-0-2.bmp\",\"nalala\",\"Left\",\"39\",\"1\",\"13\",\"2\",\"S\",\"J\",\"13\"
\"\",\"\",\"approach-retreat\",\"162\",\"1210550\",\"0.0-162.0\",\"\",\"\",\"1-4\",\"4283\",\"40\",\"0\",\"Testing\",\"Stims/Figures/27-C-30-1.bmp\",\"pa:pata\",\"Up\",\"38\",\"1\",\"14\",\"2\",\"P\",\"J\",\"14\"
\"\",\"\",\"approach-retreat\",\"163\",\"1217636\",\"0.0-163.0\",\"\",\"\",\"1-4\",\"5575\",\"39\",\"1\",\"Testing\",\"Stims/Figures/118-C-20-2.bmp\",\"pa:pata\",\"Right\",\"39\",\"1\",\"15\",\"2\",\"P\",\"J\",\"15\"
\"\",\"\",\"approach-retreat\",\"164\",\"1223612\",\"0.0-164.0\",\"\",\"\",\"1-4\",\"4467\",\"38\",\"1\",\"Testing\",\"Stims/Figures/74-J-10-4.bmp\",\"nalala\",\"Down\",\"38\",\"1\",\"16\",\"2\",\"S\",\"J\",\"16\"
\"\",\"\",\"approach-retreat\",\"165\",\"1229564\",\"0.0-165.0\",\"\",\"\",\"1-4\",\"4440\",\"37\",\"1\",\"Testing\",\"Stims/Figures/19-J-10-4.bmp\",\"nalala\",\"Right\",\"37\",\"1\",\"17\",\"2\",\"S\",\"J\",\"17\"
\"\",\"\",\"approach-retreat\",\"166\",\"1235675\",\"0.0-166.0\",\"\",\"\",\"1-4\",\"4602\",\"40\",\"1\",\"Testing\",\"Stims/Figures/94-J-0-2.bmp\",\"nalala\",\"Up\",\"40\",\"1\",\"18\",\"2\",\"S\",\"J\",\"18\"
\"\",\"\",\"approach-retreat\",\"167\",\"1242426\",\"0.0-167.0\",\"\",\"\",\"1-4\",\"5235\",\"38\",\"1\",\"Testing\",\"Stims/Figures/144-J-10-3.bmp\",\"nalala\",\"Down\",\"38\",\"1\",\"19\",\"2\",\"S\",\"J\",\"19\"
\"\",\"\",\"approach-retreat\",\"168\",\"1248658\",\"0.0-168.0\",\"\",\"\",\"1-4\",\"4724\",\"39\",\"1\",\"Testing\",\"Stims/Figures/93-J-0-1.bmp\",\"nalala\",\"Left\",\"39\",\"1\",\"20\",\"2\",\"S\",\"J\",\"20\"
\"\",\"\",\"approach-retreat\",\"169\",\"1256544\",\"0.0-169.0\",\"\",\"\",\"1-4\",\"6377\",\"39\",\"1\",\"Testing\",\"Stims/Figures/87-C-20-4.bmp\",\"pa:pata\",\"Right\",\"39\",\"1\",\"21\",\"2\",\"P\",\"J\",\"21\"
\"\",\"\",\"approach-retreat\",\"170\",\"1262763\",\"0.0-170.0\",\"\",\"\",\"1-4\",\"4696\",\"38\",\"0\",\"Testing\",\"Stims/Figures/87-J-10-4.bmp\",\"nalala\",\"Up\",\"40\",\"1\",\"22\",\"2\",\"S\",\"J\",\"22\"
\"\",\"\",\"approach-retreat\",\"171\",\"1270895\",\"0.0-171.0\",\"\",\"\",\"1-4\",\"6623\",\"39\",\"1\",\"Testing\",\"Stims/Figures/118-J-0-2.bmp\",\"nalala\",\"Left\",\"39\",\"1\",\"23\",\"2\",\"S\",\"J\",\"23\"
\"\",\"\",\"approach-retreat\",\"172\",\"1277945\",\"0.0-172.0\",\"\",\"\",\"1-4\",\"5540\",\"38\",\"0\",\"Testing\",\"Stims/Figures/128-C-30-3.bmp\",\"pa:pata\",\"Down\",\"40\",\"1\",\"24\",\"2\",\"P\",\"J\",\"24\"
\"\",\"\",\"approach-retreat\",\"173\",\"1283463\",\"0.0-173.0\",\"\",\"\",\"1-4\",\"4010\",\"38\",\"1\",\"Testing\",\"Stims/Figures/44-J-10-3.bmp\",\"nalala\",\"Down\",\"38\",\"2\",\"1\",\"2\",\"S\",\"J\",\"25\"
\"\",\"\",\"approach-retreat\",\"174\",\"1289175\",\"0.0-174.0\",\"\",\"\",\"1-4\",\"4204\",\"40\",\"1\",\"Testing\",\"Stims/Figures/27-C-30-1.bmp\",\"pa:pata\",\"Down\",\"40\",\"2\",\"2\",\"2\",\"P\",\"J\",\"26\"
\"\",\"\",\"approach-retreat\",\"175\",\"1295976\",\"0.0-175.0\",\"\",\"\",\"1-4\",\"5290\",\"37\",\"0\",\"Testing\",\"Stims/Figures/74-C-20-4.bmp\",\"pa:pata\",\"Right\",\"39\",\"2\",\"3\",\"2\",\"P\",\"J\",\"27\"
\"\",\"\",\"approach-retreat\",\"176\",\"1302606\",\"0.0-176.0\",\"\",\"\",\"1-4\",\"5123\",\"37\",\"1\",\"Testing\",\"Stims/Figures/44-C-30-3.bmp\",\"pa:pata\",\"Left\",\"37\",\"2\",\"4\",\"2\",\"P\",\"J\",\"28\"
\"\",\"\",\"approach-retreat\",\"177\",\"1308468\",\"0.0-177.0\",\"\",\"\",\"1-4\",\"4354\",\"37\",\"0\",\"Testing\",\"Stims/Figures/128-C-30-3.bmp\",\"pa:pata\",\"Right\",\"39\",\"2\",\"5\",\"2\",\"P\",\"J\",\"29\"
\"\",\"\",\"approach-retreat\",\"178\",\"1314299\",\"0.0-178.0\",\"\",\"\",\"1-4\",\"4322\",\"40\",\"0\",\"Testing\",\"Stims/Figures/118-C-20-2.bmp\",\"pa:pata\",\"Up\",\"38\",\"2\",\"6\",\"2\",\"P\",\"J\",\"30\"
\"\",\"\",\"approach-retreat\",\"179\",\"1319956\",\"0.0-179.0\",\"\",\"\",\"1-4\",\"4146\",\"37\",\"0\",\"Testing\",\"Stims/Figures/19-C-20-4.bmp\",\"pa:pata\",\"Right\",\"39\",\"2\",\"7\",\"2\",\"P\",\"J\",\"31\"
\"\",\"\",\"approach-retreat\",\"180\",\"1325738\",\"0.0-180.0\",\"\",\"\",\"1-4\",\"4273\",\"38\",\"1\",\"Testing\",\"Stims/Figures/87-J-10-4.bmp\",\"nalala\",\"Down\",\"38\",\"2\",\"8\",\"2\",\"S\",\"J\",\"32\"
\"\",\"\",\"approach-retreat\",\"181\",\"1335267\",\"0.0-181.0\",\"\",\"\",\"1-4\",\"8020\",\"39\",\"0\",\"Testing\",\"Stims/Figures/93-C-30-1.bmp\",\"pa:pata\",\"Left\",\"37\",\"2\",\"9\",\"2\",\"P\",\"J\",\"33\"
\"\",\"\",\"approach-retreat\",\"182\",\"1341052\",\"0.0-182.0\",\"\",\"\",\"1-4\",\"4282\",\"38\",\"1\",\"Testing\",\"Stims/Figures/85-J-0-2.bmp\",\"nalala\",\"Down\",\"38\",\"2\",\"10\",\"2\",\"S\",\"J\",\"34\"
\"\",\"\",\"approach-retreat\",\"183\",\"1347097\",\"0.0-183.0\",\"\",\"\",\"1-4\",\"4536\",\"40\",\"1\",\"Testing\",\"Stims/Figures/144-J-10-3.bmp\",\"nalala\",\"Up\",\"40\",\"2\",\"11\",\"2\",\"S\",\"J\",\"35\"
\"\",\"\",\"approach-retreat\",\"184\",\"1352802\",\"0.0-184.0\",\"\",\"\",\"1-4\",\"4197\",\"37\",\"1\",\"Testing\",\"Stims/Figures/74-J-10-4.bmp\",\"nalala\",\"Right\",\"37\",\"2\",\"12\",\"2\",\"S\",\"J\",\"36\"
\"\",\"\",\"approach-retreat\",\"185\",\"1358848\",\"0.0-185.0\",\"\",\"\",\"1-4\",\"4536\",\"40\",\"1\",\"Testing\",\"Stims/Figures/118-J-0-2.bmp\",\"nalala\",\"Up\",\"40\",\"2\",\"13\",\"2\",\"S\",\"J\",\"37\"
\"\",\"\",\"approach-retreat\",\"186\",\"1364720\",\"0.0-186.0\",\"\",\"\",\"1-4\",\"4363\",\"40\",\"1\",\"Testing\",\"Stims/Figures/144-C-30-3.bmp\",\"pa:pata\",\"Down\",\"40\",\"2\",\"14\",\"2\",\"P\",\"J\",\"38\"
\"\",\"\",\"approach-retreat\",\"187\",\"1370592\",\"0.0-187.0\",\"\",\"\",\"1-4\",\"4364\",\"38\",\"1\",\"Testing\",\"Stims/Figures/94-C-20-2.bmp\",\"pa:pata\",\"Up\",\"38\",\"2\",\"15\",\"2\",\"P\",\"J\",\"39\"
\"\",\"\",\"approach-retreat\",\"188\",\"1376872\",\"0.0-188.0\",\"\",\"\",\"1-4\",\"4769\",\"39\",\"1\",\"Testing\",\"Stims/Figures/27-J-0-1.bmp\",\"nalala\",\"Left\",\"39\",\"2\",\"16\",\"2\",\"S\",\"J\",\"40\"
\"\",\"\",\"approach-retreat\",\"189\",\"1383094\",\"0.0-189.0\",\"\",\"\",\"1-4\",\"4711\",\"40\",\"0\",\"Testing\",\"Stims/Figures/87-C-20-4.bmp\",\"pa:pata\",\"Up\",\"38\",\"2\",\"17\",\"2\",\"P\",\"J\",\"41\"
\"\",\"\",\"approach-retreat\",\"190\",\"1391303\",\"0.0-190.0\",\"\",\"\",\"1-4\",\"6705\",\"37\",\"1\",\"Testing\",\"Stims/Figures/85-C-20-2.bmp\",\"pa:pata\",\"Left\",\"37\",\"2\",\"18\",\"2\",\"P\",\"J\",\"42\"
\"\",\"\",\"approach-retreat\",\"191\",\"1397082\",\"0.0-191.0\",\"\",\"\",\"1-4\",\"4270\",\"39\",\"1\",\"Testing\",\"Stims/Figures/19-J-10-4.bmp\",\"nalala\",\"Left\",\"39\",\"2\",\"19\",\"2\",\"S\",\"J\",\"43\"
\"\",\"\",\"approach-retreat\",\"192\",\"1403974\",\"0.0-192.0\",\"\",\"\",\"1-4\",\"5383\",\"37\",\"1\",\"Testing\",\"Stims/Figures/94-J-0-2.bmp\",\"nalala\",\"Right\",\"37\",\"2\",\"20\",\"2\",\"S\",\"J\",\"44\"
\"\",\"\",\"approach-retreat\",\"193\",\"1410188\",\"0.0-193.0\",\"\",\"\",\"1-4\",\"4704\",\"37\",\"1\",\"Testing\",\"Stims/Figures/93-J-0-1.bmp\",\"nalala\",\"Right\",\"37\",\"2\",\"21\",\"2\",\"S\",\"J\",\"45\"
\"\",\"\",\"approach-retreat\",\"194\",\"1415923\",\"0.0-194.0\",\"\",\"\",\"1-4\",\"4225\",\"38\",\"1\",\"Testing\",\"Stims/Figures/128-J-10-3.bmp\",\"nalala\",\"Down\",\"38\",\"2\",\"22\",\"2\",\"S\",\"J\",\"46\"
\"\",\"\",\"approach-retreat\",\"195\",\"1423164\",\"0.0-195.0\",\"\",\"\",\"1-4\",\"5736\",\"38\",\"1\",\"Testing\",\"Stims/Figures/86-C-30-1.bmp\",\"pa:pata\",\"Up\",\"38\",\"2\",\"23\",\"2\",\"P\",\"J\",\"47\"
\"\",\"\",\"approach-retreat\",\"196\",\"1429889\",\"0.0-196.0\",\"\",\"\",\"1-4\",\"5215\",\"39\",\"1\",\"Testing\",\"Stims/Figures/86-J-0-1.bmp\",\"nalala\",\"Left\",\"39\",\"2\",\"24\",\"2\",\"S\",\"J\",\"48\"
\"\",\"\",\"approach-retreat\",\"197\",\"1436319\",\"0.0-197.0\",\"\",\"\",\"1-4\",\"4921\",\"40\",\"0\",\"Testing\",\"Stims/Figures/74-C-20-4.bmp\",\"pa:pata\",\"Up\",\"38\",\"3\",\"1\",\"2\",\"P\",\"J\",\"49\"
\"\",\"\",\"approach-retreat\",\"198\",\"1442209\",\"0.0-198.0\",\"\",\"\",\"1-4\",\"4385\",\"39\",\"1\",\"Testing\",\"Stims/Figures/44-C-30-3.bmp\",\"pa:pata\",\"Right\",\"39\",\"3\",\"2\",\"2\",\"P\",\"J\",\"50\"
\"\",\"\",\"approach-retreat\",\"199\",\"1449542\",\"0.0-199.0\",\"\",\"\",\"1-4\",\"5824\",\"38\",\"1\",\"Testing\",\"Stims/Figures/19-J-10-4.bmp\",\"nalala\",\"Down\",\"38\",\"3\",\"3\",\"2\",\"S\",\"J\",\"51\"
\"\",\"\",\"approach-retreat\",\"200\",\"1456350\",\"0.0-200.0\",\"\",\"\",\"1-4\",\"5299\",\"39\",\"1\",\"Testing\",\"Stims/Figures/128-J-10-3.bmp\",\"nalala\",\"Left\",\"39\",\"3\",\"4\",\"2\",\"S\",\"J\",\"52\"
\"\",\"\",\"approach-retreat\",\"201\",\"1462468\",\"0.0-201.0\",\"\",\"\",\"1-4\",\"4614\",\"37\",\"1\",\"Testing\",\"Stims/Figures/86-J-0-1.bmp\",\"nalala\",\"Right\",\"37\",\"3\",\"5\",\"2\",\"S\",\"J\",\"53\"
\"\",\"\",\"approach-retreat\",\"202\",\"1469092\",\"0.0-202.0\",\"\",\"\",\"1-4\",\"5116\",\"38\",\"1\",\"Testing\",\"Stims/Figures/85-J-0-2.bmp\",\"nalala\",\"Down\",\"38\",\"3\",\"6\",\"2\",\"S\",\"J\",\"54\"
\"\",\"\",\"approach-retreat\",\"203\",\"1474755\",\"0.0-203.0\",\"\",\"\",\"1-4\",\"4154\",\"38\",\"1\",\"Testing\",\"Stims/Figures/93-J-0-1.bmp\",\"nalala\",\"Down\",\"38\",\"3\",\"7\",\"2\",\"S\",\"J\",\"55\"
\"\",\"\",\"approach-retreat\",\"204\",\"1481028\",\"0.0-204.0\",\"\",\"\",\"1-4\",\"4764\",\"38\",\"1\",\"Testing\",\"Stims/Figures/144-C-30-3.bmp\",\"pa:pata\",\"Up\",\"38\",\"3\",\"8\",\"2\",\"P\",\"J\",\"56\"
\"\",\"\",\"approach-retreat\",\"205\",\"1487274\",\"0.0-205.0\",\"\",\"\",\"1-4\",\"4736\",\"38\",\"1\",\"Testing\",\"Stims/Figures/27-J-0-1.bmp\",\"nalala\",\"Down\",\"38\",\"3\",\"9\",\"2\",\"S\",\"J\",\"57\"
\"\",\"\",\"approach-retreat\",\"206\",\"1494146\",\"0.0-206.0\",\"\",\"\",\"1-4\",\"5369\",\"39\",\"1\",\"Testing\",\"Stims/Figures/87-C-20-4.bmp\",\"pa:pata\",\"Right\",\"39\",\"3\",\"10\",\"2\",\"P\",\"J\",\"58\"
\"\",\"\",\"approach-retreat\",\"207\",\"1500122\",\"0.0-207.0\",\"\",\"\",\"1-4\",\"4467\",\"37\",\"0\",\"Testing\",\"Stims/Figures/44-J-10-3.bmp\",\"nalala\",\"Left\",\"39\",\"3\",\"11\",\"2\",\"S\",\"J\",\"59\"
\"\",\"\",\"approach-retreat\",\"208\",\"1506113\",\"0.0-208.0\",\"\",\"\",\"1-4\",\"4478\",\"38\",\"1\",\"Testing\",\"Stims/Figures/94-C-20-2.bmp\",\"pa:pata\",\"Up\",\"38\",\"3\",\"12\",\"2\",\"P\",\"J\",\"60\"
\"\",\"\",\"approach-retreat\",\"209\",\"1512313\",\"0.0-209.0\",\"\",\"\",\"1-4\",\"4696\",\"38\",\"1\",\"Testing\",\"Stims/Figures/94-J-0-2.bmp\",\"nalala\",\"Down\",\"38\",\"3\",\"13\",\"2\",\"S\",\"J\",\"61\"
\"\",\"\",\"approach-retreat\",\"210\",\"1518223\",\"0.0-210.0\",\"\",\"\",\"1-4\",\"4401\",\"39\",\"0\",\"Testing\",\"Stims/Figures/128-C-30-3.bmp\",\"pa:pata\",\"Left\",\"37\",\"3\",\"14\",\"2\",\"P\",\"J\",\"62\"
\"\",\"\",\"approach-retreat\",\"211\",\"1524439\",\"0.0-211.0\",\"\",\"\",\"1-4\",\"4713\",\"38\",\"1\",\"Testing\",\"Stims/Figures/85-C-20-2.bmp\",\"pa:pata\",\"Up\",\"38\",\"3\",\"15\",\"2\",\"P\",\"J\",\"63\"
\"\",\"\",\"approach-retreat\",\"212\",\"1532383\",\"0.0-212.0\",\"\",\"\",\"1-4\",\"6435\",\"40\",\"0\",\"Testing\",\"Stims/Figures/87-J-10-4.bmp\",\"nalala\",\"Down\",\"38\",\"3\",\"16\",\"2\",\"S\",\"J\",\"64\"
\"\",\"\",\"approach-retreat\",\"213\",\"1538107\",\"0.0-213.0\",\"\",\"\",\"1-4\",\"4215\",\"39\",\"0\",\"Testing\",\"Stims/Figures/19-C-20-4.bmp\",\"pa:pata\",\"Left\",\"37\",\"3\",\"17\",\"2\",\"P\",\"J\",\"65\"
\"\",\"\",\"approach-retreat\",\"214\",\"1543822\",\"0.0-214.0\",\"\",\"\",\"1-4\",\"4210\",\"37\",\"1\",\"Testing\",\"Stims/Figures/74-J-10-4.bmp\",\"nalala\",\"Right\",\"37\",\"3\",\"18\",\"2\",\"S\",\"J\",\"66\"
\"\",\"\",\"approach-retreat\",\"215\",\"1549901\",\"0.0-215.0\",\"\",\"\",\"1-4\",\"4571\",\"38\",\"1\",\"Testing\",\"Stims/Figures/118-C-20-2.bmp\",\"pa:pata\",\"Up\",\"38\",\"3\",\"19\",\"2\",\"P\",\"J\",\"67\"
\"\",\"\",\"approach-retreat\",\"216\",\"1555540\",\"0.0-216.0\",\"\",\"\",\"1-4\",\"4129\",\"38\",\"1\",\"Testing\",\"Stims/Figures/86-C-30-1.bmp\",\"pa:pata\",\"Up\",\"38\",\"3\",\"20\",\"2\",\"P\",\"J\",\"68\"
\"\",\"\",\"approach-retreat\",\"217\",\"1561777\",\"0.0-217.0\",\"\",\"\",\"1-4\",\"4727\",\"39\",\"1\",\"Testing\",\"Stims/Figures/27-C-30-1.bmp\",\"pa:pata\",\"Right\",\"39\",\"3\",\"21\",\"2\",\"P\",\"J\",\"69\"
\"\",\"\",\"approach-retreat\",\"218\",\"1567489\",\"0.0-218.0\",\"\",\"\",\"1-4\",\"4202\",\"37\",\"1\",\"Testing\",\"Stims/Figures/144-J-10-3.bmp\",\"nalala\",\"Right\",\"37\",\"3\",\"22\",\"2\",\"S\",\"J\",\"70\"
\"\",\"\",\"approach-retreat\",\"219\",\"1573751\",\"0.0-219.0\",\"\",\"\",\"1-4\",\"4760\",\"39\",\"1\",\"Testing\",\"Stims/Figures/118-J-0-2.bmp\",\"nalala\",\"Left\",\"39\",\"3\",\"23\",\"2\",\"S\",\"J\",\"71\"
\"\",\"\",\"approach-retreat\",\"220\",\"1579432\",\"0.0-220.0\",\"\",\"\",\"1-4\",\"4172\",\"37\",\"1\",\"Testing\",\"Stims/Figures/93-C-30-1.bmp\",\"pa:pata\",\"Left\",\"37\",\"3\",\"24\",\"2\",\"P\",\"J\",\"72\"
\"\",\"\",\"approach-retreat\",\"221\",\"1585376\",\"0.0-221.0\",\"\",\"\",\"1-4\",\"4440\",\"38\",\"1\",\"Testing\",\"Stims/Figures/85-J-0-2.bmp\",\"nalala\",\"Down\",\"38\",\"4\",\"1\",\"2\",\"S\",\"J\",\"73\"
\"\",\"\",\"approach-retreat\",\"222\",\"1590949\",\"0.0-222.0\",\"\",\"\",\"1-4\",\"4064\",\"39\",\"1\",\"Testing\",\"Stims/Figures/144-J-10-3.bmp\",\"nalala\",\"Left\",\"39\",\"4\",\"2\",\"2\",\"S\",\"J\",\"74\"
\"\",\"\",\"approach-retreat\",\"223\",\"1596477\",\"0.0-223.0\",\"\",\"\",\"1-4\",\"4018\",\"39\",\"1\",\"Testing\",\"Stims/Figures/94-J-0-2.bmp\",\"nalala\",\"Left\",\"39\",\"4\",\"3\",\"2\",\"S\",\"J\",\"75\"
\"\",\"\",\"approach-retreat\",\"224\",\"1603094\",\"0.0-224.0\",\"\",\"\",\"1-4\",\"5108\",\"40\",\"1\",\"Testing\",\"Stims/Figures/86-J-0-1.bmp\",\"nalala\",\"Up\",\"40\",\"4\",\"4\",\"2\",\"S\",\"J\",\"76\"
\"\",\"\",\"approach-retreat\",\"225\",\"1608877\",\"0.0-225.0\",\"\",\"\",\"1-4\",\"4274\",\"38\",\"1\",\"Testing\",\"Stims/Figures/128-J-10-3.bmp\",\"nalala\",\"Down\",\"38\",\"4\",\"5\",\"2\",\"S\",\"J\",\"77\"
\"\",\"\",\"approach-retreat\",\"226\",\"1615182\",\"0.0-226.0\",\"\",\"\",\"1-4\",\"4802\",\"37\",\"1\",\"Testing\",\"Stims/Figures/93-C-30-1.bmp\",\"pa:pata\",\"Left\",\"37\",\"4\",\"6\",\"2\",\"P\",\"J\",\"78\"
\"\",\"\",\"approach-retreat\",\"227\",\"1621876\",\"0.0-227.0\",\"\",\"\",\"1-4\",\"5185\",\"37\",\"1\",\"Testing\",\"Stims/Figures/118-C-20-2.bmp\",\"pa:pata\",\"Left\",\"37\",\"4\",\"7\",\"2\",\"P\",\"J\",\"79\"
\"\",\"\",\"approach-retreat\",\"228\",\"1628291\",\"0.0-228.0\",\"\",\"\",\"1-4\",\"4906\",\"38\",\"0\",\"Testing\",\"Stims/Figures/87-J-10-4.bmp\",\"nalala\",\"Up\",\"40\",\"4\",\"8\",\"2\",\"S\",\"J\",\"80\"
\"\",\"\",\"approach-retreat\",\"229\",\"1633995\",\"0.0-229.0\",\"\",\"\",\"1-4\",\"4195\",\"38\",\"0\",\"Testing\",\"Stims/Figures/19-C-20-4.bmp\",\"pa:pata\",\"Down\",\"40\",\"4\",\"9\",\"2\",\"P\",\"J\",\"81\"
\"\",\"\",\"approach-retreat\",\"230\",\"1639786\",\"0.0-230.0\",\"\",\"\",\"1-4\",\"4282\",\"40\",\"0\",\"Testing\",\"Stims/Figures/74-C-20-4.bmp\",\"pa:pata\",\"Up\",\"38\",\"4\",\"10\",\"2\",\"P\",\"J\",\"82\"
\"\",\"\",\"approach-retreat\",\"231\",\"1645634\",\"0.0-231.0\",\"\",\"\",\"1-4\",\"4338\",\"38\",\"1\",\"Testing\",\"Stims/Figures/44-C-30-3.bmp\",\"pa:pata\",\"Up\",\"38\",\"4\",\"11\",\"2\",\"P\",\"J\",\"83\"
\"\",\"\",\"approach-retreat\",\"232\",\"1652456\",\"0.0-232.0\",\"\",\"\",\"1-4\",\"5313\",\"39\",\"1\",\"Testing\",\"Stims/Figures/85-C-20-2.bmp\",\"pa:pata\",\"Right\",\"39\",\"4\",\"12\",\"2\",\"P\",\"J\",\"84\"
\"\",\"\",\"approach-retreat\",\"233\",\"1658768\",\"0.0-233.0\",\"\",\"\",\"1-4\",\"4798\",\"38\",\"0\",\"Testing\",\"Stims/Figures/128-C-30-3.bmp\",\"pa:pata\",\"Down\",\"40\",\"4\",\"13\",\"2\",\"P\",\"J\",\"85\"
\"\",\"\",\"approach-retreat\",\"234\",\"1665269\",\"0.0-234.0\",\"\",\"\",\"1-4\",\"4992\",\"37\",\"1\",\"Testing\",\"Stims/Figures/74-J-10-4.bmp\",\"nalala\",\"Right\",\"37\",\"4\",\"14\",\"2\",\"S\",\"J\",\"86\"
\"\",\"\",\"approach-retreat\",\"235\",\"1672236\",\"0.0-235.0\",\"\",\"\",\"1-4\",\"5457\",\"37\",\"1\",\"Testing\",\"Stims/Figures/86-C-30-1.bmp\",\"pa:pata\",\"Left\",\"37\",\"4\",\"15\",\"2\",\"P\",\"J\",\"87\"
\"\",\"\",\"approach-retreat\",\"236\",\"1679267\",\"0.0-236.0\",\"\",\"\",\"1-4\",\"5523\",\"39\",\"1\",\"Testing\",\"Stims/Figures/87-C-20-4.bmp\",\"pa:pata\",\"Right\",\"39\",\"4\",\"16\",\"2\",\"P\",\"J\",\"88\"
\"\",\"\",\"approach-retreat\",\"237\",\"1685956\",\"0.0-237.0\",\"\",\"\",\"1-4\",\"5186\",\"37\",\"1\",\"Testing\",\"Stims/Figures/19-J-10-4.bmp\",\"nalala\",\"Right\",\"37\",\"4\",\"17\",\"2\",\"S\",\"J\",\"89\"
\"\",\"\",\"approach-retreat\",\"238\",\"1695037\",\"0.0-238.0\",\"\",\"\",\"1-4\",\"7571\",\"37\",\"0\",\"Testing\",\"Stims/Figures/27-C-30-1.bmp\",\"pa:pata\",\"Right\",\"39\",\"4\",\"18\",\"2\",\"P\",\"J\",\"90\"
\"\",\"\",\"approach-retreat\",\"239\",\"1701835\",\"0.0-239.0\",\"\",\"\",\"1-4\",\"5289\",\"38\",\"1\",\"Testing\",\"Stims/Figures/118-J-0-2.bmp\",\"nalala\",\"Down\",\"38\",\"4\",\"19\",\"2\",\"S\",\"J\",\"91\"
\"\",\"\",\"approach-retreat\",\"240\",\"1710237\",\"0.0-240.0\",\"\",\"\",\"1-4\",\"6892\",\"37\",\"1\",\"Testing\",\"Stims/Figures/93-J-0-1.bmp\",\"nalala\",\"Right\",\"37\",\"4\",\"20\",\"2\",\"S\",\"J\",\"92\"
\"\",\"\",\"approach-retreat\",\"241\",\"1719948\",\"0.0-241.0\",\"\",\"\",\"1-4\",\"8206\",\"38\",\"0\",\"Testing\",\"Stims/Figures/144-C-30-3.bmp\",\"pa:pata\",\"Down\",\"40\",\"4\",\"21\",\"2\",\"P\",\"J\",\"93\"
\"\",\"\",\"approach-retreat\",\"242\",\"1727003\",\"0.0-242.0\",\"\",\"\",\"1-4\",\"5547\",\"40\",\"0\",\"Testing\",\"Stims/Figures/94-C-20-2.bmp\",\"pa:pata\",\"Up\",\"38\",\"4\",\"22\",\"2\",\"P\",\"J\",\"94\"
\"\",\"\",\"approach-retreat\",\"243\",\"1733904\",\"0.0-243.0\",\"\",\"\",\"1-4\",\"5392\",\"39\",\"1\",\"Testing\",\"Stims/Figures/27-J-0-1.bmp\",\"nalala\",\"Left\",\"39\",\"4\",\"23\",\"2\",\"S\",\"J\",\"95\"
\"\",\"\",\"approach-retreat\",\"244\",\"1741170\",\"0.0-244.0\",\"\",\"\",\"1-4\",\"5756\",\"40\",\"1\",\"Testing\",\"Stims/Figures/44-J-10-3.bmp\",\"nalala\",\"Up\",\"40\",\"4\",\"24\",\"2\",\"S\",\"J\",\"96\"
\"24217\",\"\",\"survey-text\",\"245\",\"1765394\",\"0.0-245.0\",\"\",\"{\"\"Q0\"\":\"\"1282/2017\"\"}\",\"\",\"\",\"\",\"\",\"\",\"\",\"\",\"\",\"\",\"\",\"\",\"\",\"\",\"\",\"\"
