\"rt\",\"key_press\",\"trial_type\",\"trial_index\",\"time_elapsed\",\"internal_node_id\",\"view_history\",\"responses\",\"Id\",\"Rt\",\"ResKeyCode\",\"ResCorr\",\"TrialType2\",\"Image\",\"Label\",\"Location\",\"CorrectResponse\",\"Block\",\"BlockTrial\",\"Condition\",\"LabelType\",\"Subcondition\",\"trialNum\"
\"102981\",\"32\",\"text\",\"0\",\"102989\",\"0.0-0.0-0.0\",\"\",\"\",\"\",\"\",\"\",\"\",\"\",\"\",\"\",\"\",\"\",\"\",\"\",\"\",\"\",\"\",\"\"
\"80769\",\"\",\"instructions\",\"1\",\"183761\",\"0.0-1.0\",\"[{\"\"page_index\"\":0,\"\"viewing_time\"\":80769}]\",\"\",\"\",\"\",\"\",\"\",\"\",\"\",\"\",\"\",\"\",\"\",\"\",\"\",\"\",\"\",\"\"
\"45397\",\"\",\"survey-multi-choice\",\"2\",\"229191\",\"0.0-2.0\",\"\",\"{\"\"Q0\"\":\"\"Da\"\",\"\"Q1\"\":\"\"Da\"\",\"\"Q2\"\":\"\"Da\"\",\"\"Q3\"\":\"\"Da\"\",\"\"Q4\"\":\"\"Da\"\",\"\"Q5\"\":\"\"Da\"\"}\",\"\",\"\",\"\",\"\",\"\",\"\",\"\",\"\",\"\",\"\",\"\",\"\",\"\",\"\",\"\"
\"\",\"\",\"bio\",\"3\",\"235105\",\"0.0-3.0\",\"\",\"{\"\"age\"\":\"\"20\"\",\"\"gender\"\":\"\"f\"\",\"\"specify\"\":\"\"\"\"}\",\"\",\"\",\"\",\"\",\"\",\"\",\"\",\"\",\"\",\"\",\"\",\"\",\"\",\"\",\"\"
\"\",\"\",\"approach-retreat\",\"4\",\"245917\",\"0.0-4.0\",\"\",\"\",\"3-3\",\"9299\",\"40\",\"0\",\"Training\",\"Stims/Figures/139-C-20-2.bmp\",\"ma:la:na\",\"Up\",\"38\",\"1\",\"1\",\"9\",\"S\",\"J\",\"1\"
\"\",\"\",\"approach-retreat\",\"5\",\"264561\",\"0.0-5.0\",\"\",\"\",\"3-3\",\"17125\",\"39\",\"1\",\"Training\",\"Stims/Figures/27-J-0-1.bmp\",\"vafa:sha\",\"Left\",\"39\",\"1\",\"2\",\"9\",\"C1\",\"J\",\"2\"
\"\",\"\",\"approach-retreat\",\"6\",\"271901\",\"0.0-6.0\",\"\",\"\",\"3-3\",\"5830\",\"40\",\"0\",\"Training\",\"Stims/Figures/84-C-20-2.bmp\",\"pakata\",\"Up\",\"38\",\"1\",\"3\",\"9\",\"P\",\"J\",\"3\"
\"\",\"\",\"approach-retreat\",\"7\",\"279683\",\"0.0-7.0\",\"\",\"\",\"3-3\",\"6273\",\"38\",\"1\",\"Training\",\"Stims/Figures/144-J-10-3.bmp\",\"sasaza\",\"Down\",\"38\",\"1\",\"4\",\"9\",\"C2\",\"J\",\"4\"
\"\",\"\",\"approach-retreat\",\"8\",\"286233\",\"0.0-8.0\",\"\",\"\",\"3-3\",\"5040\",\"38\",\"0\",\"Training\",\"Stims/Figures/74-C-20-4.bmp\",\"za:haza\",\"Down\",\"40\",\"1\",\"5\",\"9\",\"C2\",\"J\",\"5\"
\"\",\"\",\"approach-retreat\",\"9\",\"292545\",\"0.0-9.0\",\"\",\"\",\"3-3\",\"4802\",\"39\",\"0\",\"Training\",\"Stims/Figures/27-C-30-1.bmp\",\"ma:mana\",\"Left\",\"37\",\"1\",\"6\",\"9\",\"S\",\"J\",\"6\"
\"\",\"\",\"approach-retreat\",\"10\",\"299100\",\"0.0-10.0\",\"\",\"\",\"3-3\",\"5046\",\"39\",\"0\",\"Training\",\"Stims/Figures/86-C-30-1.bmp\",\"pa:pa:ka\",\"Left\",\"37\",\"1\",\"7\",\"9\",\"P\",\"J\",\"7\"
\"\",\"\",\"approach-retreat\",\"11\",\"306271\",\"0.0-11.0\",\"\",\"\",\"3-3\",\"5662\",\"37\",\"1\",\"Training\",\"Stims/Figures/139-J-0-2.bmp\",\"sasa:ha\",\"Right\",\"37\",\"1\",\"8\",\"9\",\"C2\",\"J\",\"8\"
\"\",\"\",\"approach-retreat\",\"12\",\"314732\",\"0.0-12.0\",\"\",\"\",\"3-3\",\"6953\",\"37\",\"0\",\"Training\",\"Stims/Figures/7-J-10-4.bmp\",\"na:lala\",\"Left\",\"39\",\"1\",\"9\",\"9\",\"S\",\"J\",\"9\"
\"\",\"\",\"approach-retreat\",\"13\",\"334888\",\"0.0-13.0\",\"\",\"\",\"3-3\",\"18646\",\"38\",\"1\",\"Training\",\"Stims/Figures/84-J-0-2.bmp\",\"pa:pata\",\"Down\",\"38\",\"1\",\"10\",\"9\",\"P\",\"J\",\"10\"
\"\",\"\",\"approach-retreat\",\"14\",\"342660\",\"0.0-14.0\",\"\",\"\",\"3-3\",\"6254\",\"37\",\"0\",\"Training\",\"Stims/Figures/128-C-30-3.bmp\",\"mamana\",\"Right\",\"39\",\"1\",\"11\",\"9\",\"S\",\"J\",\"11\"
\"\",\"\",\"approach-retreat\",\"15\",\"349184\",\"0.0-15.0\",\"\",\"\",\"3-3\",\"5016\",\"40\",\"1\",\"Training\",\"Stims/Figures/128-J-10-3.bmp\",\"va:sha:va\",\"Up\",\"40\",\"1\",\"12\",\"9\",\"C1\",\"J\",\"12\"
\"\",\"\",\"approach-retreat\",\"16\",\"363130\",\"0.0-16.0\",\"\",\"\",\"3-3\",\"12436\",\"40\",\"0\",\"Training\",\"Stims/Figures/7-C-20-4.bmp\",\"mamala\",\"Up\",\"38\",\"1\",\"13\",\"9\",\"S\",\"J\",\"13\"
\"\",\"\",\"approach-retreat\",\"17\",\"371911\",\"0.0-17.0\",\"\",\"\",\"3-3\",\"7273\",\"37\",\"1\",\"Training\",\"Stims/Figures/86-J-0-1.bmp\",\"paka:ka\",\"Right\",\"37\",\"1\",\"14\",\"9\",\"P\",\"J\",\"14\"
\"\",\"\",\"approach-retreat\",\"18\",\"443000\",\"0.0-18.0\",\"\",\"\",\"3-3\",\"69579\",\"37\",\"0\",\"Training\",\"Stims/Figures/144-C-30-3.bmp\",\"fa:sha:va\",\"Right\",\"39\",\"1\",\"15\",\"9\",\"C1\",\"J\",\"15\"
\"\",\"\",\"approach-retreat\",\"19\",\"449797\",\"0.0-19.0\",\"\",\"\",\"3-3\",\"5288\",\"40\",\"0\",\"Training\",\"Stims/Figures/74-J-10-4.bmp\",\"ma:lana\",\"Down\",\"38\",\"1\",\"16\",\"9\",\"S\",\"J\",\"16\"
\"\",\"\",\"approach-retreat\",\"20\",\"456889\",\"0.0-20.0\",\"\",\"\",\"3-3\",\"5582\",\"37\",\"0\",\"Training\",\"Stims/Figures/144-C-30-3.bmp\",\"fa:sha:va\",\"Right\",\"39\",\"2\",\"1\",\"9\",\"C1\",\"J\",\"17\"
\"\",\"\",\"approach-retreat\",\"21\",\"464438\",\"0.0-21.0\",\"\",\"\",\"3-3\",\"6041\",\"38\",\"1\",\"Training\",\"Stims/Figures/139-J-0-2.bmp\",\"sasa:ha\",\"Down\",\"38\",\"2\",\"2\",\"9\",\"C2\",\"J\",\"18\"
\"\",\"\",\"approach-retreat\",\"22\",\"475788\",\"0.0-22.0\",\"\",\"\",\"3-3\",\"9841\",\"39\",\"1\",\"Training\",\"Stims/Figures/74-C-20-4.bmp\",\"za:haza\",\"Right\",\"39\",\"2\",\"3\",\"9\",\"C2\",\"J\",\"19\"
\"\",\"\",\"approach-retreat\",\"23\",\"482872\",\"0.0-23.0\",\"\",\"\",\"3-3\",\"5576\",\"40\",\"1\",\"Training\",\"Stims/Figures/27-J-0-1.bmp\",\"vafa:sha\",\"Up\",\"40\",\"2\",\"4\",\"9\",\"C1\",\"J\",\"20\"
\"\",\"\",\"approach-retreat\",\"24\",\"491452\",\"0.0-24.0\",\"\",\"\",\"3-3\",\"7072\",\"38\",\"1\",\"Training\",\"Stims/Figures/128-J-10-3.bmp\",\"va:sha:va\",\"Down\",\"38\",\"2\",\"5\",\"9\",\"C1\",\"J\",\"21\"
\"\",\"\",\"approach-retreat\",\"25\",\"499385\",\"0.0-25.0\",\"\",\"\",\"3-3\",\"6425\",\"39\",\"1\",\"Training\",\"Stims/Figures/74-J-10-4.bmp\",\"ma:lana\",\"Left\",\"39\",\"2\",\"6\",\"9\",\"S\",\"J\",\"22\"
\"\",\"\",\"approach-retreat\",\"26\",\"506048\",\"0.0-26.0\",\"\",\"\",\"3-3\",\"5153\",\"37\",\"1\",\"Training\",\"Stims/Figures/144-J-10-3.bmp\",\"sasaza\",\"Right\",\"37\",\"2\",\"7\",\"9\",\"C2\",\"J\",\"23\"
\"\",\"\",\"approach-retreat\",\"27\",\"513659\",\"0.0-27.0\",\"\",\"\",\"3-3\",\"6104\",\"38\",\"1\",\"Training\",\"Stims/Figures/7-C-20-4.bmp\",\"mamala\",\"Up\",\"38\",\"2\",\"8\",\"9\",\"S\",\"J\",\"24\"
\"\",\"\",\"approach-retreat\",\"28\",\"521851\",\"0.0-28.0\",\"\",\"\",\"3-3\",\"6684\",\"39\",\"0\",\"Training\",\"Stims/Figures/139-C-20-2.bmp\",\"ma:la:na\",\"Left\",\"37\",\"2\",\"9\",\"9\",\"S\",\"J\",\"25\"
\"\",\"\",\"approach-retreat\",\"29\",\"528328\",\"0.0-29.0\",\"\",\"\",\"3-3\",\"4968\",\"39\",\"1\",\"Training\",\"Stims/Figures/7-J-10-4.bmp\",\"na:lala\",\"Left\",\"39\",\"2\",\"10\",\"9\",\"S\",\"J\",\"26\"
\"\",\"\",\"approach-retreat\",\"30\",\"534680\",\"0.0-30.0\",\"\",\"\",\"3-3\",\"4843\",\"40\",\"1\",\"Training\",\"Stims/Figures/84-C-20-2.bmp\",\"pakata\",\"Down\",\"40\",\"2\",\"11\",\"9\",\"P\",\"J\",\"27\"
\"\",\"\",\"approach-retreat\",\"31\",\"541827\",\"0.0-31.0\",\"\",\"\",\"3-3\",\"5638\",\"40\",\"1\",\"Training\",\"Stims/Figures/86-J-0-1.bmp\",\"paka:ka\",\"Up\",\"40\",\"2\",\"12\",\"9\",\"P\",\"J\",\"28\"
\"\",\"\",\"approach-retreat\",\"32\",\"548706\",\"0.0-32.0\",\"\",\"\",\"3-3\",\"5372\",\"40\",\"1\",\"Training\",\"Stims/Figures/86-C-30-1.bmp\",\"pa:pa:ka\",\"Down\",\"40\",\"2\",\"13\",\"9\",\"P\",\"J\",\"29\"
\"\",\"\",\"approach-retreat\",\"33\",\"559823\",\"0.0-33.0\",\"\",\"\",\"3-3\",\"9609\",\"38\",\"1\",\"Training\",\"Stims/Figures/27-C-30-1.bmp\",\"ma:mana\",\"Up\",\"38\",\"2\",\"14\",\"9\",\"S\",\"J\",\"30\"
\"\",\"\",\"approach-retreat\",\"34\",\"566755\",\"0.0-34.0\",\"\",\"\",\"3-3\",\"5424\",\"37\",\"1\",\"Training\",\"Stims/Figures/128-C-30-3.bmp\",\"mamana\",\"Left\",\"37\",\"2\",\"15\",\"9\",\"S\",\"J\",\"31\"
\"\",\"\",\"approach-retreat\",\"35\",\"576669\",\"0.0-35.0\",\"\",\"\",\"3-3\",\"8404\",\"37\",\"1\",\"Training\",\"Stims/Figures/84-J-0-2.bmp\",\"pa:pata\",\"Right\",\"37\",\"2\",\"16\",\"9\",\"P\",\"J\",\"32\"
\"\",\"\",\"approach-retreat\",\"36\",\"583350\",\"0.0-36.0\",\"\",\"\",\"3-3\",\"5172\",\"38\",\"1\",\"Training\",\"Stims/Figures/74-J-10-4.bmp\",\"ma:lana\",\"Down\",\"38\",\"3\",\"1\",\"9\",\"S\",\"J\",\"33\"
\"\",\"\",\"approach-retreat\",\"37\",\"590277\",\"0.0-37.0\",\"\",\"\",\"3-3\",\"5419\",\"39\",\"1\",\"Training\",\"Stims/Figures/139-C-20-2.bmp\",\"ma:la:na\",\"Right\",\"39\",\"3\",\"2\",\"9\",\"S\",\"J\",\"34\"
\"\",\"\",\"approach-retreat\",\"38\",\"596464\",\"0.0-38.0\",\"\",\"\",\"3-3\",\"4676\",\"38\",\"1\",\"Training\",\"Stims/Figures/86-J-0-1.bmp\",\"paka:ka\",\"Down\",\"38\",\"3\",\"3\",\"9\",\"P\",\"J\",\"35\"
\"\",\"\",\"approach-retreat\",\"39\",\"603528\",\"0.0-39.0\",\"\",\"\",\"3-3\",\"5556\",\"37\",\"1\",\"Training\",\"Stims/Figures/86-C-30-1.bmp\",\"pa:pa:ka\",\"Left\",\"37\",\"3\",\"4\",\"9\",\"P\",\"J\",\"36\"
\"\",\"\",\"approach-retreat\",\"40\",\"609865\",\"0.0-40.0\",\"\",\"\",\"3-3\",\"4828\",\"37\",\"1\",\"Training\",\"Stims/Figures/84-J-0-2.bmp\",\"pa:pata\",\"Right\",\"37\",\"3\",\"5\",\"9\",\"P\",\"J\",\"37\"
\"\",\"\",\"approach-retreat\",\"41\",\"616300\",\"0.0-41.0\",\"\",\"\",\"3-3\",\"4926\",\"39\",\"1\",\"Training\",\"Stims/Figures/74-C-20-4.bmp\",\"za:haza\",\"Right\",\"39\",\"3\",\"6\",\"9\",\"C2\",\"J\",\"38\"
\"\",\"\",\"approach-retreat\",\"42\",\"625961\",\"0.0-42.0\",\"\",\"\",\"3-3\",\"8153\",\"38\",\"1\",\"Training\",\"Stims/Figures/128-C-30-3.bmp\",\"mamana\",\"Up\",\"38\",\"3\",\"7\",\"9\",\"S\",\"J\",\"39\"
\"\",\"\",\"approach-retreat\",\"43\",\"632198\",\"0.0-43.0\",\"\",\"\",\"3-3\",\"4728\",\"39\",\"1\",\"Training\",\"Stims/Figures/139-J-0-2.bmp\",\"sasa:ha\",\"Left\",\"39\",\"3\",\"8\",\"9\",\"C2\",\"J\",\"40\"
\"\",\"\",\"approach-retreat\",\"44\",\"638660\",\"0.0-44.0\",\"\",\"\",\"3-3\",\"4953\",\"37\",\"1\",\"Training\",\"Stims/Figures/27-C-30-1.bmp\",\"ma:mana\",\"Left\",\"37\",\"3\",\"9\",\"9\",\"S\",\"J\",\"41\"
\"\",\"\",\"approach-retreat\",\"45\",\"645688\",\"0.0-45.0\",\"\",\"\",\"3-3\",\"5519\",\"39\",\"1\",\"Training\",\"Stims/Figures/7-J-10-4.bmp\",\"na:lala\",\"Left\",\"39\",\"3\",\"10\",\"9\",\"S\",\"J\",\"42\"
\"\",\"\",\"approach-retreat\",\"46\",\"651956\",\"0.0-46.0\",\"\",\"\",\"3-3\",\"4759\",\"38\",\"1\",\"Training\",\"Stims/Figures/144-J-10-3.bmp\",\"sasaza\",\"Down\",\"38\",\"3\",\"11\",\"9\",\"C2\",\"J\",\"43\"
\"\",\"\",\"approach-retreat\",\"47\",\"659485\",\"0.0-47.0\",\"\",\"\",\"3-3\",\"6021\",\"40\",\"1\",\"Training\",\"Stims/Figures/7-C-20-4.bmp\",\"mamala\",\"Down\",\"40\",\"3\",\"12\",\"9\",\"S\",\"J\",\"44\"
\"\",\"\",\"approach-retreat\",\"48\",\"667651\",\"0.0-48.0\",\"\",\"\",\"3-3\",\"6657\",\"40\",\"1\",\"Training\",\"Stims/Figures/27-J-0-1.bmp\",\"vafa:sha\",\"Up\",\"40\",\"3\",\"13\",\"9\",\"C1\",\"J\",\"45\"
\"\",\"\",\"approach-retreat\",\"49\",\"673475\",\"0.0-49.0\",\"\",\"\",\"3-3\",\"4315\",\"38\",\"0\",\"Training\",\"Stims/Figures/128-J-10-3.bmp\",\"va:sha:va\",\"Up\",\"40\",\"3\",\"14\",\"9\",\"C1\",\"J\",\"46\"
\"\",\"\",\"approach-retreat\",\"50\",\"680324\",\"0.0-50.0\",\"\",\"\",\"3-3\",\"5340\",\"39\",\"1\",\"Training\",\"Stims/Figures/84-C-20-2.bmp\",\"pakata\",\"Right\",\"39\",\"3\",\"15\",\"9\",\"P\",\"J\",\"47\"
\"\",\"\",\"approach-retreat\",\"51\",\"689195\",\"0.0-51.0\",\"\",\"\",\"3-3\",\"7363\",\"38\",\"1\",\"Training\",\"Stims/Figures/144-C-30-3.bmp\",\"fa:sha:va\",\"Up\",\"38\",\"3\",\"16\",\"9\",\"C1\",\"J\",\"48\"
\"\",\"\",\"approach-retreat\",\"52\",\"695690\",\"0.0-52.0\",\"\",\"\",\"3-3\",\"4987\",\"40\",\"1\",\"Training\",\"Stims/Figures/84-J-0-2.bmp\",\"pa:pata\",\"Up\",\"40\",\"4\",\"1\",\"9\",\"P\",\"J\",\"49\"
\"\",\"\",\"approach-retreat\",\"53\",\"702049\",\"0.0-53.0\",\"\",\"\",\"3-3\",\"4848\",\"39\",\"1\",\"Training\",\"Stims/Figures/139-J-0-2.bmp\",\"sasa:ha\",\"Left\",\"39\",\"4\",\"2\",\"9\",\"C2\",\"J\",\"50\"
\"\",\"\",\"approach-retreat\",\"54\",\"708516\",\"0.0-54.0\",\"\",\"\",\"3-3\",\"4959\",\"39\",\"1\",\"Training\",\"Stims/Figures/86-C-30-1.bmp\",\"pa:pa:ka\",\"Right\",\"39\",\"4\",\"3\",\"9\",\"P\",\"J\",\"51\"
\"\",\"\",\"approach-retreat\",\"55\",\"716780\",\"0.0-55.0\",\"\",\"\",\"3-3\",\"6756\",\"40\",\"1\",\"Training\",\"Stims/Figures/84-C-20-2.bmp\",\"pakata\",\"Down\",\"40\",\"4\",\"4\",\"9\",\"P\",\"J\",\"52\"
\"\",\"\",\"approach-retreat\",\"56\",\"723303\",\"0.0-56.0\",\"\",\"\",\"3-3\",\"5014\",\"39\",\"1\",\"Training\",\"Stims/Figures/27-J-0-1.bmp\",\"vafa:sha\",\"Left\",\"39\",\"4\",\"5\",\"9\",\"C1\",\"J\",\"53\"
\"\",\"\",\"approach-retreat\",\"57\",\"730226\",\"0.0-57.0\",\"\",\"\",\"3-3\",\"5414\",\"38\",\"1\",\"Training\",\"Stims/Figures/7-C-20-4.bmp\",\"mamala\",\"Up\",\"38\",\"4\",\"6\",\"9\",\"S\",\"J\",\"54\"
\"\",\"\",\"approach-retreat\",\"58\",\"736579\",\"0.0-58.0\",\"\",\"\",\"3-3\",\"4844\",\"40\",\"1\",\"Training\",\"Stims/Figures/7-J-10-4.bmp\",\"na:lala\",\"Up\",\"40\",\"4\",\"7\",\"9\",\"S\",\"J\",\"55\"
\"\",\"\",\"approach-retreat\",\"59\",\"747375\",\"0.0-59.0\",\"\",\"\",\"3-3\",\"9288\",\"39\",\"1\",\"Training\",\"Stims/Figures/128-C-30-3.bmp\",\"mamana\",\"Right\",\"39\",\"4\",\"8\",\"9\",\"S\",\"J\",\"56\"
\"\",\"\",\"approach-retreat\",\"60\",\"764155\",\"0.0-60.0\",\"\",\"\",\"3-3\",\"15270\",\"39\",\"0\",\"Training\",\"Stims/Figures/139-C-20-2.bmp\",\"ma:la:na\",\"Left\",\"37\",\"4\",\"9\",\"9\",\"S\",\"J\",\"57\"
\"\",\"\",\"approach-retreat\",\"61\",\"770792\",\"0.0-61.0\",\"\",\"\",\"3-3\",\"5129\",\"38\",\"1\",\"Training\",\"Stims/Figures/128-J-10-3.bmp\",\"va:sha:va\",\"Down\",\"38\",\"4\",\"10\",\"9\",\"C1\",\"J\",\"58\"
\"\",\"\",\"approach-retreat\",\"62\",\"777104\",\"0.0-62.0\",\"\",\"\",\"3-3\",\"4805\",\"40\",\"1\",\"Training\",\"Stims/Figures/144-J-10-3.bmp\",\"sasaza\",\"Up\",\"40\",\"4\",\"11\",\"9\",\"C2\",\"J\",\"59\"
\"\",\"\",\"approach-retreat\",\"63\",\"784602\",\"0.0-63.0\",\"\",\"\",\"3-3\",\"5989\",\"38\",\"0\",\"Training\",\"Stims/Figures/74-C-20-4.bmp\",\"za:haza\",\"Down\",\"40\",\"4\",\"12\",\"9\",\"C2\",\"J\",\"60\"
\"\",\"\",\"approach-retreat\",\"64\",\"791166\",\"0.0-64.0\",\"\",\"\",\"3-3\",\"5057\",\"37\",\"1\",\"Training\",\"Stims/Figures/86-J-0-1.bmp\",\"paka:ka\",\"Right\",\"37\",\"4\",\"13\",\"9\",\"P\",\"J\",\"61\"
\"\",\"\",\"approach-retreat\",\"65\",\"797354\",\"0.0-65.0\",\"\",\"\",\"3-3\",\"4679\",\"38\",\"1\",\"Training\",\"Stims/Figures/74-J-10-4.bmp\",\"ma:lana\",\"Down\",\"38\",\"4\",\"14\",\"9\",\"S\",\"J\",\"62\"
\"\",\"\",\"approach-retreat\",\"66\",\"804928\",\"0.0-66.0\",\"\",\"\",\"3-3\",\"6065\",\"37\",\"1\",\"Training\",\"Stims/Figures/144-C-30-3.bmp\",\"fa:sha:va\",\"Left\",\"37\",\"4\",\"15\",\"9\",\"C1\",\"J\",\"63\"
\"\",\"\",\"approach-retreat\",\"67\",\"811062\",\"0.0-67.0\",\"\",\"\",\"3-3\",\"4626\",\"39\",\"1\",\"Training\",\"Stims/Figures/27-C-30-1.bmp\",\"ma:mana\",\"Right\",\"39\",\"4\",\"16\",\"9\",\"S\",\"J\",\"64\"
\"\",\"\",\"approach-retreat\",\"68\",\"817177\",\"0.0-68.0\",\"\",\"\",\"3-3\",\"4605\",\"39\",\"1\",\"Training\",\"Stims/Figures/27-J-0-1.bmp\",\"vafa:sha\",\"Left\",\"39\",\"5\",\"1\",\"9\",\"C1\",\"J\",\"65\"
\"\",\"\",\"approach-retreat\",\"69\",\"824903\",\"0.0-69.0\",\"\",\"\",\"3-3\",\"6219\",\"38\",\"1\",\"Training\",\"Stims/Figures/86-C-30-1.bmp\",\"pa:pa:ka\",\"Up\",\"38\",\"5\",\"2\",\"9\",\"P\",\"J\",\"66\"
\"\",\"\",\"approach-retreat\",\"70\",\"831865\",\"0.0-70.0\",\"\",\"\",\"3-3\",\"5452\",\"39\",\"1\",\"Training\",\"Stims/Figures/84-J-0-2.bmp\",\"pa:pata\",\"Left\",\"39\",\"5\",\"3\",\"9\",\"P\",\"J\",\"67\"
\"\",\"\",\"approach-retreat\",\"71\",\"838728\",\"0.0-71.0\",\"\",\"\",\"3-3\",\"5354\",\"39\",\"1\",\"Training\",\"Stims/Figures/144-J-10-3.bmp\",\"sasaza\",\"Left\",\"39\",\"5\",\"4\",\"9\",\"C2\",\"J\",\"68\"
\"\",\"\",\"approach-retreat\",\"72\",\"845436\",\"0.0-72.0\",\"\",\"\",\"3-3\",\"5199\",\"38\",\"0\",\"Training\",\"Stims/Figures/128-J-10-3.bmp\",\"va:sha:va\",\"Up\",\"40\",\"5\",\"5\",\"9\",\"C1\",\"J\",\"69\"
\"\",\"\",\"approach-retreat\",\"73\",\"851819\",\"0.0-73.0\",\"\",\"\",\"3-3\",\"4874\",\"40\",\"1\",\"Training\",\"Stims/Figures/139-C-20-2.bmp\",\"ma:la:na\",\"Down\",\"40\",\"5\",\"6\",\"9\",\"S\",\"J\",\"70\"
\"\",\"\",\"approach-retreat\",\"74\",\"859564\",\"0.0-74.0\",\"\",\"\",\"3-3\",\"6236\",\"40\",\"1\",\"Training\",\"Stims/Figures/84-C-20-2.bmp\",\"pakata\",\"Down\",\"40\",\"5\",\"7\",\"9\",\"P\",\"J\",\"71\"
\"\",\"\",\"approach-retreat\",\"75\",\"865760\",\"0.0-75.0\",\"\",\"\",\"3-3\",\"4688\",\"37\",\"1\",\"Training\",\"Stims/Figures/27-C-30-1.bmp\",\"ma:mana\",\"Left\",\"37\",\"5\",\"8\",\"9\",\"S\",\"J\",\"72\"
\"\",\"\",\"approach-retreat\",\"76\",\"879954\",\"0.0-76.0\",\"\",\"\",\"3-3\",\"12686\",\"39\",\"0\",\"Training\",\"Stims/Figures/74-J-10-4.bmp\",\"ma:lana\",\"Right\",\"37\",\"5\",\"9\",\"9\",\"S\",\"J\",\"73\"
\"\",\"\",\"approach-retreat\",\"77\",\"886229\",\"0.0-77.0\",\"\",\"\",\"3-3\",\"4765\",\"38\",\"1\",\"Training\",\"Stims/Figures/86-J-0-1.bmp\",\"paka:ka\",\"Down\",\"38\",\"5\",\"10\",\"9\",\"P\",\"J\",\"74\"
\"\",\"\",\"approach-retreat\",\"78\",\"896808\",\"0.0-78.0\",\"\",\"\",\"3-3\",\"9071\",\"40\",\"1\",\"Training\",\"Stims/Figures/7-J-10-4.bmp\",\"na:lala\",\"Up\",\"40\",\"5\",\"11\",\"9\",\"S\",\"J\",\"75\"
\"\",\"\",\"approach-retreat\",\"79\",\"904212\",\"0.0-79.0\",\"\",\"\",\"3-3\",\"5895\",\"39\",\"1\",\"Training\",\"Stims/Figures/144-C-30-3.bmp\",\"fa:sha:va\",\"Right\",\"39\",\"5\",\"12\",\"9\",\"C1\",\"J\",\"76\"
\"\",\"\",\"approach-retreat\",\"80\",\"917135\",\"0.0-80.0\",\"\",\"\",\"3-3\",\"11415\",\"39\",\"1\",\"Training\",\"Stims/Figures/128-C-30-3.bmp\",\"mamana\",\"Right\",\"39\",\"5\",\"13\",\"9\",\"S\",\"J\",\"77\"
\"\",\"\",\"approach-retreat\",\"81\",\"926579\",\"0.0-81.0\",\"\",\"\",\"3-3\",\"7936\",\"37\",\"1\",\"Training\",\"Stims/Figures/139-J-0-2.bmp\",\"sasa:ha\",\"Right\",\"37\",\"5\",\"14\",\"9\",\"C2\",\"J\",\"78\"
\"\",\"\",\"approach-retreat\",\"82\",\"933876\",\"0.0-82.0\",\"\",\"\",\"3-3\",\"5789\",\"40\",\"0\",\"Training\",\"Stims/Figures/74-C-20-4.bmp\",\"za:haza\",\"Up\",\"38\",\"5\",\"15\",\"9\",\"C2\",\"J\",\"79\"
\"\",\"\",\"approach-retreat\",\"83\",\"939763\",\"0.0-83.0\",\"\",\"\",\"3-3\",\"4380\",\"40\",\"1\",\"Training\",\"Stims/Figures/7-C-20-4.bmp\",\"mamala\",\"Down\",\"40\",\"5\",\"16\",\"9\",\"S\",\"J\",\"80\"
\"\",\"\",\"approach-retreat\",\"84\",\"947191\",\"0.0-84.0\",\"\",\"\",\"3-3\",\"5918\",\"39\",\"0\",\"Training\",\"Stims/Figures/128-J-10-3.bmp\",\"va:sha:va\",\"Right\",\"37\",\"6\",\"1\",\"9\",\"C1\",\"J\",\"81\"
\"\",\"\",\"approach-retreat\",\"85\",\"953663\",\"0.0-85.0\",\"\",\"\",\"3-3\",\"4963\",\"40\",\"1\",\"Training\",\"Stims/Figures/27-C-30-1.bmp\",\"ma:mana\",\"Down\",\"40\",\"6\",\"2\",\"9\",\"S\",\"J\",\"82\"
\"\",\"\",\"approach-retreat\",\"86\",\"960069\",\"0.0-86.0\",\"\",\"\",\"3-3\",\"4898\",\"39\",\"1\",\"Training\",\"Stims/Figures/139-J-0-2.bmp\",\"sasa:ha\",\"Left\",\"39\",\"6\",\"3\",\"9\",\"C2\",\"J\",\"83\"
\"\",\"\",\"approach-retreat\",\"87\",\"966613\",\"0.0-87.0\",\"\",\"\",\"3-3\",\"5035\",\"37\",\"1\",\"Training\",\"Stims/Figures/128-C-30-3.bmp\",\"mamana\",\"Left\",\"37\",\"6\",\"4\",\"9\",\"S\",\"J\",\"84\"
\"\",\"\",\"approach-retreat\",\"88\",\"973322\",\"0.0-88.0\",\"\",\"\",\"3-3\",\"5200\",\"40\",\"1\",\"Training\",\"Stims/Figures/84-C-20-2.bmp\",\"pakata\",\"Down\",\"40\",\"6\",\"5\",\"9\",\"P\",\"J\",\"85\"
\"\",\"\",\"approach-retreat\",\"89\",\"981229\",\"0.0-89.0\",\"\",\"\",\"3-3\",\"6399\",\"37\",\"1\",\"Training\",\"Stims/Figures/139-C-20-2.bmp\",\"ma:la:na\",\"Left\",\"37\",\"6\",\"6\",\"9\",\"S\",\"J\",\"86\"
\"\",\"\",\"approach-retreat\",\"90\",\"989597\",\"0.0-90.0\",\"\",\"\",\"3-3\",\"6860\",\"38\",\"1\",\"Training\",\"Stims/Figures/144-C-30-3.bmp\",\"fa:sha:va\",\"Up\",\"38\",\"6\",\"7\",\"9\",\"C1\",\"J\",\"87\"
\"\",\"\",\"approach-retreat\",\"91\",\"998222\",\"0.0-91.0\",\"\",\"\",\"3-3\",\"7115\",\"39\",\"1\",\"Training\",\"Stims/Figures/74-C-20-4.bmp\",\"za:haza\",\"Right\",\"39\",\"6\",\"8\",\"9\",\"C2\",\"J\",\"88\"
\"\",\"\",\"approach-retreat\",\"92\",\"1005258\",\"0.0-92.0\",\"\",\"\",\"3-3\",\"5527\",\"39\",\"1\",\"Training\",\"Stims/Figures/7-C-20-4.bmp\",\"mamala\",\"Right\",\"39\",\"6\",\"9\",\"9\",\"S\",\"J\",\"89\"
\"\",\"\",\"approach-retreat\",\"93\",\"1011354\",\"0.0-93.0\",\"\",\"\",\"3-3\",\"4587\",\"39\",\"1\",\"Training\",\"Stims/Figures/27-J-0-1.bmp\",\"vafa:sha\",\"Left\",\"39\",\"6\",\"10\",\"9\",\"C1\",\"J\",\"90\"
\"\",\"\",\"approach-retreat\",\"94\",\"1028619\",\"0.0-94.0\",\"\",\"\",\"3-3\",\"15756\",\"38\",\"0\",\"Training\",\"Stims/Figures/7-J-10-4.bmp\",\"na:lala\",\"Up\",\"40\",\"6\",\"11\",\"9\",\"S\",\"J\",\"91\"
\"\",\"\",\"approach-retreat\",\"95\",\"1034930\",\"0.0-95.0\",\"\",\"\",\"3-3\",\"4803\",\"38\",\"1\",\"Training\",\"Stims/Figures/84-J-0-2.bmp\",\"pa:pata\",\"Down\",\"38\",\"6\",\"12\",\"9\",\"P\",\"J\",\"92\"
\"\",\"\",\"approach-retreat\",\"96\",\"1042385\",\"0.0-96.0\",\"\",\"\",\"3-3\",\"5946\",\"37\",\"1\",\"Training\",\"Stims/Figures/86-J-0-1.bmp\",\"paka:ka\",\"Right\",\"37\",\"6\",\"13\",\"9\",\"P\",\"J\",\"93\"
\"\",\"\",\"approach-retreat\",\"97\",\"1050385\",\"0.0-97.0\",\"\",\"\",\"3-3\",\"6493\",\"40\",\"1\",\"Training\",\"Stims/Figures/144-J-10-3.bmp\",\"sasaza\",\"Up\",\"40\",\"6\",\"14\",\"9\",\"C2\",\"J\",\"94\"
\"\",\"\",\"approach-retreat\",\"98\",\"1056918\",\"0.0-98.0\",\"\",\"\",\"3-3\",\"5025\",\"38\",\"1\",\"Training\",\"Stims/Figures/74-J-10-4.bmp\",\"ma:lana\",\"Down\",\"38\",\"6\",\"15\",\"9\",\"S\",\"J\",\"95\"
\"\",\"\",\"approach-retreat\",\"99\",\"1063681\",\"0.0-99.0\",\"\",\"\",\"3-3\",\"5255\",\"38\",\"1\",\"Training\",\"Stims/Figures/86-C-30-1.bmp\",\"pa:pa:ka\",\"Up\",\"38\",\"6\",\"16\",\"9\",\"P\",\"J\",\"96\"
\"\",\"\",\"approach-retreat\",\"100\",\"1070733\",\"0.0-100.0\",\"\",\"\",\"3-3\",\"5545\",\"38\",\"1\",\"Training\",\"Stims/Figures/139-C-20-2.bmp\",\"ma:la:na\",\"Up\",\"38\",\"7\",\"1\",\"9\",\"S\",\"J\",\"97\"
\"\",\"\",\"approach-retreat\",\"101\",\"1078056\",\"0.0-101.0\",\"\",\"\",\"3-3\",\"5815\",\"39\",\"1\",\"Training\",\"Stims/Figures/27-C-30-1.bmp\",\"ma:mana\",\"Right\",\"39\",\"7\",\"2\",\"9\",\"S\",\"J\",\"98\"
\"\",\"\",\"approach-retreat\",\"102\",\"1084621\",\"0.0-102.0\",\"\",\"\",\"3-3\",\"5056\",\"37\",\"1\",\"Training\",\"Stims/Figures/84-C-20-2.bmp\",\"pakata\",\"Left\",\"37\",\"7\",\"3\",\"9\",\"P\",\"J\",\"99\"
\"\",\"\",\"approach-retreat\",\"103\",\"1091798\",\"0.0-103.0\",\"\",\"\",\"3-3\",\"5669\",\"40\",\"1\",\"Training\",\"Stims/Figures/74-C-20-4.bmp\",\"za:haza\",\"Down\",\"40\",\"7\",\"4\",\"9\",\"C2\",\"J\",\"100\"
\"\",\"\",\"approach-retreat\",\"104\",\"1099712\",\"0.0-104.0\",\"\",\"\",\"3-3\",\"6406\",\"38\",\"1\",\"Training\",\"Stims/Figures/128-C-30-3.bmp\",\"mamana\",\"Up\",\"38\",\"7\",\"5\",\"9\",\"S\",\"J\",\"101\"
\"\",\"\",\"approach-retreat\",\"105\",\"1107301\",\"0.0-105.0\",\"\",\"\",\"3-3\",\"6080\",\"39\",\"0\",\"Training\",\"Stims/Figures/7-C-20-4.bmp\",\"mamala\",\"Left\",\"37\",\"7\",\"6\",\"9\",\"S\",\"J\",\"102\"
\"\",\"\",\"approach-retreat\",\"106\",\"1115699\",\"0.0-106.0\",\"\",\"\",\"3-3\",\"6890\",\"39\",\"1\",\"Training\",\"Stims/Figures/144-C-30-3.bmp\",\"fa:sha:va\",\"Right\",\"39\",\"7\",\"7\",\"9\",\"C1\",\"J\",\"103\"
\"\",\"\",\"approach-retreat\",\"107\",\"1123660\",\"0.0-107.0\",\"\",\"\",\"3-3\",\"6454\",\"38\",\"1\",\"Training\",\"Stims/Figures/27-J-0-1.bmp\",\"vafa:sha\",\"Down\",\"38\",\"7\",\"8\",\"9\",\"C1\",\"J\",\"104\"
\"\",\"\",\"approach-retreat\",\"108\",\"1131788\",\"0.0-108.0\",\"\",\"\",\"3-3\",\"6621\",\"39\",\"1\",\"Training\",\"Stims/Figures/144-J-10-3.bmp\",\"sasaza\",\"Left\",\"39\",\"7\",\"9\",\"9\",\"C2\",\"J\",\"105\"
\"\",\"\",\"approach-retreat\",\"109\",\"1138652\",\"0.0-109.0\",\"\",\"\",\"3-3\",\"5355\",\"39\",\"1\",\"Training\",\"Stims/Figures/139-J-0-2.bmp\",\"sasa:ha\",\"Left\",\"39\",\"7\",\"10\",\"9\",\"C2\",\"J\",\"106\"
\"\",\"\",\"approach-retreat\",\"110\",\"1146404\",\"0.0-110.0\",\"\",\"\",\"3-3\",\"6243\",\"37\",\"1\",\"Training\",\"Stims/Figures/74-J-10-4.bmp\",\"ma:lana\",\"Right\",\"37\",\"7\",\"11\",\"9\",\"S\",\"J\",\"107\"
\"\",\"\",\"approach-retreat\",\"111\",\"1153897\",\"0.0-111.0\",\"\",\"\",\"3-3\",\"5984\",\"40\",\"1\",\"Training\",\"Stims/Figures/86-J-0-1.bmp\",\"paka:ka\",\"Up\",\"40\",\"7\",\"12\",\"9\",\"P\",\"J\",\"108\"
\"\",\"\",\"approach-retreat\",\"112\",\"1160659\",\"0.0-112.0\",\"\",\"\",\"3-3\",\"5253\",\"38\",\"1\",\"Training\",\"Stims/Figures/84-J-0-2.bmp\",\"pa:pata\",\"Down\",\"38\",\"7\",\"13\",\"9\",\"P\",\"J\",\"109\"
\"\",\"\",\"approach-retreat\",\"113\",\"1167241\",\"0.0-113.0\",\"\",\"\",\"3-3\",\"5074\",\"38\",\"1\",\"Training\",\"Stims/Figures/128-J-10-3.bmp\",\"va:sha:va\",\"Down\",\"38\",\"7\",\"14\",\"9\",\"C1\",\"J\",\"110\"
\"\",\"\",\"approach-retreat\",\"114\",\"1174233\",\"0.0-114.0\",\"\",\"\",\"3-3\",\"5484\",\"40\",\"1\",\"Training\",\"Stims/Figures/7-J-10-4.bmp\",\"na:lala\",\"Up\",\"40\",\"7\",\"15\",\"9\",\"S\",\"J\",\"111\"
\"\",\"\",\"approach-retreat\",\"115\",\"1181358\",\"0.0-115.0\",\"\",\"\",\"3-3\",\"5615\",\"39\",\"1\",\"Training\",\"Stims/Figures/86-C-30-1.bmp\",\"pa:pa:ka\",\"Right\",\"39\",\"7\",\"16\",\"9\",\"P\",\"J\",\"112\"
\"\",\"\",\"approach-retreat\",\"116\",\"1190374\",\"0.0-116.0\",\"\",\"\",\"3-3\",\"7508\",\"39\",\"1\",\"Training\",\"Stims/Figures/128-C-30-3.bmp\",\"mamana\",\"Right\",\"39\",\"8\",\"1\",\"9\",\"S\",\"J\",\"113\"
\"\",\"\",\"approach-retreat\",\"117\",\"1197459\",\"0.0-117.0\",\"\",\"\",\"3-3\",\"5576\",\"40\",\"1\",\"Training\",\"Stims/Figures/128-J-10-3.bmp\",\"va:sha:va\",\"Up\",\"40\",\"8\",\"2\",\"9\",\"C1\",\"J\",\"114\"
\"\",\"\",\"approach-retreat\",\"118\",\"1205131\",\"0.0-118.0\",\"\",\"\",\"3-3\",\"6165\",\"37\",\"1\",\"Training\",\"Stims/Figures/27-C-30-1.bmp\",\"ma:mana\",\"Left\",\"37\",\"8\",\"3\",\"9\",\"S\",\"J\",\"115\"
\"\",\"\",\"approach-retreat\",\"119\",\"1214385\",\"0.0-119.0\",\"\",\"\",\"3-3\",\"7746\",\"37\",\"0\",\"Training\",\"Stims/Figures/7-C-20-4.bmp\",\"mamala\",\"Right\",\"39\",\"8\",\"4\",\"9\",\"S\",\"J\",\"116\"
\"\",\"\",\"approach-retreat\",\"120\",\"1223208\",\"0.0-120.0\",\"\",\"\",\"3-3\",\"7312\",\"38\",\"1\",\"Training\",\"Stims/Figures/86-C-30-1.bmp\",\"pa:pa:ka\",\"Up\",\"38\",\"8\",\"5\",\"9\",\"P\",\"J\",\"117\"
\"\",\"\",\"approach-retreat\",\"121\",\"1230744\",\"0.0-121.0\",\"\",\"\",\"3-3\",\"6028\",\"38\",\"1\",\"Training\",\"Stims/Figures/74-J-10-4.bmp\",\"ma:lana\",\"Down\",\"38\",\"8\",\"6\",\"9\",\"S\",\"J\",\"118\"
\"\",\"\",\"approach-retreat\",\"122\",\"1239352\",\"0.0-122.0\",\"\",\"\",\"3-3\",\"7099\",\"37\",\"0\",\"Training\",\"Stims/Figures/74-C-20-4.bmp\",\"za:haza\",\"Right\",\"39\",\"8\",\"7\",\"9\",\"C2\",\"J\",\"119\"
\"\",\"\",\"approach-retreat\",\"123\",\"1246368\",\"0.0-123.0\",\"\",\"\",\"3-3\",\"5507\",\"39\",\"1\",\"Training\",\"Stims/Figures/139-J-0-2.bmp\",\"sasa:ha\",\"Left\",\"39\",\"8\",\"8\",\"9\",\"C2\",\"J\",\"120\"
\"\",\"\",\"approach-retreat\",\"124\",\"1253876\",\"0.0-124.0\",\"\",\"\",\"3-3\",\"6002\",\"39\",\"1\",\"Training\",\"Stims/Figures/84-C-20-2.bmp\",\"pakata\",\"Right\",\"39\",\"8\",\"9\",\"9\",\"P\",\"J\",\"121\"
\"\",\"\",\"approach-retreat\",\"125\",\"1260142\",\"0.0-125.0\",\"\",\"\",\"3-3\",\"4757\",\"39\",\"1\",\"Training\",\"Stims/Figures/86-J-0-1.bmp\",\"paka:ka\",\"Left\",\"39\",\"8\",\"10\",\"9\",\"P\",\"J\",\"122\"
\"\",\"\",\"approach-retreat\",\"126\",\"1267007\",\"0.0-126.0\",\"\",\"\",\"3-3\",\"5357\",\"38\",\"0\",\"Training\",\"Stims/Figures/144-J-10-3.bmp\",\"sasaza\",\"Up\",\"40\",\"8\",\"11\",\"9\",\"C2\",\"J\",\"123\"
\"\",\"\",\"approach-retreat\",\"127\",\"1274447\",\"0.0-127.0\",\"\",\"\",\"3-3\",\"5932\",\"40\",\"1\",\"Training\",\"Stims/Figures/144-C-30-3.bmp\",\"fa:sha:va\",\"Down\",\"40\",\"8\",\"12\",\"9\",\"C1\",\"J\",\"124\"
\"\",\"\",\"approach-retreat\",\"128\",\"1281229\",\"0.0-128.0\",\"\",\"\",\"3-3\",\"5274\",\"39\",\"1\",\"Training\",\"Stims/Figures/27-J-0-1.bmp\",\"vafa:sha\",\"Left\",\"39\",\"8\",\"13\",\"9\",\"C1\",\"J\",\"125\"
\"\",\"\",\"approach-retreat\",\"129\",\"1297135\",\"0.0-129.0\",\"\",\"\",\"3-3\",\"14398\",\"38\",\"1\",\"Training\",\"Stims/Figures/7-J-10-4.bmp\",\"na:lala\",\"Down\",\"38\",\"8\",\"14\",\"9\",\"S\",\"J\",\"126\"
\"\",\"\",\"approach-retreat\",\"130\",\"1302797\",\"0.0-130.0\",\"\",\"\",\"3-3\",\"4155\",\"38\",\"1\",\"Training\",\"Stims/Figures/84-J-0-2.bmp\",\"pa:pata\",\"Down\",\"38\",\"8\",\"15\",\"9\",\"P\",\"J\",\"127\"
\"\",\"\",\"approach-retreat\",\"131\",\"1308925\",\"0.0-131.0\",\"\",\"\",\"3-3\",\"4620\",\"38\",\"1\",\"Training\",\"Stims/Figures/139-C-20-2.bmp\",\"ma:la:na\",\"Up\",\"38\",\"8\",\"16\",\"9\",\"S\",\"J\",\"128\"
\"\",\"\",\"approach-retreat\",\"132\",\"1315398\",\"0.0-132.0\",\"\",\"\",\"3-3\",\"4965\",\"39\",\"1\",\"Training\",\"Stims/Figures/128-C-30-3.bmp\",\"mamana\",\"Right\",\"39\",\"9\",\"1\",\"9\",\"S\",\"J\",\"129\"
\"\",\"\",\"approach-retreat\",\"133\",\"1321312\",\"0.0-133.0\",\"\",\"\",\"3-3\",\"4405\",\"38\",\"1\",\"Training\",\"Stims/Figures/74-C-20-4.bmp\",\"za:haza\",\"Up\",\"38\",\"9\",\"2\",\"9\",\"C2\",\"J\",\"130\"
\"\",\"\",\"approach-retreat\",\"134\",\"1328126\",\"0.0-134.0\",\"\",\"\",\"3-3\",\"5308\",\"37\",\"1\",\"Training\",\"Stims/Figures/139-J-0-2.bmp\",\"sasa:ha\",\"Right\",\"37\",\"9\",\"3\",\"9\",\"C2\",\"J\",\"131\"
\"\",\"\",\"approach-retreat\",\"135\",\"1334352\",\"0.0-135.0\",\"\",\"\",\"3-3\",\"4718\",\"38\",\"1\",\"Training\",\"Stims/Figures/86-J-0-1.bmp\",\"paka:ka\",\"Down\",\"38\",\"9\",\"4\",\"9\",\"P\",\"J\",\"132\"
\"\",\"\",\"approach-retreat\",\"136\",\"1340910\",\"0.0-136.0\",\"\",\"\",\"3-3\",\"5053\",\"40\",\"1\",\"Training\",\"Stims/Figures/27-C-30-1.bmp\",\"ma:mana\",\"Down\",\"40\",\"9\",\"5\",\"9\",\"S\",\"J\",\"133\"
\"\",\"\",\"approach-retreat\",\"137\",\"1349578\",\"0.0-137.0\",\"\",\"\",\"3-3\",\"7161\",\"40\",\"1\",\"Training\",\"Stims/Figures/84-J-0-2.bmp\",\"pa:pata\",\"Up\",\"40\",\"9\",\"6\",\"9\",\"P\",\"J\",\"134\"
\"\",\"\",\"approach-retreat\",\"138\",\"1356446\",\"0.0-138.0\",\"\",\"\",\"3-3\",\"5348\",\"39\",\"1\",\"Training\",\"Stims/Figures/27-J-0-1.bmp\",\"vafa:sha\",\"Left\",\"39\",\"9\",\"7\",\"9\",\"C1\",\"J\",\"135\"
\"\",\"\",\"approach-retreat\",\"139\",\"1365881\",\"0.0-139.0\",\"\",\"\",\"3-3\",\"7926\",\"40\",\"1\",\"Training\",\"Stims/Figures/7-J-10-4.bmp\",\"na:lala\",\"Up\",\"40\",\"9\",\"8\",\"9\",\"S\",\"J\",\"136\"
\"\",\"\",\"approach-retreat\",\"140\",\"1373197\",\"0.0-140.0\",\"\",\"\",\"3-3\",\"5806\",\"39\",\"1\",\"Training\",\"Stims/Figures/7-C-20-4.bmp\",\"mamala\",\"Right\",\"39\",\"9\",\"9\",\"9\",\"S\",\"J\",\"137\"
\"\",\"\",\"approach-retreat\",\"141\",\"1379102\",\"0.0-141.0\",\"\",\"\",\"3-3\",\"4397\",\"38\",\"1\",\"Training\",\"Stims/Figures/144-J-10-3.bmp\",\"sasaza\",\"Down\",\"38\",\"9\",\"10\",\"9\",\"C2\",\"J\",\"138\"
\"\",\"\",\"approach-retreat\",\"142\",\"1384910\",\"0.0-142.0\",\"\",\"\",\"3-3\",\"4301\",\"39\",\"1\",\"Training\",\"Stims/Figures/128-J-10-3.bmp\",\"va:sha:va\",\"Left\",\"39\",\"9\",\"11\",\"9\",\"C1\",\"J\",\"139\"
\"\",\"\",\"approach-retreat\",\"143\",\"1391355\",\"0.0-143.0\",\"\",\"\",\"3-3\",\"4935\",\"40\",\"1\",\"Training\",\"Stims/Figures/86-C-30-1.bmp\",\"pa:pa:ka\",\"Down\",\"40\",\"9\",\"12\",\"9\",\"P\",\"J\",\"140\"
\"\",\"\",\"approach-retreat\",\"144\",\"1398200\",\"0.0-144.0\",\"\",\"\",\"3-3\",\"5337\",\"39\",\"1\",\"Training\",\"Stims/Figures/74-J-10-4.bmp\",\"ma:lana\",\"Left\",\"39\",\"9\",\"13\",\"9\",\"S\",\"J\",\"141\"
\"\",\"\",\"approach-retreat\",\"145\",\"1404911\",\"0.0-145.0\",\"\",\"\",\"3-3\",\"5171\",\"37\",\"1\",\"Training\",\"Stims/Figures/84-C-20-2.bmp\",\"pakata\",\"Left\",\"37\",\"9\",\"14\",\"9\",\"P\",\"J\",\"142\"
\"\",\"\",\"approach-retreat\",\"146\",\"1412168\",\"0.0-146.0\",\"\",\"\",\"3-3\",\"5748\",\"38\",\"1\",\"Training\",\"Stims/Figures/139-C-20-2.bmp\",\"ma:la:na\",\"Up\",\"38\",\"9\",\"15\",\"9\",\"S\",\"J\",\"143\"
\"\",\"\",\"approach-retreat\",\"147\",\"1418067\",\"0.0-147.0\",\"\",\"\",\"3-3\",\"4392\",\"39\",\"1\",\"Training\",\"Stims/Figures/144-C-30-3.bmp\",\"fa:sha:va\",\"Right\",\"39\",\"9\",\"16\",\"9\",\"C1\",\"J\",\"144\"
\"16606\",\"\",\"instructions\",\"148\",\"1434673\",\"0.0-148.0\",\"[{\"\"page_index\"\":0,\"\"viewing_time\"\":16606}]\",\"\",\"\",\"\",\"\",\"\",\"\",\"\",\"\",\"\",\"\",\"\",\"\",\"\",\"\",\"\",\"\"
\"\",\"\",\"approach-retreat\",\"149\",\"1441022\",\"0.0-149.0\",\"\",\"\",\"3-3\",\"4841\",\"38\",\"1\",\"Testing\",\"Stims/Figures/86-J-0-1.bmp\",\"paka:ka\",\"Down\",\"38\",\"1\",\"1\",\"9\",\"P\",\"J\",\"1\"
\"\",\"\",\"approach-retreat\",\"150\",\"1448593\",\"0.0-150.0\",\"\",\"\",\"3-3\",\"6064\",\"37\",\"1\",\"Testing\",\"Stims/Figures/57-J-0-1.bmp\",\"tapa:ta\",\"Right\",\"37\",\"1\",\"2\",\"9\",\"P\",\"J\",\"2\"
\"\",\"\",\"approach-retreat\",\"151\",\"1455535\",\"0.0-151.0\",\"\",\"\",\"3-3\",\"5435\",\"37\",\"1\",\"Testing\",\"Stims/Figures/19-J-10-4.bmp\",\"zasaha\",\"Right\",\"37\",\"1\",\"3\",\"9\",\"C2\",\"J\",\"3\"
\"\",\"\",\"approach-retreat\",\"152\",\"1463317\",\"0.0-152.0\",\"\",\"\",\"3-3\",\"6276\",\"38\",\"1\",\"Testing\",\"Stims/Figures/139-J-0-2.bmp\",\"sasa:ha\",\"Down\",\"38\",\"1\",\"4\",\"9\",\"C2\",\"J\",\"4\"
\"\",\"\",\"approach-retreat\",\"153\",\"1473031\",\"0.0-153.0\",\"\",\"\",\"3-3\",\"8208\",\"40\",\"1\",\"Testing\",\"Stims/Figures/100-J-10-3.bmp\",\"taka:ka\",\"Up\",\"40\",\"1\",\"5\",\"9\",\"P\",\"J\",\"5\"
\"\",\"\",\"approach-retreat\",\"154\",\"1480324\",\"0.0-154.0\",\"\",\"\",\"3-3\",\"5786\",\"40\",\"1\",\"Testing\",\"Stims/Figures/100-C-30-3.bmp\",\"takata\",\"Down\",\"40\",\"1\",\"6\",\"9\",\"P\",\"J\",\"6\"
\"\",\"\",\"approach-retreat\",\"155\",\"1486742\",\"0.0-155.0\",\"\",\"\",\"3-3\",\"4910\",\"40\",\"1\",\"Testing\",\"Stims/Figures/85-J-0-2.bmp\",\"mama:na\",\"Up\",\"40\",\"1\",\"7\",\"9\",\"S\",\"J\",\"7\"
\"\",\"\",\"approach-retreat\",\"156\",\"1492704\",\"0.0-156.0\",\"\",\"\",\"3-3\",\"4456\",\"39\",\"1\",\"Testing\",\"Stims/Figures/144-J-10-3.bmp\",\"sasaza\",\"Left\",\"39\",\"1\",\"8\",\"9\",\"C2\",\"J\",\"8\"
\"\",\"\",\"approach-retreat\",\"157\",\"1500074\",\"0.0-157.0\",\"\",\"\",\"3-3\",\"5864\",\"39\",\"1\",\"Testing\",\"Stims/Figures/84-C-20-2.bmp\",\"pakata\",\"Right\",\"39\",\"1\",\"9\",\"9\",\"P\",\"J\",\"9\"
\"\",\"\",\"approach-retreat\",\"158\",\"1506604\",\"0.0-158.0\",\"\",\"\",\"3-3\",\"5023\",\"40\",\"1\",\"Testing\",\"Stims/Figures/74-C-20-4.bmp\",\"za:haza\",\"Down\",\"40\",\"1\",\"10\",\"9\",\"C2\",\"J\",\"10\"
\"\",\"\",\"approach-retreat\",\"159\",\"1512933\",\"0.0-159.0\",\"\",\"\",\"3-3\",\"4821\",\"37\",\"1\",\"Testing\",\"Stims/Figures/57-C-30-1.bmp\",\"ta:ka:ka\",\"Left\",\"37\",\"1\",\"11\",\"9\",\"P\",\"J\",\"11\"
\"\",\"\",\"approach-retreat\",\"160\",\"1521392\",\"0.0-160.0\",\"\",\"\",\"3-3\",\"6951\",\"38\",\"1\",\"Testing\",\"Stims/Figures/7-C-20-4.bmp\",\"mamala\",\"Up\",\"38\",\"1\",\"12\",\"9\",\"S\",\"J\",\"12\"
\"\",\"\",\"approach-retreat\",\"161\",\"1527805\",\"0.0-161.0\",\"\",\"\",\"3-3\",\"4906\",\"37\",\"1\",\"Testing\",\"Stims/Figures/86-C-30-1.bmp\",\"pa:pa:ka\",\"Left\",\"37\",\"1\",\"13\",\"9\",\"P\",\"J\",\"13\"
\"\",\"\",\"approach-retreat\",\"162\",\"1534042\",\"0.0-162.0\",\"\",\"\",\"3-3\",\"4729\",\"39\",\"1\",\"Testing\",\"Stims/Figures/7-J-10-4.bmp\",\"na:lala\",\"Left\",\"39\",\"1\",\"14\",\"9\",\"S\",\"J\",\"14\"
\"\",\"\",\"approach-retreat\",\"163\",\"1541604\",\"0.0-163.0\",\"\",\"\",\"3-3\",\"6057\",\"37\",\"1\",\"Testing\",\"Stims/Figures/84-J-0-2.bmp\",\"pa:pata\",\"Right\",\"37\",\"1\",\"15\",\"9\",\"P\",\"J\",\"15\"
\"\",\"\",\"approach-retreat\",\"164\",\"1548900\",\"0.0-164.0\",\"\",\"\",\"3-3\",\"5788\",\"40\",\"1\",\"Testing\",\"Stims/Figures/27-J-0-1.bmp\",\"vafa:sha\",\"Up\",\"40\",\"1\",\"16\",\"9\",\"C1\",\"J\",\"16\"
\"\",\"\",\"approach-retreat\",\"165\",\"1555503\",\"0.0-165.0\",\"\",\"\",\"3-3\",\"5085\",\"40\",\"1\",\"Testing\",\"Stims/Figures/128-C-30-3.bmp\",\"mamana\",\"Down\",\"40\",\"1\",\"17\",\"9\",\"S\",\"J\",\"17\"
\"\",\"\",\"approach-retreat\",\"166\",\"1562150\",\"0.0-166.0\",\"\",\"\",\"3-3\",\"5139\",\"39\",\"1\",\"Testing\",\"Stims/Figures/27-C-30-1.bmp\",\"ma:mana\",\"Right\",\"39\",\"1\",\"18\",\"9\",\"S\",\"J\",\"18\"
\"\",\"\",\"approach-retreat\",\"167\",\"1568634\",\"0.0-167.0\",\"\",\"\",\"3-3\",\"4972\",\"39\",\"1\",\"Testing\",\"Stims/Figures/85-C-20-2.bmp\",\"fa:fava\",\"Right\",\"39\",\"1\",\"19\",\"9\",\"C1\",\"J\",\"19\"
\"\",\"\",\"approach-retreat\",\"168\",\"1580664\",\"0.0-168.0\",\"\",\"\",\"3-3\",\"10522\",\"40\",\"1\",\"Testing\",\"Stims/Figures/128-J-10-3.bmp\",\"va:sha:va\",\"Up\",\"40\",\"1\",\"20\",\"9\",\"C1\",\"J\",\"20\"
\"\",\"\",\"approach-retreat\",\"169\",\"1587691\",\"0.0-169.0\",\"\",\"\",\"3-3\",\"5521\",\"38\",\"1\",\"Testing\",\"Stims/Figures/19-C-20-4.bmp\",\"fafasha\",\"Up\",\"38\",\"1\",\"21\",\"9\",\"C1\",\"J\",\"21\"
\"\",\"\",\"approach-retreat\",\"170\",\"1594398\",\"0.0-170.0\",\"\",\"\",\"3-3\",\"5201\",\"40\",\"1\",\"Testing\",\"Stims/Figures/144-C-30-3.bmp\",\"fa:sha:va\",\"Down\",\"40\",\"1\",\"22\",\"9\",\"C1\",\"J\",\"22\"
\"\",\"\",\"approach-retreat\",\"171\",\"1600582\",\"0.0-171.0\",\"\",\"\",\"3-3\",\"4677\",\"39\",\"1\",\"Testing\",\"Stims/Figures/74-J-10-4.bmp\",\"ma:lana\",\"Left\",\"39\",\"1\",\"23\",\"9\",\"S\",\"J\",\"23\"
\"\",\"\",\"approach-retreat\",\"172\",\"1606792\",\"0.0-172.0\",\"\",\"\",\"3-3\",\"4703\",\"37\",\"1\",\"Testing\",\"Stims/Figures/139-C-20-2.bmp\",\"ma:la:na\",\"Left\",\"37\",\"1\",\"24\",\"9\",\"S\",\"J\",\"24\"
\"\",\"\",\"approach-retreat\",\"173\",\"1613391\",\"0.0-173.0\",\"\",\"\",\"3-3\",\"5093\",\"37\",\"1\",\"Testing\",\"Stims/Figures/128-J-10-3.bmp\",\"va:sha:va\",\"Right\",\"37\",\"2\",\"1\",\"9\",\"C1\",\"J\",\"25\"
\"\",\"\",\"approach-retreat\",\"174\",\"1626820\",\"0.0-174.0\",\"\",\"\",\"3-3\",\"11922\",\"37\",\"1\",\"Testing\",\"Stims/Figures/74-C-20-4.bmp\",\"za:haza\",\"Left\",\"37\",\"2\",\"2\",\"9\",\"C2\",\"J\",\"26\"
\"\",\"\",\"approach-retreat\",\"175\",\"1633806\",\"0.0-175.0\",\"\",\"\",\"3-3\",\"5478\",\"37\",\"1\",\"Testing\",\"Stims/Figures/100-J-10-3.bmp\",\"taka:ka\",\"Right\",\"37\",\"2\",\"3\",\"9\",\"P\",\"J\",\"27\"
\"\",\"\",\"approach-retreat\",\"176\",\"1640529\",\"0.0-176.0\",\"\",\"\",\"3-3\",\"5217\",\"40\",\"1\",\"Testing\",\"Stims/Figures/85-C-20-2.bmp\",\"fa:fava\",\"Down\",\"40\",\"2\",\"4\",\"9\",\"C1\",\"J\",\"28\"
\"\",\"\",\"approach-retreat\",\"177\",\"1646655\",\"0.0-177.0\",\"\",\"\",\"3-3\",\"4618\",\"40\",\"1\",\"Testing\",\"Stims/Figures/27-J-0-1.bmp\",\"vafa:sha\",\"Up\",\"40\",\"2\",\"5\",\"9\",\"C1\",\"J\",\"29\"
\"\",\"\",\"approach-retreat\",\"178\",\"1652712\",\"0.0-178.0\",\"\",\"\",\"3-3\",\"4550\",\"38\",\"1\",\"Testing\",\"Stims/Figures/19-J-10-4.bmp\",\"zasaha\",\"Down\",\"38\",\"2\",\"6\",\"9\",\"C2\",\"J\",\"30\"
\"\",\"\",\"approach-retreat\",\"179\",\"1659337\",\"0.0-179.0\",\"\",\"\",\"3-3\",\"5118\",\"40\",\"1\",\"Testing\",\"Stims/Figures/128-C-30-3.bmp\",\"mamana\",\"Down\",\"40\",\"2\",\"7\",\"9\",\"S\",\"J\",\"31\"
\"\",\"\",\"approach-retreat\",\"180\",\"1666007\",\"0.0-180.0\",\"\",\"\",\"3-3\",\"5164\",\"37\",\"1\",\"Testing\",\"Stims/Figures/7-J-10-4.bmp\",\"na:lala\",\"Right\",\"37\",\"2\",\"8\",\"9\",\"S\",\"J\",\"32\"
\"\",\"\",\"approach-retreat\",\"181\",\"1674319\",\"0.0-181.0\",\"\",\"\",\"3-3\",\"6803\",\"38\",\"1\",\"Testing\",\"Stims/Figures/139-C-20-2.bmp\",\"ma:la:na\",\"Up\",\"38\",\"2\",\"9\",\"9\",\"S\",\"J\",\"33\"
\"\",\"\",\"approach-retreat\",\"182\",\"1680719\",\"0.0-182.0\",\"\",\"\",\"3-3\",\"4893\",\"39\",\"1\",\"Testing\",\"Stims/Figures/84-J-0-2.bmp\",\"pa:pata\",\"Left\",\"39\",\"2\",\"10\",\"9\",\"P\",\"J\",\"34\"
\"\",\"\",\"approach-retreat\",\"183\",\"1688722\",\"0.0-183.0\",\"\",\"\",\"3-3\",\"6495\",\"37\",\"1\",\"Testing\",\"Stims/Figures/27-C-30-1.bmp\",\"ma:mana\",\"Left\",\"37\",\"2\",\"11\",\"9\",\"S\",\"J\",\"35\"
\"\",\"\",\"approach-retreat\",\"184\",\"1695281\",\"0.0-184.0\",\"\",\"\",\"3-3\",\"5051\",\"37\",\"1\",\"Testing\",\"Stims/Figures/86-C-30-1.bmp\",\"pa:pa:ka\",\"Left\",\"37\",\"2\",\"12\",\"9\",\"P\",\"J\",\"36\"
\"\",\"\",\"approach-retreat\",\"185\",\"1701250\",\"0.0-185.0\",\"\",\"\",\"3-3\",\"4451\",\"37\",\"1\",\"Testing\",\"Stims/Figures/85-J-0-2.bmp\",\"mama:na\",\"Right\",\"37\",\"2\",\"13\",\"9\",\"S\",\"J\",\"37\"
\"\",\"\",\"approach-retreat\",\"186\",\"1707752\",\"0.0-186.0\",\"\",\"\",\"3-3\",\"4995\",\"37\",\"1\",\"Testing\",\"Stims/Figures/57-C-30-1.bmp\",\"ta:ka:ka\",\"Left\",\"37\",\"2\",\"14\",\"9\",\"P\",\"J\",\"38\"
\"\",\"\",\"approach-retreat\",\"187\",\"1714457\",\"0.0-187.0\",\"\",\"\",\"3-3\",\"5200\",\"38\",\"1\",\"Testing\",\"Stims/Figures/144-C-30-3.bmp\",\"fa:sha:va\",\"Up\",\"38\",\"2\",\"15\",\"9\",\"C1\",\"J\",\"39\"
\"\",\"\",\"approach-retreat\",\"188\",\"1720371\",\"0.0-188.0\",\"\",\"\",\"3-3\",\"4406\",\"37\",\"1\",\"Testing\",\"Stims/Figures/7-C-20-4.bmp\",\"mamala\",\"Left\",\"37\",\"2\",\"16\",\"9\",\"S\",\"J\",\"40\"
\"\",\"\",\"approach-retreat\",\"189\",\"1726257\",\"0.0-189.0\",\"\",\"\",\"3-3\",\"4379\",\"40\",\"1\",\"Testing\",\"Stims/Figures/84-C-20-2.bmp\",\"pakata\",\"Down\",\"40\",\"2\",\"17\",\"9\",\"P\",\"J\",\"41\"
\"\",\"\",\"approach-retreat\",\"190\",\"1733214\",\"0.0-190.0\",\"\",\"\",\"3-3\",\"5451\",\"40\",\"1\",\"Testing\",\"Stims/Figures/57-J-0-1.bmp\",\"tapa:ta\",\"Up\",\"40\",\"2\",\"18\",\"9\",\"P\",\"J\",\"42\"
\"\",\"\",\"approach-retreat\",\"191\",\"1739316\",\"0.0-191.0\",\"\",\"\",\"3-3\",\"4593\",\"39\",\"1\",\"Testing\",\"Stims/Figures/100-C-30-3.bmp\",\"takata\",\"Right\",\"39\",\"2\",\"19\",\"9\",\"P\",\"J\",\"43\"
\"\",\"\",\"approach-retreat\",\"192\",\"1752168\",\"0.0-192.0\",\"\",\"\",\"3-3\",\"11346\",\"40\",\"1\",\"Testing\",\"Stims/Figures/19-C-20-4.bmp\",\"fafasha\",\"Down\",\"40\",\"2\",\"20\",\"9\",\"C1\",\"J\",\"44\"
\"\",\"\",\"approach-retreat\",\"193\",\"1759400\",\"0.0-193.0\",\"\",\"\",\"3-3\",\"5724\",\"38\",\"1\",\"Testing\",\"Stims/Figures/86-J-0-1.bmp\",\"paka:ka\",\"Down\",\"38\",\"2\",\"21\",\"9\",\"P\",\"J\",\"45\"
\"\",\"\",\"approach-retreat\",\"194\",\"1776339\",\"0.0-194.0\",\"\",\"\",\"3-3\",\"15431\",\"38\",\"0\",\"Testing\",\"Stims/Figures/144-J-10-3.bmp\",\"sasaza\",\"Up\",\"40\",\"2\",\"22\",\"9\",\"C2\",\"J\",\"46\"
\"\",\"\",\"approach-retreat\",\"195\",\"1789378\",\"0.0-195.0\",\"\",\"\",\"3-3\",\"11533\",\"40\",\"1\",\"Testing\",\"Stims/Figures/74-J-10-4.bmp\",\"ma:lana\",\"Up\",\"40\",\"2\",\"23\",\"9\",\"S\",\"J\",\"47\"
\"\",\"\",\"approach-retreat\",\"196\",\"1797190\",\"0.0-196.0\",\"\",\"\",\"3-3\",\"6305\",\"37\",\"1\",\"Testing\",\"Stims/Figures/139-J-0-2.bmp\",\"sasa:ha\",\"Right\",\"37\",\"2\",\"24\",\"9\",\"C2\",\"J\",\"48\"
\"\",\"\",\"approach-retreat\",\"197\",\"1808457\",\"0.0-197.0\",\"\",\"\",\"3-3\",\"9760\",\"40\",\"1\",\"Testing\",\"Stims/Figures/144-C-30-3.bmp\",\"fa:sha:va\",\"Down\",\"40\",\"3\",\"1\",\"9\",\"C1\",\"J\",\"49\"
\"\",\"\",\"approach-retreat\",\"198\",\"1818161\",\"0.0-198.0\",\"\",\"\",\"3-3\",\"8198\",\"38\",\"1\",\"Testing\",\"Stims/Figures/84-C-20-2.bmp\",\"pakata\",\"Up\",\"38\",\"3\",\"2\",\"9\",\"P\",\"J\",\"50\"
\"\",\"\",\"approach-retreat\",\"199\",\"1827921\",\"0.0-199.0\",\"\",\"\",\"3-3\",\"8252\",\"38\",\"1\",\"Testing\",\"Stims/Figures/139-C-20-2.bmp\",\"ma:la:na\",\"Up\",\"38\",\"3\",\"3\",\"9\",\"S\",\"J\",\"51\"
\"\",\"\",\"approach-retreat\",\"200\",\"1835386\",\"0.0-200.0\",\"\",\"\",\"3-3\",\"5958\",\"38\",\"1\",\"Testing\",\"Stims/Figures/27-J-0-1.bmp\",\"vafa:sha\",\"Down\",\"38\",\"3\",\"4\",\"9\",\"C1\",\"J\",\"52\"
\"\",\"\",\"approach-retreat\",\"201\",\"1844397\",\"0.0-201.0\",\"\",\"\",\"3-3\",\"7505\",\"37\",\"1\",\"Testing\",\"Stims/Figures/128-J-10-3.bmp\",\"va:sha:va\",\"Right\",\"37\",\"3\",\"5\",\"9\",\"C1\",\"J\",\"53\"
\"\",\"\",\"approach-retreat\",\"202\",\"1853441\",\"0.0-202.0\",\"\",\"\",\"3-3\",\"7537\",\"40\",\"1\",\"Testing\",\"Stims/Figures/19-J-10-4.bmp\",\"zasaha\",\"Up\",\"40\",\"3\",\"6\",\"9\",\"C2\",\"J\",\"54\"
\"\",\"\",\"approach-retreat\",\"203\",\"1859898\",\"0.0-203.0\",\"\",\"\",\"3-3\",\"4950\",\"37\",\"1\",\"Testing\",\"Stims/Figures/57-J-0-1.bmp\",\"tapa:ta\",\"Right\",\"37\",\"3\",\"7\",\"9\",\"P\",\"J\",\"55\"
\"\",\"\",\"approach-retreat\",\"204\",\"1867463\",\"0.0-204.0\",\"\",\"\",\"3-3\",\"6058\",\"40\",\"1\",\"Testing\",\"Stims/Figures/27-C-30-1.bmp\",\"ma:mana\",\"Down\",\"40\",\"3\",\"8\",\"9\",\"S\",\"J\",\"56\"
\"\",\"\",\"approach-retreat\",\"205\",\"1873736\",\"0.0-205.0\",\"\",\"\",\"3-3\",\"4767\",\"39\",\"1\",\"Testing\",\"Stims/Figures/84-J-0-2.bmp\",\"pa:pata\",\"Left\",\"39\",\"3\",\"9\",\"9\",\"P\",\"J\",\"57\"
\"\",\"\",\"approach-retreat\",\"206\",\"1880660\",\"0.0-206.0\",\"\",\"\",\"3-3\",\"5416\",\"37\",\"1\",\"Testing\",\"Stims/Figures/100-C-30-3.bmp\",\"takata\",\"Left\",\"37\",\"3\",\"10\",\"9\",\"P\",\"J\",\"58\"
\"\",\"\",\"approach-retreat\",\"207\",\"1887207\",\"0.0-207.0\",\"\",\"\",\"3-3\",\"5040\",\"40\",\"1\",\"Testing\",\"Stims/Figures/128-C-30-3.bmp\",\"mamana\",\"Down\",\"40\",\"3\",\"11\",\"9\",\"S\",\"J\",\"59\"
\"\",\"\",\"approach-retreat\",\"208\",\"1898048\",\"0.0-208.0\",\"\",\"\",\"3-3\",\"9334\",\"37\",\"1\",\"Testing\",\"Stims/Figures/139-J-0-2.bmp\",\"sasa:ha\",\"Right\",\"37\",\"3\",\"12\",\"9\",\"C2\",\"J\",\"60\"
\"\",\"\",\"approach-retreat\",\"209\",\"1906353\",\"0.0-209.0\",\"\",\"\",\"3-3\",\"6797\",\"38\",\"1\",\"Testing\",\"Stims/Figures/19-C-20-4.bmp\",\"fafasha\",\"Up\",\"38\",\"3\",\"13\",\"9\",\"C1\",\"J\",\"61\"
\"\",\"\",\"approach-retreat\",\"210\",\"1915286\",\"0.0-210.0\",\"\",\"\",\"3-3\",\"7427\",\"39\",\"1\",\"Testing\",\"Stims/Figures/74-J-10-4.bmp\",\"ma:lana\",\"Left\",\"39\",\"3\",\"14\",\"9\",\"S\",\"J\",\"62\"
\"\",\"\",\"approach-retreat\",\"211\",\"1923861\",\"0.0-211.0\",\"\",\"\",\"3-3\",\"7068\",\"40\",\"1\",\"Testing\",\"Stims/Figures/86-J-0-1.bmp\",\"paka:ka\",\"Up\",\"40\",\"3\",\"15\",\"9\",\"P\",\"J\",\"63\"
\"\",\"\",\"approach-retreat\",\"212\",\"1930362\",\"0.0-212.0\",\"\",\"\",\"3-3\",\"4994\",\"39\",\"1\",\"Testing\",\"Stims/Figures/85-J-0-2.bmp\",\"mama:na\",\"Left\",\"39\",\"3\",\"16\",\"9\",\"S\",\"J\",\"64\"
\"\",\"\",\"approach-retreat\",\"213\",\"1937850\",\"0.0-213.0\",\"\",\"\",\"3-3\",\"5983\",\"39\",\"1\",\"Testing\",\"Stims/Figures/86-C-30-1.bmp\",\"pa:pa:ka\",\"Right\",\"39\",\"3\",\"17\",\"9\",\"P\",\"J\",\"65\"
\"\",\"\",\"approach-retreat\",\"214\",\"1944076\",\"0.0-214.0\",\"\",\"\",\"3-3\",\"4719\",\"39\",\"1\",\"Testing\",\"Stims/Figures/57-C-30-1.bmp\",\"ta:ka:ka\",\"Right\",\"39\",\"3\",\"18\",\"9\",\"P\",\"J\",\"66\"
\"\",\"\",\"approach-retreat\",\"215\",\"1951381\",\"0.0-215.0\",\"\",\"\",\"3-3\",\"5797\",\"39\",\"1\",\"Testing\",\"Stims/Figures/144-J-10-3.bmp\",\"sasaza\",\"Left\",\"39\",\"3\",\"19\",\"9\",\"C2\",\"J\",\"67\"
\"\",\"\",\"approach-retreat\",\"216\",\"1959461\",\"0.0-216.0\",\"\",\"\",\"3-3\",\"6574\",\"37\",\"1\",\"Testing\",\"Stims/Figures/85-C-20-2.bmp\",\"fa:fava\",\"Left\",\"37\",\"3\",\"20\",\"9\",\"C1\",\"J\",\"68\"
\"\",\"\",\"approach-retreat\",\"217\",\"1966531\",\"0.0-217.0\",\"\",\"\",\"3-3\",\"5563\",\"38\",\"1\",\"Testing\",\"Stims/Figures/7-J-10-4.bmp\",\"na:lala\",\"Down\",\"38\",\"3\",\"21\",\"9\",\"S\",\"J\",\"69\"
\"\",\"\",\"approach-retreat\",\"218\",\"1975886\",\"0.0-218.0\",\"\",\"\",\"3-3\",\"7848\",\"38\",\"1\",\"Testing\",\"Stims/Figures/74-C-20-4.bmp\",\"za:haza\",\"Up\",\"38\",\"3\",\"22\",\"9\",\"C2\",\"J\",\"70\"
\"\",\"\",\"approach-retreat\",\"219\",\"1984598\",\"0.0-219.0\",\"\",\"\",\"3-3\",\"7206\",\"37\",\"0\",\"Testing\",\"Stims/Figures/7-C-20-4.bmp\",\"mamala\",\"Right\",\"39\",\"3\",\"23\",\"9\",\"S\",\"J\",\"71\"
\"\",\"\",\"approach-retreat\",\"220\",\"1990976\",\"0.0-220.0\",\"\",\"\",\"3-3\",\"4870\",\"38\",\"1\",\"Testing\",\"Stims/Figures/100-J-10-3.bmp\",\"taka:ka\",\"Down\",\"38\",\"3\",\"24\",\"9\",\"P\",\"J\",\"72\"
\"\",\"\",\"approach-retreat\",\"221\",\"1997878\",\"0.0-221.0\",\"\",\"\",\"3-3\",\"5395\",\"37\",\"1\",\"Testing\",\"Stims/Figures/27-J-0-1.bmp\",\"vafa:sha\",\"Right\",\"37\",\"4\",\"1\",\"9\",\"C1\",\"J\",\"73\"
\"\",\"\",\"approach-retreat\",\"222\",\"2003966\",\"0.0-222.0\",\"\",\"\",\"3-3\",\"4582\",\"38\",\"1\",\"Testing\",\"Stims/Figures/139-J-0-2.bmp\",\"sasa:ha\",\"Down\",\"38\",\"4\",\"2\",\"9\",\"C2\",\"J\",\"74\"
\"\",\"\",\"approach-retreat\",\"223\",\"2011587\",\"0.0-223.0\",\"\",\"\",\"3-3\",\"6114\",\"40\",\"1\",\"Testing\",\"Stims/Figures/57-C-30-1.bmp\",\"ta:ka:ka\",\"Down\",\"40\",\"4\",\"3\",\"9\",\"P\",\"J\",\"75\"
\"\",\"\",\"approach-retreat\",\"224\",\"2018849\",\"0.0-224.0\",\"\",\"\",\"3-3\",\"5756\",\"38\",\"1\",\"Testing\",\"Stims/Figures/144-C-30-3.bmp\",\"fa:sha:va\",\"Up\",\"38\",\"4\",\"4\",\"9\",\"C1\",\"J\",\"76\"
\"\",\"\",\"approach-retreat\",\"225\",\"2027082\",\"0.0-225.0\",\"\",\"\",\"3-3\",\"6726\",\"38\",\"1\",\"Testing\",\"Stims/Figures/85-C-20-2.bmp\",\"fa:fava\",\"Up\",\"38\",\"4\",\"5\",\"9\",\"C1\",\"J\",\"77\"
\"\",\"\",\"approach-retreat\",\"226\",\"2034869\",\"0.0-226.0\",\"\",\"\",\"3-3\",\"6284\",\"39\",\"1\",\"Testing\",\"Stims/Figures/85-J-0-2.bmp\",\"mama:na\",\"Left\",\"39\",\"4\",\"6\",\"9\",\"S\",\"J\",\"78\"
\"\",\"\",\"approach-retreat\",\"227\",\"2043890\",\"0.0-227.0\",\"\",\"\",\"3-3\",\"7514\",\"38\",\"1\",\"Testing\",\"Stims/Figures/84-C-20-2.bmp\",\"pakata\",\"Up\",\"38\",\"4\",\"7\",\"9\",\"P\",\"J\",\"79\"
\"\",\"\",\"approach-retreat\",\"228\",\"2051824\",\"0.0-228.0\",\"\",\"\",\"3-3\",\"6425\",\"39\",\"1\",\"Testing\",\"Stims/Figures/100-J-10-3.bmp\",\"taka:ka\",\"Left\",\"39\",\"4\",\"8\",\"9\",\"P\",\"J\",\"80\"
\"\",\"\",\"approach-retreat\",\"229\",\"2058810\",\"0.0-229.0\",\"\",\"\",\"3-3\",\"5479\",\"38\",\"1\",\"Testing\",\"Stims/Figures/86-J-0-1.bmp\",\"paka:ka\",\"Down\",\"38\",\"4\",\"9\",\"9\",\"P\",\"J\",\"81\"
\"\",\"\",\"approach-retreat\",\"230\",\"2066494\",\"0.0-230.0\",\"\",\"\",\"3-3\",\"6177\",\"37\",\"1\",\"Testing\",\"Stims/Figures/57-J-0-1.bmp\",\"tapa:ta\",\"Right\",\"37\",\"4\",\"10\",\"9\",\"P\",\"J\",\"82\"
\"\",\"\",\"approach-retreat\",\"231\",\"2079292\",\"0.0-231.0\",\"\",\"\",\"3-3\",\"11291\",\"38\",\"1\",\"Testing\",\"Stims/Figures/128-C-30-3.bmp\",\"mamana\",\"Up\",\"38\",\"4\",\"11\",\"9\",\"S\",\"J\",\"83\"
\"\",\"\",\"approach-retreat\",\"232\",\"2088303\",\"0.0-232.0\",\"\",\"\",\"3-3\",\"7504\",\"37\",\"1\",\"Testing\",\"Stims/Figures/84-J-0-2.bmp\",\"pa:pata\",\"Right\",\"37\",\"4\",\"12\",\"9\",\"P\",\"J\",\"84\"
\"\",\"\",\"approach-retreat\",\"233\",\"2095114\",\"0.0-233.0\",\"\",\"\",\"3-3\",\"5304\",\"37\",\"1\",\"Testing\",\"Stims/Figures/7-J-10-4.bmp\",\"na:lala\",\"Right\",\"37\",\"4\",\"13\",\"9\",\"S\",\"J\",\"85\"
\"\",\"\",\"approach-retreat\",\"234\",\"2101776\",\"0.0-234.0\",\"\",\"\",\"3-3\",\"5155\",\"38\",\"1\",\"Testing\",\"Stims/Figures/74-C-20-4.bmp\",\"za:haza\",\"Up\",\"38\",\"4\",\"14\",\"9\",\"C2\",\"J\",\"86\"
\"\",\"\",\"approach-retreat\",\"235\",\"2110328\",\"0.0-235.0\",\"\",\"\",\"3-3\",\"7045\",\"37\",\"1\",\"Testing\",\"Stims/Figures/86-C-30-1.bmp\",\"pa:pa:ka\",\"Left\",\"37\",\"4\",\"15\",\"9\",\"P\",\"J\",\"87\"
\"\",\"\",\"approach-retreat\",\"236\",\"2117761\",\"0.0-236.0\",\"\",\"\",\"3-3\",\"5926\",\"37\",\"1\",\"Testing\",\"Stims/Figures/139-C-20-2.bmp\",\"ma:la:na\",\"Left\",\"37\",\"4\",\"16\",\"9\",\"S\",\"J\",\"88\"
\"\",\"\",\"approach-retreat\",\"237\",\"2124064\",\"0.0-237.0\",\"\",\"\",\"3-3\",\"4796\",\"39\",\"1\",\"Testing\",\"Stims/Figures/19-C-20-4.bmp\",\"fafasha\",\"Right\",\"39\",\"4\",\"17\",\"9\",\"C1\",\"J\",\"89\"
\"\",\"\",\"approach-retreat\",\"238\",\"2130520\",\"0.0-238.0\",\"\",\"\",\"3-3\",\"4950\",\"39\",\"1\",\"Testing\",\"Stims/Figures/144-J-10-3.bmp\",\"sasaza\",\"Left\",\"39\",\"4\",\"18\",\"9\",\"C2\",\"J\",\"90\"
\"\",\"\",\"approach-retreat\",\"239\",\"2137030\",\"0.0-239.0\",\"\",\"\",\"3-3\",\"5004\",\"37\",\"1\",\"Testing\",\"Stims/Figures/74-J-10-4.bmp\",\"ma:lana\",\"Right\",\"37\",\"4\",\"19\",\"9\",\"S\",\"J\",\"91\"
\"\",\"\",\"approach-retreat\",\"240\",\"2143312\",\"0.0-240.0\",\"\",\"\",\"3-3\",\"4775\",\"40\",\"1\",\"Testing\",\"Stims/Figures/27-C-30-1.bmp\",\"ma:mana\",\"Down\",\"40\",\"4\",\"20\",\"9\",\"S\",\"J\",\"92\"
\"\",\"\",\"approach-retreat\",\"241\",\"2151225\",\"0.0-241.0\",\"\",\"\",\"3-3\",\"6407\",\"40\",\"1\",\"Testing\",\"Stims/Figures/100-C-30-3.bmp\",\"takata\",\"Down\",\"40\",\"4\",\"21\",\"9\",\"P\",\"J\",\"93\"
\"\",\"\",\"approach-retreat\",\"242\",\"2160395\",\"0.0-242.0\",\"\",\"\",\"3-3\",\"7663\",\"40\",\"0\",\"Testing\",\"Stims/Figures/7-C-20-4.bmp\",\"mamala\",\"Up\",\"38\",\"4\",\"22\",\"9\",\"S\",\"J\",\"94\"
\"\",\"\",\"approach-retreat\",\"243\",\"2166658\",\"0.0-243.0\",\"\",\"\",\"3-3\",\"4757\",\"39\",\"1\",\"Testing\",\"Stims/Figures/19-J-10-4.bmp\",\"zasaha\",\"Left\",\"39\",\"4\",\"23\",\"9\",\"C2\",\"J\",\"95\"
\"\",\"\",\"approach-retreat\",\"244\",\"2176694\",\"0.0-244.0\",\"\",\"\",\"3-3\",\"8531\",\"38\",\"1\",\"Testing\",\"Stims/Figures/128-J-10-3.bmp\",\"va:sha:va\",\"Down\",\"38\",\"4\",\"24\",\"9\",\"C1\",\"J\",\"96\"
\"20109\",\"\",\"survey-text\",\"245\",\"2196811\",\"0.0-245.0\",\"\",\"{\"\"Q0\"\":\"\"PS160080\"\"}\",\"\",\"\",\"\",\"\",\"\",\"\",\"\",\"\",\"\",\"\",\"\",\"\",\"\",\"\",\"\"
