\"rt\",\"key_press\",\"trial_type\",\"trial_index\",\"time_elapsed\",\"internal_node_id\",\"view_history\",\"responses\",\"Id\",\"Rt\",\"ResKeyCode\",\"ResCorr\",\"TrialType2\",\"Image\",\"Label\",\"Location\",\"CorrectResponse\",\"Block\",\"BlockTrial\",\"Condition\",\"LabelType\",\"Subcondition\",\"trialNum\"
\"137042\",\"32\",\"text\",\"0\",\"137048\",\"0.0-0.0-0.0\",\"\",\"\",\"\",\"\",\"\",\"\",\"\",\"\",\"\",\"\",\"\",\"\",\"\",\"\",\"\",\"\",\"\"
\"80521\",\"\",\"instructions\",\"1\",\"217573\",\"0.0-1.0\",\"[{\"\"page_index\"\":0,\"\"viewing_time\"\":80518}]\",\"\",\"\",\"\",\"\",\"\",\"\",\"\",\"\",\"\",\"\",\"\",\"\",\"\",\"\",\"\",\"\"
\"35536\",\"\",\"survey-multi-choice\",\"2\",\"253157\",\"0.0-2.0\",\"\",\"{\"\"Q0\"\":\"\"Da\"\",\"\"Q1\"\":\"\"Da\"\",\"\"Q2\"\":\"\"Da\"\",\"\"Q3\"\":\"\"Da\"\",\"\"Q4\"\":\"\"Da\"\",\"\"Q5\"\":\"\"Da\"\"}\",\"\",\"\",\"\",\"\",\"\",\"\",\"\",\"\",\"\",\"\",\"\",\"\",\"\",\"\",\"\"
\"\",\"\",\"bio\",\"3\",\"262183\",\"0.0-3.0\",\"\",\"{\"\"age\"\":\"\"19\"\",\"\"gender\"\":\"\"m\"\",\"\"specify\"\":\"\"\"\"}\",\"\",\"\",\"\",\"\",\"\",\"\",\"\",\"\",\"\",\"\",\"\",\"\",\"\",\"\",\"\"
\"\",\"\",\"approach-retreat\",\"4\",\"272992\",\"0.0-4.0\",\"\",\"\",\"2-5\",\"9292\",\"38\",\"0\",\"Training\",\"Stims/Figures/71-C-30-1.bmp\",\"fa:fa:va\",\"Down\",\"40\",\"1\",\"1\",\"8\",\"C1\",\"J\",\"1\"
\"\",\"\",\"approach-retreat\",\"5\",\"283887\",\"0.0-5.0\",\"\",\"\",\"2-5\",\"9380\",\"37\",\"1\",\"Training\",\"Stims/Figures/71-J-0-1.bmp\",\"fa:fa:sha\",\"Right\",\"37\",\"1\",\"2\",\"8\",\"C1\",\"J\",\"2\"
\"\",\"\",\"approach-retreat\",\"6\",\"291013\",\"0.0-6.0\",\"\",\"\",\"2-5\",\"5616\",\"38\",\"0\",\"Training\",\"Stims/Figures/19-C-20-4.bmp\",\"zasa:za\",\"Down\",\"40\",\"1\",\"3\",\"8\",\"C2\",\"J\",\"3\"
\"\",\"\",\"approach-retreat\",\"7\",\"299966\",\"0.0-7.0\",\"\",\"\",\"2-5\",\"7441\",\"40\",\"1\",\"Training\",\"Stims/Figures/85-J-0-2.bmp\",\"fasha:va\",\"Up\",\"40\",\"1\",\"4\",\"8\",\"C1\",\"J\",\"4\"
\"\",\"\",\"approach-retreat\",\"8\",\"307797\",\"0.0-8.0\",\"\",\"\",\"2-5\",\"6318\",\"37\",\"1\",\"Training\",\"Stims/Figures/111-C-30-3.bmp\",\"sa:sa:ha\",\"Left\",\"37\",\"1\",\"5\",\"8\",\"C2\",\"J\",\"5\"
\"\",\"\",\"approach-retreat\",\"9\",\"314615\",\"0.0-9.0\",\"\",\"\",\"2-5\",\"5306\",\"37\",\"1\",\"Training\",\"Stims/Figures/27-J-0-1.bmp\",\"vafa:sha\",\"Right\",\"37\",\"1\",\"6\",\"8\",\"C1\",\"J\",\"6\"
\"\",\"\",\"approach-retreat\",\"10\",\"321117\",\"0.0-10.0\",\"\",\"\",\"2-5\",\"4990\",\"37\",\"1\",\"Training\",\"Stims/Figures/74-C-20-4.bmp\",\"za:ha:ha\",\"Left\",\"37\",\"1\",\"7\",\"8\",\"C2\",\"J\",\"7\"
\"\",\"\",\"approach-retreat\",\"11\",\"327984\",\"0.0-11.0\",\"\",\"\",\"2-5\",\"5354\",\"40\",\"0\",\"Training\",\"Stims/Figures/111-J-10-3.bmp\",\"za:saha\",\"Down\",\"38\",\"1\",\"8\",\"8\",\"C2\",\"J\",\"8\"
\"\",\"\",\"approach-retreat\",\"12\",\"334229\",\"0.0-12.0\",\"\",\"\",\"2-5\",\"4727\",\"40\",\"1\",\"Training\",\"Stims/Figures/144-C-30-3.bmp\",\"zasaza\",\"Down\",\"40\",\"1\",\"9\",\"8\",\"C2\",\"J\",\"9\"
\"\",\"\",\"approach-retreat\",\"13\",\"340862\",\"0.0-13.0\",\"\",\"\",\"2-5\",\"5122\",\"38\",\"0\",\"Training\",\"Stims/Figures/74-J-10-4.bmp\",\"zasaha\",\"Up\",\"40\",\"1\",\"10\",\"8\",\"C2\",\"J\",\"10\"
\"\",\"\",\"approach-retreat\",\"14\",\"348267\",\"0.0-14.0\",\"\",\"\",\"2-5\",\"5893\",\"37\",\"0\",\"Training\",\"Stims/Figures/144-J-10-3.bmp\",\"sa:saza\",\"Left\",\"39\",\"1\",\"11\",\"8\",\"C2\",\"J\",\"11\"
\"\",\"\",\"approach-retreat\",\"15\",\"355325\",\"0.0-15.0\",\"\",\"\",\"2-5\",\"5546\",\"38\",\"1\",\"Training\",\"Stims/Figures/27-C-30-1.bmp\",\"fa:sha:va\",\"Up\",\"38\",\"1\",\"12\",\"8\",\"C1\",\"J\",\"12\"
\"\",\"\",\"approach-retreat\",\"16\",\"363710\",\"0.0-16.0\",\"\",\"\",\"2-5\",\"6873\",\"37\",\"1\",\"Training\",\"Stims/Figures/94-J-0-2.bmp\",\"fafa:sha\",\"Right\",\"37\",\"1\",\"13\",\"8\",\"C1\",\"J\",\"13\"
\"\",\"\",\"approach-retreat\",\"17\",\"371471\",\"0.0-17.0\",\"\",\"\",\"2-5\",\"6249\",\"39\",\"1\",\"Training\",\"Stims/Figures/19-J-10-4.bmp\",\"za:ha:za\",\"Left\",\"39\",\"1\",\"14\",\"8\",\"C2\",\"J\",\"14\"
\"\",\"\",\"approach-retreat\",\"18\",\"378204\",\"0.0-18.0\",\"\",\"\",\"2-5\",\"5222\",\"40\",\"0\",\"Training\",\"Stims/Figures/94-C-20-2.bmp\",\"va:fa:va\",\"Up\",\"38\",\"1\",\"15\",\"8\",\"C1\",\"J\",\"15\"
\"\",\"\",\"approach-retreat\",\"19\",\"386853\",\"0.0-19.0\",\"\",\"\",\"2-5\",\"7138\",\"39\",\"1\",\"Training\",\"Stims/Figures/85-C-20-2.bmp\",\"fafava\",\"Right\",\"39\",\"1\",\"16\",\"8\",\"C1\",\"J\",\"16\"
\"\",\"\",\"approach-retreat\",\"20\",\"393877\",\"0.0-20.0\",\"\",\"\",\"2-5\",\"5512\",\"38\",\"1\",\"Training\",\"Stims/Figures/71-C-30-1.bmp\",\"fa:fa:va\",\"Up\",\"38\",\"2\",\"1\",\"8\",\"C1\",\"J\",\"17\"
\"\",\"\",\"approach-retreat\",\"21\",\"399853\",\"0.0-21.0\",\"\",\"\",\"2-5\",\"4465\",\"40\",\"0\",\"Training\",\"Stims/Figures/27-C-30-1.bmp\",\"fa:sha:va\",\"Up\",\"38\",\"2\",\"2\",\"8\",\"C1\",\"J\",\"18\"
\"\",\"\",\"approach-retreat\",\"22\",\"406830\",\"0.0-22.0\",\"\",\"\",\"2-5\",\"5464\",\"39\",\"0\",\"Training\",\"Stims/Figures/74-J-10-4.bmp\",\"zasaha\",\"Right\",\"37\",\"2\",\"3\",\"8\",\"C2\",\"J\",\"19\"
\"\",\"\",\"approach-retreat\",\"23\",\"414431\",\"0.0-23.0\",\"\",\"\",\"2-5\",\"6089\",\"39\",\"1\",\"Training\",\"Stims/Figures/144-J-10-3.bmp\",\"sa:saza\",\"Left\",\"39\",\"2\",\"4\",\"8\",\"C2\",\"J\",\"20\"
\"\",\"\",\"approach-retreat\",\"24\",\"421564\",\"0.0-24.0\",\"\",\"\",\"2-5\",\"5621\",\"38\",\"1\",\"Training\",\"Stims/Figures/19-C-20-4.bmp\",\"zasa:za\",\"Up\",\"38\",\"2\",\"5\",\"8\",\"C2\",\"J\",\"21\"
\"\",\"\",\"approach-retreat\",\"25\",\"430671\",\"0.0-25.0\",\"\",\"\",\"2-5\",\"7593\",\"38\",\"1\",\"Training\",\"Stims/Figures/85-J-0-2.bmp\",\"fasha:va\",\"Down\",\"38\",\"2\",\"6\",\"8\",\"C1\",\"J\",\"22\"
\"\",\"\",\"approach-retreat\",\"26\",\"437542\",\"0.0-26.0\",\"\",\"\",\"2-5\",\"5359\",\"40\",\"0\",\"Training\",\"Stims/Figures/94-J-0-2.bmp\",\"fafa:sha\",\"Down\",\"38\",\"2\",\"7\",\"8\",\"C1\",\"J\",\"23\"
\"\",\"\",\"approach-retreat\",\"27\",\"447070\",\"0.0-27.0\",\"\",\"\",\"2-5\",\"8017\",\"39\",\"0\",\"Training\",\"Stims/Figures/111-C-30-3.bmp\",\"sa:sa:ha\",\"Left\",\"37\",\"2\",\"8\",\"8\",\"C2\",\"J\",\"24\"
\"\",\"\",\"approach-retreat\",\"28\",\"453389\",\"0.0-28.0\",\"\",\"\",\"2-5\",\"4807\",\"37\",\"0\",\"Training\",\"Stims/Figures/85-C-20-2.bmp\",\"fafava\",\"Right\",\"39\",\"2\",\"9\",\"8\",\"C1\",\"J\",\"25\"
\"\",\"\",\"approach-retreat\",\"29\",\"460294\",\"0.0-29.0\",\"\",\"\",\"2-5\",\"5393\",\"38\",\"0\",\"Training\",\"Stims/Figures/27-J-0-1.bmp\",\"vafa:sha\",\"Up\",\"40\",\"2\",\"10\",\"8\",\"C1\",\"J\",\"26\"
\"\",\"\",\"approach-retreat\",\"30\",\"469044\",\"0.0-30.0\",\"\",\"\",\"2-5\",\"7239\",\"40\",\"0\",\"Training\",\"Stims/Figures/19-J-10-4.bmp\",\"za:ha:za\",\"Down\",\"38\",\"2\",\"11\",\"8\",\"C2\",\"J\",\"27\"
\"\",\"\",\"approach-retreat\",\"31\",\"475629\",\"0.0-31.0\",\"\",\"\",\"2-5\",\"5073\",\"40\",\"0\",\"Training\",\"Stims/Figures/71-J-0-1.bmp\",\"fa:fa:sha\",\"Down\",\"38\",\"2\",\"12\",\"8\",\"C1\",\"J\",\"28\"
\"\",\"\",\"approach-retreat\",\"32\",\"488646\",\"0.0-32.0\",\"\",\"\",\"2-5\",\"11506\",\"39\",\"1\",\"Training\",\"Stims/Figures/144-C-30-3.bmp\",\"zasaza\",\"Right\",\"39\",\"2\",\"13\",\"8\",\"C2\",\"J\",\"29\"
\"\",\"\",\"approach-retreat\",\"33\",\"496308\",\"0.0-33.0\",\"\",\"\",\"2-5\",\"6149\",\"37\",\"0\",\"Training\",\"Stims/Figures/111-J-10-3.bmp\",\"za:saha\",\"Left\",\"39\",\"2\",\"14\",\"8\",\"C2\",\"J\",\"30\"
\"\",\"\",\"approach-retreat\",\"34\",\"502829\",\"0.0-34.0\",\"\",\"\",\"2-5\",\"5009\",\"39\",\"1\",\"Training\",\"Stims/Figures/94-C-20-2.bmp\",\"va:fa:va\",\"Right\",\"39\",\"2\",\"15\",\"8\",\"C1\",\"J\",\"31\"
\"\",\"\",\"approach-retreat\",\"35\",\"509599\",\"0.0-35.0\",\"\",\"\",\"2-5\",\"5255\",\"37\",\"1\",\"Training\",\"Stims/Figures/74-C-20-4.bmp\",\"za:ha:ha\",\"Left\",\"37\",\"2\",\"16\",\"8\",\"C2\",\"J\",\"32\"
\"\",\"\",\"approach-retreat\",\"36\",\"519149\",\"0.0-36.0\",\"\",\"\",\"2-5\",\"8045\",\"37\",\"0\",\"Training\",\"Stims/Figures/19-J-10-4.bmp\",\"za:ha:za\",\"Left\",\"39\",\"3\",\"1\",\"8\",\"C2\",\"J\",\"33\"
\"\",\"\",\"approach-retreat\",\"37\",\"525557\",\"0.0-37.0\",\"\",\"\",\"2-5\",\"4897\",\"38\",\"1\",\"Training\",\"Stims/Figures/85-C-20-2.bmp\",\"fafava\",\"Up\",\"38\",\"3\",\"2\",\"8\",\"C1\",\"J\",\"34\"
\"\",\"\",\"approach-retreat\",\"38\",\"532958\",\"0.0-38.0\",\"\",\"\",\"2-5\",\"5885\",\"39\",\"0\",\"Training\",\"Stims/Figures/111-C-30-3.bmp\",\"sa:sa:ha\",\"Left\",\"37\",\"3\",\"3\",\"8\",\"C2\",\"J\",\"35\"
\"\",\"\",\"approach-retreat\",\"39\",\"538652\",\"0.0-39.0\",\"\",\"\",\"2-5\",\"4184\",\"37\",\"1\",\"Training\",\"Stims/Figures/27-J-0-1.bmp\",\"vafa:sha\",\"Right\",\"37\",\"3\",\"4\",\"8\",\"C1\",\"J\",\"36\"
\"\",\"\",\"approach-retreat\",\"40\",\"544701\",\"0.0-40.0\",\"\",\"\",\"2-5\",\"4537\",\"37\",\"1\",\"Training\",\"Stims/Figures/19-C-20-4.bmp\",\"zasa:za\",\"Left\",\"37\",\"3\",\"5\",\"8\",\"C2\",\"J\",\"37\"
\"\",\"\",\"approach-retreat\",\"41\",\"550701\",\"0.0-41.0\",\"\",\"\",\"2-5\",\"4488\",\"39\",\"1\",\"Training\",\"Stims/Figures/144-J-10-3.bmp\",\"sa:saza\",\"Left\",\"39\",\"3\",\"6\",\"8\",\"C2\",\"J\",\"38\"
\"\",\"\",\"approach-retreat\",\"42\",\"556198\",\"0.0-42.0\",\"\",\"\",\"2-5\",\"3984\",\"37\",\"1\",\"Training\",\"Stims/Figures/111-J-10-3.bmp\",\"za:saha\",\"Right\",\"37\",\"3\",\"7\",\"8\",\"C2\",\"J\",\"39\"
\"\",\"\",\"approach-retreat\",\"43\",\"561877\",\"0.0-43.0\",\"\",\"\",\"2-5\",\"4167\",\"40\",\"0\",\"Training\",\"Stims/Figures/74-J-10-4.bmp\",\"zasaha\",\"Down\",\"38\",\"3\",\"8\",\"8\",\"C2\",\"J\",\"40\"
\"\",\"\",\"approach-retreat\",\"44\",\"570453\",\"0.0-44.0\",\"\",\"\",\"2-5\",\"7063\",\"38\",\"1\",\"Training\",\"Stims/Figures/85-J-0-2.bmp\",\"fasha:va\",\"Down\",\"38\",\"3\",\"9\",\"8\",\"C1\",\"J\",\"41\"
\"\",\"\",\"approach-retreat\",\"45\",\"581053\",\"0.0-45.0\",\"\",\"\",\"2-5\",\"9089\",\"38\",\"1\",\"Training\",\"Stims/Figures/94-C-20-2.bmp\",\"va:fa:va\",\"Up\",\"38\",\"3\",\"10\",\"8\",\"C1\",\"J\",\"42\"
\"\",\"\",\"approach-retreat\",\"46\",\"587164\",\"0.0-46.0\",\"\",\"\",\"2-5\",\"4599\",\"40\",\"0\",\"Training\",\"Stims/Figures/94-J-0-2.bmp\",\"fafa:sha\",\"Down\",\"38\",\"3\",\"11\",\"8\",\"C1\",\"J\",\"43\"
\"\",\"\",\"approach-retreat\",\"47\",\"595285\",\"0.0-47.0\",\"\",\"\",\"2-5\",\"6609\",\"38\",\"1\",\"Training\",\"Stims/Figures/71-C-30-1.bmp\",\"fa:fa:va\",\"Up\",\"38\",\"3\",\"12\",\"8\",\"C1\",\"J\",\"44\"
\"\",\"\",\"approach-retreat\",\"48\",\"601900\",\"0.0-48.0\",\"\",\"\",\"2-5\",\"5104\",\"38\",\"1\",\"Training\",\"Stims/Figures/144-C-30-3.bmp\",\"zasaza\",\"Up\",\"38\",\"3\",\"13\",\"8\",\"C2\",\"J\",\"45\"
\"\",\"\",\"approach-retreat\",\"49\",\"608758\",\"0.0-49.0\",\"\",\"\",\"2-5\",\"5346\",\"37\",\"0\",\"Training\",\"Stims/Figures/27-C-30-1.bmp\",\"fa:sha:va\",\"Right\",\"39\",\"3\",\"14\",\"8\",\"C1\",\"J\",\"46\"
\"\",\"\",\"approach-retreat\",\"50\",\"614877\",\"0.0-50.0\",\"\",\"\",\"2-5\",\"4607\",\"38\",\"0\",\"Training\",\"Stims/Figures/74-C-20-4.bmp\",\"za:ha:ha\",\"Down\",\"40\",\"3\",\"15\",\"8\",\"C2\",\"J\",\"47\"
\"\",\"\",\"approach-retreat\",\"51\",\"621245\",\"0.0-51.0\",\"\",\"\",\"2-5\",\"4856\",\"37\",\"1\",\"Training\",\"Stims/Figures/71-J-0-1.bmp\",\"fa:fa:sha\",\"Right\",\"37\",\"3\",\"16\",\"8\",\"C1\",\"J\",\"48\"
\"\",\"\",\"approach-retreat\",\"52\",\"627637\",\"0.0-52.0\",\"\",\"\",\"2-5\",\"4879\",\"39\",\"1\",\"Training\",\"Stims/Figures/71-C-30-1.bmp\",\"fa:fa:va\",\"Right\",\"39\",\"4\",\"1\",\"8\",\"C1\",\"J\",\"49\"
\"\",\"\",\"approach-retreat\",\"53\",\"635021\",\"0.0-53.0\",\"\",\"\",\"2-5\",\"5871\",\"40\",\"1\",\"Training\",\"Stims/Figures/144-C-30-3.bmp\",\"zasaza\",\"Down\",\"40\",\"4\",\"2\",\"8\",\"C2\",\"J\",\"50\"
\"\",\"\",\"approach-retreat\",\"54\",\"642389\",\"0.0-54.0\",\"\",\"\",\"2-5\",\"5857\",\"38\",\"1\",\"Training\",\"Stims/Figures/27-C-30-1.bmp\",\"fa:sha:va\",\"Up\",\"38\",\"4\",\"3\",\"8\",\"C1\",\"J\",\"51\"
\"\",\"\",\"approach-retreat\",\"55\",\"648374\",\"0.0-55.0\",\"\",\"\",\"2-5\",\"4473\",\"40\",\"0\",\"Training\",\"Stims/Figures/74-J-10-4.bmp\",\"zasaha\",\"Down\",\"38\",\"4\",\"4\",\"8\",\"C2\",\"J\",\"52\"
\"\",\"\",\"approach-retreat\",\"56\",\"654957\",\"0.0-56.0\",\"\",\"\",\"2-5\",\"5072\",\"39\",\"0\",\"Training\",\"Stims/Figures/19-J-10-4.bmp\",\"za:ha:za\",\"Right\",\"37\",\"4\",\"5\",\"8\",\"C2\",\"J\",\"53\"
\"\",\"\",\"approach-retreat\",\"57\",\"660893\",\"0.0-57.0\",\"\",\"\",\"2-5\",\"4425\",\"39\",\"1\",\"Training\",\"Stims/Figures/85-J-0-2.bmp\",\"fasha:va\",\"Left\",\"39\",\"4\",\"6\",\"8\",\"C1\",\"J\",\"54\"
\"\",\"\",\"approach-retreat\",\"58\",\"667988\",\"0.0-58.0\",\"\",\"\",\"2-5\",\"5583\",\"39\",\"0\",\"Training\",\"Stims/Figures/144-J-10-3.bmp\",\"sa:saza\",\"Right\",\"37\",\"4\",\"7\",\"8\",\"C2\",\"J\",\"55\"
\"\",\"\",\"approach-retreat\",\"59\",\"673861\",\"0.0-59.0\",\"\",\"\",\"2-5\",\"4362\",\"38\",\"1\",\"Training\",\"Stims/Figures/71-J-0-1.bmp\",\"fa:fa:sha\",\"Down\",\"38\",\"4\",\"8\",\"8\",\"C1\",\"J\",\"56\"
\"\",\"\",\"approach-retreat\",\"60\",\"679972\",\"0.0-60.0\",\"\",\"\",\"2-5\",\"4599\",\"40\",\"0\",\"Training\",\"Stims/Figures/85-C-20-2.bmp\",\"fafava\",\"Up\",\"38\",\"4\",\"9\",\"8\",\"C1\",\"J\",\"57\"
\"\",\"\",\"approach-retreat\",\"61\",\"686888\",\"0.0-61.0\",\"\",\"\",\"2-5\",\"5401\",\"38\",\"1\",\"Training\",\"Stims/Figures/94-J-0-2.bmp\",\"fafa:sha\",\"Down\",\"38\",\"4\",\"10\",\"8\",\"C1\",\"J\",\"58\"
\"\",\"\",\"approach-retreat\",\"62\",\"693357\",\"0.0-62.0\",\"\",\"\",\"2-5\",\"4958\",\"39\",\"1\",\"Training\",\"Stims/Figures/111-C-30-3.bmp\",\"sa:sa:ha\",\"Right\",\"39\",\"4\",\"11\",\"8\",\"C2\",\"J\",\"59\"
\"\",\"\",\"approach-retreat\",\"63\",\"699893\",\"0.0-63.0\",\"\",\"\",\"2-5\",\"5024\",\"38\",\"1\",\"Training\",\"Stims/Figures/94-C-20-2.bmp\",\"va:fa:va\",\"Up\",\"38\",\"4\",\"12\",\"8\",\"C1\",\"J\",\"60\"
\"\",\"\",\"approach-retreat\",\"64\",\"707277\",\"0.0-64.0\",\"\",\"\",\"2-5\",\"5872\",\"37\",\"1\",\"Training\",\"Stims/Figures/74-C-20-4.bmp\",\"za:ha:ha\",\"Left\",\"37\",\"4\",\"13\",\"8\",\"C2\",\"J\",\"61\"
\"\",\"\",\"approach-retreat\",\"65\",\"714045\",\"0.0-65.0\",\"\",\"\",\"2-5\",\"5256\",\"39\",\"1\",\"Training\",\"Stims/Figures/27-J-0-1.bmp\",\"vafa:sha\",\"Left\",\"39\",\"4\",\"14\",\"8\",\"C1\",\"J\",\"62\"
\"\",\"\",\"approach-retreat\",\"66\",\"720324\",\"0.0-66.0\",\"\",\"\",\"2-5\",\"4767\",\"38\",\"0\",\"Training\",\"Stims/Figures/111-J-10-3.bmp\",\"za:saha\",\"Up\",\"40\",\"4\",\"15\",\"8\",\"C2\",\"J\",\"63\"
\"\",\"\",\"approach-retreat\",\"67\",\"727430\",\"0.0-67.0\",\"\",\"\",\"2-5\",\"5596\",\"37\",\"1\",\"Training\",\"Stims/Figures/19-C-20-4.bmp\",\"zasa:za\",\"Left\",\"37\",\"4\",\"16\",\"8\",\"C2\",\"J\",\"64\"
\"\",\"\",\"approach-retreat\",\"68\",\"734652\",\"0.0-68.0\",\"\",\"\",\"2-5\",\"5710\",\"39\",\"1\",\"Training\",\"Stims/Figures/85-C-20-2.bmp\",\"fafava\",\"Right\",\"39\",\"5\",\"1\",\"8\",\"C1\",\"J\",\"65\"
\"\",\"\",\"approach-retreat\",\"69\",\"741390\",\"0.0-69.0\",\"\",\"\",\"2-5\",\"5225\",\"38\",\"1\",\"Training\",\"Stims/Figures/94-C-20-2.bmp\",\"va:fa:va\",\"Up\",\"38\",\"5\",\"2\",\"8\",\"C1\",\"J\",\"66\"
\"\",\"\",\"approach-retreat\",\"70\",\"747660\",\"0.0-70.0\",\"\",\"\",\"2-5\",\"4757\",\"38\",\"1\",\"Training\",\"Stims/Figures/71-C-30-1.bmp\",\"fa:fa:va\",\"Up\",\"38\",\"5\",\"3\",\"8\",\"C1\",\"J\",\"67\"
\"\",\"\",\"approach-retreat\",\"71\",\"756781\",\"0.0-71.0\",\"\",\"\",\"2-5\",\"7609\",\"40\",\"1\",\"Training\",\"Stims/Figures/94-J-0-2.bmp\",\"fafa:sha\",\"Up\",\"40\",\"5\",\"4\",\"8\",\"C1\",\"J\",\"68\"
\"\",\"\",\"approach-retreat\",\"72\",\"763892\",\"0.0-72.0\",\"\",\"\",\"2-5\",\"5599\",\"40\",\"0\",\"Training\",\"Stims/Figures/27-J-0-1.bmp\",\"vafa:sha\",\"Down\",\"38\",\"5\",\"5\",\"8\",\"C1\",\"J\",\"69\"
\"\",\"\",\"approach-retreat\",\"73\",\"769886\",\"0.0-73.0\",\"\",\"\",\"2-5\",\"4482\",\"39\",\"0\",\"Training\",\"Stims/Figures/85-J-0-2.bmp\",\"fasha:va\",\"Right\",\"37\",\"5\",\"6\",\"8\",\"C1\",\"J\",\"70\"
\"\",\"\",\"approach-retreat\",\"74\",\"776197\",\"0.0-74.0\",\"\",\"\",\"2-5\",\"4799\",\"40\",\"1\",\"Training\",\"Stims/Figures/144-C-30-3.bmp\",\"zasaza\",\"Down\",\"40\",\"5\",\"7\",\"8\",\"C2\",\"J\",\"71\"
\"\",\"\",\"approach-retreat\",\"75\",\"782149\",\"0.0-75.0\",\"\",\"\",\"2-5\",\"4440\",\"39\",\"1\",\"Training\",\"Stims/Figures/111-C-30-3.bmp\",\"sa:sa:ha\",\"Right\",\"39\",\"5\",\"8\",\"8\",\"C2\",\"J\",\"72\"
\"\",\"\",\"approach-retreat\",\"76\",\"788829\",\"0.0-76.0\",\"\",\"\",\"2-5\",\"5168\",\"40\",\"1\",\"Training\",\"Stims/Figures/74-C-20-4.bmp\",\"za:ha:ha\",\"Down\",\"40\",\"5\",\"9\",\"8\",\"C2\",\"J\",\"73\"
\"\",\"\",\"approach-retreat\",\"77\",\"796494\",\"0.0-77.0\",\"\",\"\",\"2-5\",\"6153\",\"39\",\"0\",\"Training\",\"Stims/Figures/19-C-20-4.bmp\",\"zasa:za\",\"Left\",\"37\",\"5\",\"10\",\"8\",\"C2\",\"J\",\"74\"
\"\",\"\",\"approach-retreat\",\"78\",\"803180\",\"0.0-78.0\",\"\",\"\",\"2-5\",\"5175\",\"37\",\"0\",\"Training\",\"Stims/Figures/74-J-10-4.bmp\",\"zasaha\",\"Left\",\"39\",\"5\",\"11\",\"8\",\"C2\",\"J\",\"75\"
\"\",\"\",\"approach-retreat\",\"79\",\"809469\",\"0.0-79.0\",\"\",\"\",\"2-5\",\"4778\",\"39\",\"0\",\"Training\",\"Stims/Figures/27-C-30-1.bmp\",\"fa:sha:va\",\"Left\",\"37\",\"5\",\"12\",\"8\",\"C1\",\"J\",\"76\"
\"\",\"\",\"approach-retreat\",\"80\",\"815412\",\"0.0-80.0\",\"\",\"\",\"2-5\",\"4429\",\"40\",\"1\",\"Training\",\"Stims/Figures/71-J-0-1.bmp\",\"fa:fa:sha\",\"Up\",\"40\",\"5\",\"13\",\"8\",\"C1\",\"J\",\"77\"
\"\",\"\",\"approach-retreat\",\"81\",\"823358\",\"0.0-81.0\",\"\",\"\",\"2-5\",\"6433\",\"38\",\"1\",\"Training\",\"Stims/Figures/144-J-10-3.bmp\",\"sa:saza\",\"Down\",\"38\",\"5\",\"14\",\"8\",\"C2\",\"J\",\"78\"
\"\",\"\",\"approach-retreat\",\"82\",\"832733\",\"0.0-82.0\",\"\",\"\",\"2-5\",\"7864\",\"37\",\"1\",\"Training\",\"Stims/Figures/19-J-10-4.bmp\",\"za:ha:za\",\"Right\",\"37\",\"5\",\"15\",\"8\",\"C2\",\"J\",\"79\"
\"\",\"\",\"approach-retreat\",\"83\",\"838438\",\"0.0-83.0\",\"\",\"\",\"2-5\",\"4193\",\"37\",\"0\",\"Training\",\"Stims/Figures/111-J-10-3.bmp\",\"za:saha\",\"Left\",\"39\",\"5\",\"16\",\"8\",\"C2\",\"J\",\"80\"
\"\",\"\",\"approach-retreat\",\"84\",\"845541\",\"0.0-84.0\",\"\",\"\",\"2-5\",\"5591\",\"37\",\"1\",\"Training\",\"Stims/Figures/19-J-10-4.bmp\",\"za:ha:za\",\"Right\",\"37\",\"6\",\"1\",\"8\",\"C2\",\"J\",\"81\"
\"\",\"\",\"approach-retreat\",\"85\",\"852797\",\"0.0-85.0\",\"\",\"\",\"2-5\",\"5743\",\"39\",\"1\",\"Training\",\"Stims/Figures/85-C-20-2.bmp\",\"fafava\",\"Right\",\"39\",\"6\",\"2\",\"8\",\"C1\",\"J\",\"82\"
\"\",\"\",\"approach-retreat\",\"86\",\"859444\",\"0.0-86.0\",\"\",\"\",\"2-5\",\"5134\",\"37\",\"1\",\"Training\",\"Stims/Figures/27-C-30-1.bmp\",\"fa:sha:va\",\"Left\",\"37\",\"6\",\"3\",\"8\",\"C1\",\"J\",\"83\"
\"\",\"\",\"approach-retreat\",\"87\",\"868349\",\"0.0-87.0\",\"\",\"\",\"2-5\",\"7400\",\"38\",\"0\",\"Training\",\"Stims/Figures/144-J-10-3.bmp\",\"sa:saza\",\"Up\",\"40\",\"6\",\"4\",\"8\",\"C2\",\"J\",\"84\"
\"\",\"\",\"approach-retreat\",\"88\",\"874021\",\"0.0-88.0\",\"\",\"\",\"2-5\",\"4160\",\"37\",\"0\",\"Training\",\"Stims/Figures/111-C-30-3.bmp\",\"sa:sa:ha\",\"Right\",\"39\",\"6\",\"5\",\"8\",\"C2\",\"J\",\"85\"
\"\",\"\",\"approach-retreat\",\"89\",\"879606\",\"0.0-89.0\",\"\",\"\",\"2-5\",\"4074\",\"38\",\"1\",\"Training\",\"Stims/Figures/94-J-0-2.bmp\",\"fafa:sha\",\"Down\",\"38\",\"6\",\"6\",\"8\",\"C1\",\"J\",\"86\"
\"\",\"\",\"approach-retreat\",\"90\",\"886532\",\"0.0-90.0\",\"\",\"\",\"2-5\",\"5415\",\"39\",\"0\",\"Training\",\"Stims/Figures/144-C-30-3.bmp\",\"zasaza\",\"Left\",\"37\",\"6\",\"7\",\"8\",\"C2\",\"J\",\"87\"
\"\",\"\",\"approach-retreat\",\"91\",\"892687\",\"0.0-91.0\",\"\",\"\",\"2-5\",\"4642\",\"39\",\"1\",\"Training\",\"Stims/Figures/19-C-20-4.bmp\",\"zasa:za\",\"Right\",\"39\",\"6\",\"8\",\"8\",\"C2\",\"J\",\"88\"
\"\",\"\",\"approach-retreat\",\"92\",\"899741\",\"0.0-92.0\",\"\",\"\",\"2-5\",\"5543\",\"38\",\"1\",\"Training\",\"Stims/Figures/111-J-10-3.bmp\",\"za:saha\",\"Down\",\"38\",\"6\",\"9\",\"8\",\"C2\",\"J\",\"89\"
\"\",\"\",\"approach-retreat\",\"93\",\"908950\",\"0.0-93.0\",\"\",\"\",\"2-5\",\"7697\",\"37\",\"1\",\"Training\",\"Stims/Figures/94-C-20-2.bmp\",\"va:fa:va\",\"Left\",\"37\",\"6\",\"10\",\"8\",\"C1\",\"J\",\"90\"
\"\",\"\",\"approach-retreat\",\"94\",\"916333\",\"0.0-94.0\",\"\",\"\",\"2-5\",\"5871\",\"38\",\"1\",\"Training\",\"Stims/Figures/74-J-10-4.bmp\",\"zasaha\",\"Down\",\"38\",\"6\",\"11\",\"8\",\"C2\",\"J\",\"91\"
\"\",\"\",\"approach-retreat\",\"95\",\"923165\",\"0.0-95.0\",\"\",\"\",\"2-5\",\"5320\",\"39\",\"1\",\"Training\",\"Stims/Figures/71-J-0-1.bmp\",\"fa:fa:sha\",\"Left\",\"39\",\"6\",\"12\",\"8\",\"C1\",\"J\",\"92\"
\"\",\"\",\"approach-retreat\",\"96\",\"929644\",\"0.0-96.0\",\"\",\"\",\"2-5\",\"4966\",\"38\",\"0\",\"Training\",\"Stims/Figures/85-J-0-2.bmp\",\"fasha:va\",\"Up\",\"40\",\"6\",\"13\",\"8\",\"C1\",\"J\",\"93\"
\"\",\"\",\"approach-retreat\",\"97\",\"936325\",\"0.0-97.0\",\"\",\"\",\"2-5\",\"5170\",\"38\",\"1\",\"Training\",\"Stims/Figures/71-C-30-1.bmp\",\"fa:fa:va\",\"Up\",\"38\",\"6\",\"14\",\"8\",\"C1\",\"J\",\"94\"
\"\",\"\",\"approach-retreat\",\"98\",\"943699\",\"0.0-98.0\",\"\",\"\",\"2-5\",\"5862\",\"40\",\"1\",\"Training\",\"Stims/Figures/27-J-0-1.bmp\",\"vafa:sha\",\"Up\",\"40\",\"6\",\"15\",\"8\",\"C1\",\"J\",\"95\"
\"\",\"\",\"approach-retreat\",\"99\",\"954261\",\"0.0-99.0\",\"\",\"\",\"2-5\",\"9050\",\"40\",\"1\",\"Training\",\"Stims/Figures/74-C-20-4.bmp\",\"za:ha:ha\",\"Down\",\"40\",\"6\",\"16\",\"8\",\"C2\",\"J\",\"96\"
\"\",\"\",\"approach-retreat\",\"100\",\"962565\",\"0.0-100.0\",\"\",\"\",\"2-5\",\"6791\",\"37\",\"1\",\"Training\",\"Stims/Figures/74-J-10-4.bmp\",\"zasaha\",\"Right\",\"37\",\"7\",\"1\",\"8\",\"C2\",\"J\",\"97\"
\"\",\"\",\"approach-retreat\",\"101\",\"969157\",\"0.0-101.0\",\"\",\"\",\"2-5\",\"5080\",\"39\",\"1\",\"Training\",\"Stims/Figures/144-C-30-3.bmp\",\"zasaza\",\"Right\",\"39\",\"7\",\"2\",\"8\",\"C2\",\"J\",\"98\"
\"\",\"\",\"approach-retreat\",\"102\",\"981918\",\"0.0-102.0\",\"\",\"\",\"2-5\",\"11249\",\"38\",\"1\",\"Training\",\"Stims/Figures/19-J-10-4.bmp\",\"za:ha:za\",\"Down\",\"38\",\"7\",\"3\",\"8\",\"C2\",\"J\",\"99\"
\"\",\"\",\"approach-retreat\",\"103\",\"988380\",\"0.0-103.0\",\"\",\"\",\"2-5\",\"4951\",\"38\",\"1\",\"Training\",\"Stims/Figures/19-C-20-4.bmp\",\"zasa:za\",\"Up\",\"38\",\"7\",\"4\",\"8\",\"C2\",\"J\",\"100\"
\"\",\"\",\"approach-retreat\",\"104\",\"994029\",\"0.0-104.0\",\"\",\"\",\"2-5\",\"4136\",\"37\",\"0\",\"Training\",\"Stims/Figures/85-J-0-2.bmp\",\"fasha:va\",\"Left\",\"39\",\"7\",\"5\",\"8\",\"C1\",\"J\",\"101\"
\"\",\"\",\"approach-retreat\",\"105\",\"999917\",\"0.0-105.0\",\"\",\"\",\"2-5\",\"4376\",\"40\",\"1\",\"Training\",\"Stims/Figures/71-C-30-1.bmp\",\"fa:fa:va\",\"Down\",\"40\",\"7\",\"6\",\"8\",\"C1\",\"J\",\"102\"
\"\",\"\",\"approach-retreat\",\"106\",\"1008733\",\"0.0-106.0\",\"\",\"\",\"2-5\",\"7304\",\"39\",\"1\",\"Training\",\"Stims/Figures/71-J-0-1.bmp\",\"fa:fa:sha\",\"Left\",\"39\",\"7\",\"7\",\"8\",\"C1\",\"J\",\"103\"
\"\",\"\",\"approach-retreat\",\"107\",\"1014348\",\"0.0-107.0\",\"\",\"\",\"2-5\",\"4102\",\"40\",\"1\",\"Training\",\"Stims/Figures/94-C-20-2.bmp\",\"va:fa:va\",\"Down\",\"40\",\"7\",\"8\",\"8\",\"C1\",\"J\",\"104\"
\"\",\"\",\"approach-retreat\",\"108\",\"1020925\",\"0.0-108.0\",\"\",\"\",\"2-5\",\"5064\",\"38\",\"1\",\"Training\",\"Stims/Figures/85-C-20-2.bmp\",\"fafava\",\"Up\",\"38\",\"7\",\"9\",\"8\",\"C1\",\"J\",\"105\"
\"\",\"\",\"approach-retreat\",\"109\",\"1028862\",\"0.0-109.0\",\"\",\"\",\"2-5\",\"6424\",\"39\",\"0\",\"Training\",\"Stims/Figures/111-C-30-3.bmp\",\"sa:sa:ha\",\"Left\",\"37\",\"7\",\"10\",\"8\",\"C2\",\"J\",\"106\"
\"\",\"\",\"approach-retreat\",\"110\",\"1034701\",\"0.0-110.0\",\"\",\"\",\"2-5\",\"4329\",\"40\",\"1\",\"Training\",\"Stims/Figures/111-J-10-3.bmp\",\"za:saha\",\"Up\",\"40\",\"7\",\"11\",\"8\",\"C2\",\"J\",\"107\"
\"\",\"\",\"approach-retreat\",\"111\",\"1043149\",\"0.0-111.0\",\"\",\"\",\"2-5\",\"6937\",\"37\",\"1\",\"Training\",\"Stims/Figures/94-J-0-2.bmp\",\"fafa:sha\",\"Right\",\"37\",\"7\",\"12\",\"8\",\"C1\",\"J\",\"108\"
\"\",\"\",\"approach-retreat\",\"112\",\"1049021\",\"0.0-112.0\",\"\",\"\",\"2-5\",\"4359\",\"37\",\"1\",\"Training\",\"Stims/Figures/27-C-30-1.bmp\",\"fa:sha:va\",\"Left\",\"37\",\"7\",\"13\",\"8\",\"C1\",\"J\",\"109\"
\"\",\"\",\"approach-retreat\",\"113\",\"1054917\",\"0.0-113.0\",\"\",\"\",\"2-5\",\"4384\",\"37\",\"1\",\"Training\",\"Stims/Figures/144-J-10-3.bmp\",\"sa:saza\",\"Right\",\"37\",\"7\",\"14\",\"8\",\"C2\",\"J\",\"110\"
\"\",\"\",\"approach-retreat\",\"114\",\"1063653\",\"0.0-114.0\",\"\",\"\",\"2-5\",\"7225\",\"38\",\"0\",\"Training\",\"Stims/Figures/27-J-0-1.bmp\",\"vafa:sha\",\"Up\",\"40\",\"7\",\"15\",\"8\",\"C1\",\"J\",\"111\"
\"\",\"\",\"approach-retreat\",\"115\",\"1073068\",\"0.0-115.0\",\"\",\"\",\"2-5\",\"7903\",\"38\",\"0\",\"Training\",\"Stims/Figures/74-C-20-4.bmp\",\"za:ha:ha\",\"Down\",\"40\",\"7\",\"16\",\"8\",\"C2\",\"J\",\"112\"
\"\",\"\",\"approach-retreat\",\"116\",\"1078742\",\"0.0-116.0\",\"\",\"\",\"2-5\",\"4162\",\"38\",\"0\",\"Training\",\"Stims/Figures/85-J-0-2.bmp\",\"fasha:va\",\"Up\",\"40\",\"8\",\"1\",\"8\",\"C1\",\"J\",\"113\"
\"\",\"\",\"approach-retreat\",\"117\",\"1084525\",\"0.0-117.0\",\"\",\"\",\"2-5\",\"4272\",\"40\",\"1\",\"Training\",\"Stims/Figures/71-C-30-1.bmp\",\"fa:fa:va\",\"Down\",\"40\",\"8\",\"2\",\"8\",\"C1\",\"J\",\"114\"
\"\",\"\",\"approach-retreat\",\"118\",\"1091431\",\"0.0-118.0\",\"\",\"\",\"2-5\",\"5394\",\"37\",\"1\",\"Training\",\"Stims/Figures/111-J-10-3.bmp\",\"za:saha\",\"Right\",\"37\",\"8\",\"3\",\"8\",\"C2\",\"J\",\"115\"
\"\",\"\",\"approach-retreat\",\"119\",\"1097484\",\"0.0-119.0\",\"\",\"\",\"2-5\",\"4542\",\"37\",\"0\",\"Training\",\"Stims/Figures/27-C-30-1.bmp\",\"fa:sha:va\",\"Right\",\"39\",\"8\",\"4\",\"8\",\"C1\",\"J\",\"116\"
\"\",\"\",\"approach-retreat\",\"120\",\"1106406\",\"0.0-120.0\",\"\",\"\",\"2-5\",\"7410\",\"40\",\"1\",\"Training\",\"Stims/Figures/85-C-20-2.bmp\",\"fafava\",\"Down\",\"40\",\"8\",\"5\",\"8\",\"C1\",\"J\",\"117\"
\"\",\"\",\"approach-retreat\",\"121\",\"1112380\",\"0.0-121.0\",\"\",\"\",\"2-5\",\"4464\",\"37\",\"0\",\"Training\",\"Stims/Figures/19-J-10-4.bmp\",\"za:ha:za\",\"Left\",\"39\",\"8\",\"6\",\"8\",\"C2\",\"J\",\"118\"
\"\",\"\",\"approach-retreat\",\"122\",\"1119830\",\"0.0-122.0\",\"\",\"\",\"2-5\",\"5938\",\"38\",\"1\",\"Training\",\"Stims/Figures/74-J-10-4.bmp\",\"zasaha\",\"Down\",\"38\",\"8\",\"7\",\"8\",\"C2\",\"J\",\"119\"
\"\",\"\",\"approach-retreat\",\"123\",\"1126813\",\"0.0-123.0\",\"\",\"\",\"2-5\",\"5471\",\"40\",\"0\",\"Training\",\"Stims/Figures/111-C-30-3.bmp\",\"sa:sa:ha\",\"Up\",\"38\",\"8\",\"8\",\"8\",\"C2\",\"J\",\"120\"
\"\",\"\",\"approach-retreat\",\"124\",\"1134222\",\"0.0-124.0\",\"\",\"\",\"2-5\",\"5897\",\"37\",\"0\",\"Training\",\"Stims/Figures/71-J-0-1.bmp\",\"fa:fa:sha\",\"Left\",\"39\",\"8\",\"9\",\"8\",\"C1\",\"J\",\"121\"
\"\",\"\",\"approach-retreat\",\"125\",\"1142414\",\"0.0-125.0\",\"\",\"\",\"2-5\",\"6680\",\"37\",\"0\",\"Training\",\"Stims/Figures/144-C-30-3.bmp\",\"zasaza\",\"Right\",\"39\",\"8\",\"10\",\"8\",\"C2\",\"J\",\"122\"
\"\",\"\",\"approach-retreat\",\"126\",\"1148189\",\"0.0-126.0\",\"\",\"\",\"2-5\",\"4265\",\"40\",\"1\",\"Training\",\"Stims/Figures/94-J-0-2.bmp\",\"fafa:sha\",\"Up\",\"40\",\"8\",\"11\",\"8\",\"C1\",\"J\",\"123\"
\"\",\"\",\"approach-retreat\",\"127\",\"1155020\",\"0.0-127.0\",\"\",\"\",\"2-5\",\"5315\",\"39\",\"0\",\"Training\",\"Stims/Figures/74-C-20-4.bmp\",\"za:ha:ha\",\"Left\",\"37\",\"8\",\"12\",\"8\",\"C2\",\"J\",\"124\"
\"\",\"\",\"approach-retreat\",\"128\",\"1164165\",\"0.0-128.0\",\"\",\"\",\"2-5\",\"7633\",\"40\",\"1\",\"Training\",\"Stims/Figures/94-C-20-2.bmp\",\"va:fa:va\",\"Down\",\"40\",\"8\",\"13\",\"8\",\"C1\",\"J\",\"125\"
\"\",\"\",\"approach-retreat\",\"129\",\"1171612\",\"0.0-129.0\",\"\",\"\",\"2-5\",\"5933\",\"38\",\"0\",\"Training\",\"Stims/Figures/144-J-10-3.bmp\",\"sa:saza\",\"Up\",\"40\",\"8\",\"14\",\"8\",\"C2\",\"J\",\"126\"
\"\",\"\",\"approach-retreat\",\"130\",\"1178310\",\"0.0-130.0\",\"\",\"\",\"2-5\",\"5186\",\"39\",\"1\",\"Training\",\"Stims/Figures/27-J-0-1.bmp\",\"vafa:sha\",\"Left\",\"39\",\"8\",\"15\",\"8\",\"C1\",\"J\",\"127\"
\"\",\"\",\"approach-retreat\",\"131\",\"1184612\",\"0.0-131.0\",\"\",\"\",\"2-5\",\"4791\",\"39\",\"1\",\"Training\",\"Stims/Figures/19-C-20-4.bmp\",\"zasa:za\",\"Right\",\"39\",\"8\",\"16\",\"8\",\"C2\",\"J\",\"128\"
\"\",\"\",\"approach-retreat\",\"132\",\"1190805\",\"0.0-132.0\",\"\",\"\",\"2-5\",\"4681\",\"37\",\"1\",\"Training\",\"Stims/Figures/71-C-30-1.bmp\",\"fa:fa:va\",\"Left\",\"37\",\"9\",\"1\",\"8\",\"C1\",\"J\",\"129\"
\"\",\"\",\"approach-retreat\",\"133\",\"1198790\",\"0.0-133.0\",\"\",\"\",\"2-5\",\"6471\",\"38\",\"1\",\"Training\",\"Stims/Figures/111-J-10-3.bmp\",\"za:saha\",\"Down\",\"38\",\"9\",\"2\",\"8\",\"C2\",\"J\",\"130\"
\"\",\"\",\"approach-retreat\",\"134\",\"1206957\",\"0.0-134.0\",\"\",\"\",\"2-5\",\"6655\",\"38\",\"1\",\"Training\",\"Stims/Figures/71-J-0-1.bmp\",\"fa:fa:sha\",\"Down\",\"38\",\"9\",\"3\",\"8\",\"C1\",\"J\",\"131\"
\"\",\"\",\"approach-retreat\",\"135\",\"1213509\",\"0.0-135.0\",\"\",\"\",\"2-5\",\"5038\",\"39\",\"0\",\"Training\",\"Stims/Figures/27-J-0-1.bmp\",\"vafa:sha\",\"Right\",\"37\",\"9\",\"4\",\"8\",\"C1\",\"J\",\"132\"
\"\",\"\",\"approach-retreat\",\"136\",\"1223439\",\"0.0-136.0\",\"\",\"\",\"2-5\",\"8418\",\"37\",\"1\",\"Training\",\"Stims/Figures/85-J-0-2.bmp\",\"fasha:va\",\"Right\",\"37\",\"9\",\"5\",\"8\",\"C1\",\"J\",\"133\"
\"\",\"\",\"approach-retreat\",\"137\",\"1232284\",\"0.0-137.0\",\"\",\"\",\"2-5\",\"7335\",\"38\",\"1\",\"Training\",\"Stims/Figures/19-C-20-4.bmp\",\"zasa:za\",\"Up\",\"38\",\"9\",\"6\",\"8\",\"C2\",\"J\",\"134\"
\"\",\"\",\"approach-retreat\",\"138\",\"1244382\",\"0.0-138.0\",\"\",\"\",\"2-5\",\"10587\",\"40\",\"0\",\"Training\",\"Stims/Figures/144-J-10-3.bmp\",\"sa:saza\",\"Down\",\"38\",\"9\",\"7\",\"8\",\"C2\",\"J\",\"135\"
\"\",\"\",\"approach-retreat\",\"139\",\"1251780\",\"0.0-139.0\",\"\",\"\",\"2-5\",\"5887\",\"39\",\"1\",\"Training\",\"Stims/Figures/94-J-0-2.bmp\",\"fafa:sha\",\"Left\",\"39\",\"9\",\"8\",\"8\",\"C1\",\"J\",\"136\"
\"\",\"\",\"approach-retreat\",\"140\",\"1258149\",\"0.0-140.0\",\"\",\"\",\"2-5\",\"4857\",\"39\",\"0\",\"Training\",\"Stims/Figures/85-C-20-2.bmp\",\"fafava\",\"Left\",\"37\",\"9\",\"9\",\"8\",\"C1\",\"J\",\"137\"
\"\",\"\",\"approach-retreat\",\"141\",\"1264628\",\"0.0-141.0\",\"\",\"\",\"2-5\",\"4967\",\"39\",\"0\",\"Training\",\"Stims/Figures/144-C-30-3.bmp\",\"zasaza\",\"Left\",\"37\",\"9\",\"10\",\"8\",\"C2\",\"J\",\"138\"
\"\",\"\",\"approach-retreat\",\"142\",\"1274687\",\"0.0-142.0\",\"\",\"\",\"2-5\",\"8548\",\"40\",\"0\",\"Training\",\"Stims/Figures/19-J-10-4.bmp\",\"za:ha:za\",\"Down\",\"38\",\"9\",\"11\",\"8\",\"C2\",\"J\",\"139\"
\"\",\"\",\"approach-retreat\",\"143\",\"1281111\",\"0.0-143.0\",\"\",\"\",\"2-5\",\"4913\",\"39\",\"1\",\"Training\",\"Stims/Figures/27-C-30-1.bmp\",\"fa:sha:va\",\"Right\",\"39\",\"9\",\"12\",\"8\",\"C1\",\"J\",\"140\"
\"\",\"\",\"approach-retreat\",\"144\",\"1287797\",\"0.0-144.0\",\"\",\"\",\"2-5\",\"5175\",\"38\",\"1\",\"Training\",\"Stims/Figures/74-C-20-4.bmp\",\"za:ha:ha\",\"Up\",\"38\",\"9\",\"13\",\"8\",\"C2\",\"J\",\"141\"
\"\",\"\",\"approach-retreat\",\"145\",\"1293548\",\"0.0-145.0\",\"\",\"\",\"2-5\",\"4239\",\"38\",\"1\",\"Training\",\"Stims/Figures/111-C-30-3.bmp\",\"sa:sa:ha\",\"Up\",\"38\",\"9\",\"14\",\"8\",\"C2\",\"J\",\"142\"
\"\",\"\",\"approach-retreat\",\"146\",\"1299663\",\"0.0-146.0\",\"\",\"\",\"2-5\",\"4601\",\"40\",\"1\",\"Training\",\"Stims/Figures/74-J-10-4.bmp\",\"zasaha\",\"Up\",\"40\",\"9\",\"15\",\"8\",\"C2\",\"J\",\"143\"
\"\",\"\",\"approach-retreat\",\"147\",\"1307100\",\"0.0-147.0\",\"\",\"\",\"2-5\",\"5927\",\"39\",\"1\",\"Training\",\"Stims/Figures/94-C-20-2.bmp\",\"va:fa:va\",\"Right\",\"39\",\"9\",\"16\",\"8\",\"C1\",\"J\",\"144\"
\"15973\",\"\",\"instructions\",\"148\",\"1323075\",\"0.0-148.0\",\"[{\"\"page_index\"\":0,\"\"viewing_time\"\":15972}]\",\"\",\"\",\"\",\"\",\"\",\"\",\"\",\"\",\"\",\"\",\"\",\"\",\"\",\"\",\"\",\"\"
\"\",\"\",\"approach-retreat\",\"149\",\"1332531\",\"0.0-149.0\",\"\",\"\",\"2-5\",\"7950\",\"40\",\"1\",\"Testing\",\"Stims/Figures/85-C-20-2.bmp\",\"fafava\",\"Down\",\"40\",\"1\",\"1\",\"8\",\"C1\",\"J\",\"1\"
\"\",\"\",\"approach-retreat\",\"150\",\"1340412\",\"0.0-150.0\",\"\",\"\",\"2-5\",\"6370\",\"39\",\"0\",\"Testing\",\"Stims/Figures/111-J-10-3.bmp\",\"za:saha\",\"Right\",\"37\",\"1\",\"2\",\"8\",\"C2\",\"J\",\"2\"
\"\",\"\",\"approach-retreat\",\"151\",\"1346995\",\"0.0-151.0\",\"\",\"\",\"2-5\",\"5074\",\"37\",\"0\",\"Testing\",\"Stims/Figures/7-C-20-4.bmp\",\"sa:haza\",\"Right\",\"39\",\"1\",\"3\",\"8\",\"C2\",\"J\",\"3\"
\"\",\"\",\"approach-retreat\",\"152\",\"1354284\",\"0.0-152.0\",\"\",\"\",\"2-5\",\"5780\",\"37\",\"1\",\"Testing\",\"Stims/Figures/84-C-20-2.bmp\",\"fa:fasha\",\"Left\",\"37\",\"1\",\"4\",\"8\",\"C1\",\"J\",\"4\"
\"\",\"\",\"approach-retreat\",\"153\",\"1360123\",\"0.0-153.0\",\"\",\"\",\"2-5\",\"4329\",\"40\",\"0\",\"Testing\",\"Stims/Figures/111-C-30-3.bmp\",\"sa:sa:ha\",\"Up\",\"38\",\"1\",\"5\",\"8\",\"C2\",\"J\",\"5\"
\"\",\"\",\"approach-retreat\",\"154\",\"1365908\",\"0.0-154.0\",\"\",\"\",\"2-5\",\"4277\",\"40\",\"0\",\"Testing\",\"Stims/Figures/27-C-30-1.bmp\",\"fa:sha:va\",\"Up\",\"38\",\"1\",\"6\",\"8\",\"C1\",\"J\",\"6\"
\"\",\"\",\"approach-retreat\",\"155\",\"1372531\",\"0.0-155.0\",\"\",\"\",\"2-5\",\"5115\",\"38\",\"1\",\"Testing\",\"Stims/Figures/19-C-20-4.bmp\",\"zasa:za\",\"Up\",\"38\",\"1\",\"7\",\"8\",\"C2\",\"J\",\"7\"
\"\",\"\",\"approach-retreat\",\"156\",\"1379524\",\"0.0-156.0\",\"\",\"\",\"2-5\",\"5479\",\"37\",\"0\",\"Testing\",\"Stims/Figures/57-J-0-1.bmp\",\"vasha:sha\",\"Left\",\"39\",\"1\",\"8\",\"8\",\"C1\",\"J\",\"8\"
\"\",\"\",\"approach-retreat\",\"157\",\"1385403\",\"0.0-157.0\",\"\",\"\",\"2-5\",\"4370\",\"38\",\"1\",\"Testing\",\"Stims/Figures/128-C-30-3.bmp\",\"sahaza\",\"Up\",\"38\",\"1\",\"9\",\"8\",\"C2\",\"J\",\"9\"
\"\",\"\",\"approach-retreat\",\"158\",\"1394389\",\"0.0-158.0\",\"\",\"\",\"2-5\",\"7476\",\"38\",\"1\",\"Testing\",\"Stims/Figures/27-J-0-1.bmp\",\"vafa:sha\",\"Down\",\"38\",\"1\",\"10\",\"8\",\"C1\",\"J\",\"10\"
\"\",\"\",\"approach-retreat\",\"159\",\"1400619\",\"0.0-159.0\",\"\",\"\",\"2-5\",\"4723\",\"38\",\"0\",\"Testing\",\"Stims/Figures/85-J-0-2.bmp\",\"fasha:va\",\"Up\",\"40\",\"1\",\"11\",\"8\",\"C1\",\"J\",\"11\"
\"\",\"\",\"approach-retreat\",\"160\",\"1407967\",\"0.0-160.0\",\"\",\"\",\"2-5\",\"5836\",\"40\",\"0\",\"Testing\",\"Stims/Figures/94-J-0-2.bmp\",\"fafa:sha\",\"Down\",\"38\",\"1\",\"12\",\"8\",\"C1\",\"J\",\"12\"
\"\",\"\",\"approach-retreat\",\"161\",\"1414820\",\"0.0-161.0\",\"\",\"\",\"2-5\",\"5336\",\"37\",\"0\",\"Testing\",\"Stims/Figures/7-J-10-4.bmp\",\"sasa:ha\",\"Left\",\"39\",\"1\",\"13\",\"8\",\"C2\",\"J\",\"13\"
\"\",\"\",\"approach-retreat\",\"162\",\"1421108\",\"0.0-162.0\",\"\",\"\",\"2-5\",\"4779\",\"37\",\"0\",\"Testing\",\"Stims/Figures/84-J-0-2.bmp\",\"va:shava\",\"Left\",\"39\",\"1\",\"14\",\"8\",\"C1\",\"J\",\"14\"
\"\",\"\",\"approach-retreat\",\"163\",\"1428155\",\"0.0-163.0\",\"\",\"\",\"2-5\",\"5537\",\"38\",\"0\",\"Testing\",\"Stims/Figures/144-C-30-3.bmp\",\"zasaza\",\"Down\",\"40\",\"1\",\"15\",\"8\",\"C2\",\"J\",\"15\"
\"\",\"\",\"approach-retreat\",\"164\",\"1434268\",\"0.0-164.0\",\"\",\"\",\"2-5\",\"4604\",\"40\",\"0\",\"Testing\",\"Stims/Figures/128-J-10-3.bmp\",\"sa:sa:za\",\"Down\",\"38\",\"1\",\"16\",\"8\",\"C2\",\"J\",\"16\"
\"\",\"\",\"approach-retreat\",\"165\",\"1441188\",\"0.0-165.0\",\"\",\"\",\"2-5\",\"5408\",\"37\",\"0\",\"Testing\",\"Stims/Figures/71-J-0-1.bmp\",\"fa:fa:sha\",\"Left\",\"39\",\"1\",\"17\",\"8\",\"C1\",\"J\",\"17\"
\"\",\"\",\"approach-retreat\",\"166\",\"1447004\",\"0.0-166.0\",\"\",\"\",\"2-5\",\"4308\",\"39\",\"0\",\"Testing\",\"Stims/Figures/144-J-10-3.bmp\",\"sa:saza\",\"Right\",\"37\",\"1\",\"18\",\"8\",\"C2\",\"J\",\"18\"
\"\",\"\",\"approach-retreat\",\"167\",\"1454043\",\"0.0-167.0\",\"\",\"\",\"2-5\",\"5520\",\"37\",\"0\",\"Testing\",\"Stims/Figures/74-C-20-4.bmp\",\"za:ha:ha\",\"Right\",\"39\",\"1\",\"19\",\"8\",\"C2\",\"J\",\"19\"
\"\",\"\",\"approach-retreat\",\"168\",\"1462242\",\"0.0-168.0\",\"\",\"\",\"2-5\",\"6690\",\"37\",\"0\",\"Testing\",\"Stims/Figures/94-C-20-2.bmp\",\"va:fa:va\",\"Right\",\"39\",\"1\",\"20\",\"8\",\"C1\",\"J\",\"20\"
\"\",\"\",\"approach-retreat\",\"169\",\"1469283\",\"0.0-169.0\",\"\",\"\",\"2-5\",\"5533\",\"38\",\"1\",\"Testing\",\"Stims/Figures/57-C-30-1.bmp\",\"fasha:sha\",\"Up\",\"38\",\"1\",\"21\",\"8\",\"C1\",\"J\",\"21\"
\"\",\"\",\"approach-retreat\",\"170\",\"1475828\",\"0.0-170.0\",\"\",\"\",\"2-5\",\"5036\",\"38\",\"0\",\"Testing\",\"Stims/Figures/71-C-30-1.bmp\",\"fa:fa:va\",\"Down\",\"40\",\"1\",\"22\",\"8\",\"C1\",\"J\",\"22\"
\"\",\"\",\"approach-retreat\",\"171\",\"1482091\",\"0.0-171.0\",\"\",\"\",\"2-5\",\"4753\",\"37\",\"0\",\"Testing\",\"Stims/Figures/19-J-10-4.bmp\",\"za:ha:za\",\"Left\",\"39\",\"1\",\"23\",\"8\",\"C2\",\"J\",\"23\"
\"\",\"\",\"approach-retreat\",\"172\",\"1488948\",\"0.0-172.0\",\"\",\"\",\"2-5\",\"5348\",\"39\",\"0\",\"Testing\",\"Stims/Figures/74-J-10-4.bmp\",\"zasaha\",\"Right\",\"37\",\"1\",\"24\",\"8\",\"C2\",\"J\",\"24\"
\"\",\"\",\"approach-retreat\",\"173\",\"1495340\",\"0.0-173.0\",\"\",\"\",\"2-5\",\"4882\",\"38\",\"0\",\"Testing\",\"Stims/Figures/57-J-0-1.bmp\",\"vasha:sha\",\"Up\",\"40\",\"2\",\"1\",\"8\",\"C1\",\"J\",\"25\"
\"\",\"\",\"approach-retreat\",\"174\",\"1501837\",\"0.0-174.0\",\"\",\"\",\"2-5\",\"4988\",\"39\",\"1\",\"Testing\",\"Stims/Figures/7-C-20-4.bmp\",\"sa:haza\",\"Right\",\"39\",\"2\",\"2\",\"8\",\"C2\",\"J\",\"26\"
\"\",\"\",\"approach-retreat\",\"175\",\"1508228\",\"0.0-175.0\",\"\",\"\",\"2-5\",\"4882\",\"37\",\"0\",\"Testing\",\"Stims/Figures/7-J-10-4.bmp\",\"sasa:ha\",\"Left\",\"39\",\"2\",\"3\",\"8\",\"C2\",\"J\",\"27\"
\"\",\"\",\"approach-retreat\",\"176\",\"1520092\",\"0.0-176.0\",\"\",\"\",\"2-5\",\"10354\",\"38\",\"0\",\"Testing\",\"Stims/Figures/84-C-20-2.bmp\",\"fa:fasha\",\"Down\",\"40\",\"2\",\"4\",\"8\",\"C1\",\"J\",\"28\"
\"\",\"\",\"approach-retreat\",\"177\",\"1525884\",\"0.0-177.0\",\"\",\"\",\"2-5\",\"4283\",\"40\",\"0\",\"Testing\",\"Stims/Figures/71-C-30-1.bmp\",\"fa:fa:va\",\"Up\",\"38\",\"2\",\"5\",\"8\",\"C1\",\"J\",\"29\"
\"\",\"\",\"approach-retreat\",\"178\",\"1532747\",\"0.0-178.0\",\"\",\"\",\"2-5\",\"5354\",\"38\",\"1\",\"Testing\",\"Stims/Figures/84-J-0-2.bmp\",\"va:shava\",\"Down\",\"38\",\"2\",\"6\",\"8\",\"C1\",\"J\",\"30\"
\"\",\"\",\"approach-retreat\",\"179\",\"1539084\",\"0.0-179.0\",\"\",\"\",\"2-5\",\"4828\",\"37\",\"1\",\"Testing\",\"Stims/Figures/74-J-10-4.bmp\",\"zasaha\",\"Right\",\"37\",\"2\",\"7\",\"8\",\"C2\",\"J\",\"31\"
\"\",\"\",\"approach-retreat\",\"180\",\"1545299\",\"0.0-180.0\",\"\",\"\",\"2-5\",\"4706\",\"38\",\"1\",\"Testing\",\"Stims/Figures/128-C-30-3.bmp\",\"sahaza\",\"Up\",\"38\",\"2\",\"8\",\"8\",\"C2\",\"J\",\"32\"
\"\",\"\",\"approach-retreat\",\"181\",\"1551493\",\"0.0-181.0\",\"\",\"\",\"2-5\",\"4684\",\"38\",\"1\",\"Testing\",\"Stims/Figures/144-J-10-3.bmp\",\"sa:saza\",\"Down\",\"38\",\"2\",\"9\",\"8\",\"C2\",\"J\",\"33\"
\"\",\"\",\"approach-retreat\",\"182\",\"1558148\",\"0.0-182.0\",\"\",\"\",\"2-5\",\"5146\",\"40\",\"1\",\"Testing\",\"Stims/Figures/71-J-0-1.bmp\",\"fa:fa:sha\",\"Up\",\"40\",\"2\",\"10\",\"8\",\"C1\",\"J\",\"34\"
\"\",\"\",\"approach-retreat\",\"183\",\"1564612\",\"0.0-183.0\",\"\",\"\",\"2-5\",\"4956\",\"39\",\"0\",\"Testing\",\"Stims/Figures/27-C-30-1.bmp\",\"fa:sha:va\",\"Left\",\"37\",\"2\",\"11\",\"8\",\"C1\",\"J\",\"35\"
\"\",\"\",\"approach-retreat\",\"184\",\"1570355\",\"0.0-184.0\",\"\",\"\",\"2-5\",\"4235\",\"37\",\"0\",\"Testing\",\"Stims/Figures/85-J-0-2.bmp\",\"fasha:va\",\"Left\",\"39\",\"2\",\"12\",\"8\",\"C1\",\"J\",\"36\"
\"\",\"\",\"approach-retreat\",\"185\",\"1578300\",\"0.0-185.0\",\"\",\"\",\"2-5\",\"6436\",\"39\",\"1\",\"Testing\",\"Stims/Figures/74-C-20-4.bmp\",\"za:ha:ha\",\"Right\",\"39\",\"2\",\"13\",\"8\",\"C2\",\"J\",\"37\"
\"\",\"\",\"approach-retreat\",\"186\",\"1583972\",\"0.0-186.0\",\"\",\"\",\"2-5\",\"4161\",\"38\",\"0\",\"Testing\",\"Stims/Figures/144-C-30-3.bmp\",\"zasaza\",\"Down\",\"40\",\"2\",\"14\",\"8\",\"C2\",\"J\",\"38\"
\"\",\"\",\"approach-retreat\",\"187\",\"1590268\",\"0.0-187.0\",\"\",\"\",\"2-5\",\"4786\",\"39\",\"0\",\"Testing\",\"Stims/Figures/111-C-30-3.bmp\",\"sa:sa:ha\",\"Left\",\"37\",\"2\",\"15\",\"8\",\"C2\",\"J\",\"39\"
\"\",\"\",\"approach-retreat\",\"188\",\"1597115\",\"0.0-188.0\",\"\",\"\",\"2-5\",\"5338\",\"38\",\"1\",\"Testing\",\"Stims/Figures/94-C-20-2.bmp\",\"va:fa:va\",\"Up\",\"38\",\"2\",\"16\",\"8\",\"C1\",\"J\",\"40\"
\"\",\"\",\"approach-retreat\",\"189\",\"1603268\",\"0.0-189.0\",\"\",\"\",\"2-5\",\"4644\",\"40\",\"1\",\"Testing\",\"Stims/Figures/128-J-10-3.bmp\",\"sa:sa:za\",\"Up\",\"40\",\"2\",\"17\",\"8\",\"C2\",\"J\",\"41\"
\"\",\"\",\"approach-retreat\",\"190\",\"1611323\",\"0.0-190.0\",\"\",\"\",\"2-5\",\"6546\",\"37\",\"1\",\"Testing\",\"Stims/Figures/94-J-0-2.bmp\",\"fafa:sha\",\"Right\",\"37\",\"2\",\"18\",\"8\",\"C1\",\"J\",\"42\"
\"\",\"\",\"approach-retreat\",\"191\",\"1617476\",\"0.0-191.0\",\"\",\"\",\"2-5\",\"4645\",\"37\",\"0\",\"Testing\",\"Stims/Figures/19-C-20-4.bmp\",\"zasa:za\",\"Right\",\"39\",\"2\",\"19\",\"8\",\"C2\",\"J\",\"43\"
\"\",\"\",\"approach-retreat\",\"192\",\"1622923\",\"0.0-192.0\",\"\",\"\",\"2-5\",\"3938\",\"37\",\"1\",\"Testing\",\"Stims/Figures/27-J-0-1.bmp\",\"vafa:sha\",\"Right\",\"37\",\"2\",\"20\",\"8\",\"C1\",\"J\",\"44\"
\"\",\"\",\"approach-retreat\",\"193\",\"1628837\",\"0.0-193.0\",\"\",\"\",\"2-5\",\"4403\",\"38\",\"1\",\"Testing\",\"Stims/Figures/111-J-10-3.bmp\",\"za:saha\",\"Down\",\"38\",\"2\",\"21\",\"8\",\"C2\",\"J\",\"45\"
\"\",\"\",\"approach-retreat\",\"194\",\"1635051\",\"0.0-194.0\",\"\",\"\",\"2-5\",\"4705\",\"37\",\"1\",\"Testing\",\"Stims/Figures/57-C-30-1.bmp\",\"fasha:sha\",\"Left\",\"37\",\"2\",\"22\",\"8\",\"C1\",\"J\",\"46\"
\"\",\"\",\"approach-retreat\",\"195\",\"1641789\",\"0.0-195.0\",\"\",\"\",\"2-5\",\"5228\",\"39\",\"0\",\"Testing\",\"Stims/Figures/85-C-20-2.bmp\",\"fafava\",\"Left\",\"37\",\"2\",\"23\",\"8\",\"C1\",\"J\",\"47\"
\"\",\"\",\"approach-retreat\",\"196\",\"1648139\",\"0.0-196.0\",\"\",\"\",\"2-5\",\"4842\",\"38\",\"1\",\"Testing\",\"Stims/Figures/19-J-10-4.bmp\",\"za:ha:za\",\"Down\",\"38\",\"2\",\"24\",\"8\",\"C2\",\"J\",\"48\"
\"\",\"\",\"approach-retreat\",\"197\",\"1654100\",\"0.0-197.0\",\"\",\"\",\"2-5\",\"4451\",\"40\",\"0\",\"Testing\",\"Stims/Figures/111-J-10-3.bmp\",\"za:saha\",\"Down\",\"38\",\"3\",\"1\",\"8\",\"C2\",\"J\",\"49\"
\"\",\"\",\"approach-retreat\",\"198\",\"1659643\",\"0.0-198.0\",\"\",\"\",\"2-5\",\"4034\",\"37\",\"0\",\"Testing\",\"Stims/Figures/71-C-30-1.bmp\",\"fa:fa:va\",\"Right\",\"39\",\"3\",\"2\",\"8\",\"C1\",\"J\",\"50\"
\"\",\"\",\"approach-retreat\",\"199\",\"1665804\",\"0.0-199.0\",\"\",\"\",\"2-5\",\"4652\",\"38\",\"0\",\"Testing\",\"Stims/Figures/144-J-10-3.bmp\",\"sa:saza\",\"Up\",\"40\",\"3\",\"3\",\"8\",\"C2\",\"J\",\"51\"
\"\",\"\",\"approach-retreat\",\"200\",\"1672571\",\"0.0-200.0\",\"\",\"\",\"2-5\",\"5258\",\"37\",\"0\",\"Testing\",\"Stims/Figures/128-J-10-3.bmp\",\"sa:sa:za\",\"Left\",\"39\",\"3\",\"4\",\"8\",\"C2\",\"J\",\"52\"
\"\",\"\",\"approach-retreat\",\"201\",\"1679924\",\"0.0-201.0\",\"\",\"\",\"2-5\",\"5844\",\"40\",\"1\",\"Testing\",\"Stims/Figures/94-C-20-2.bmp\",\"va:fa:va\",\"Down\",\"40\",\"3\",\"5\",\"8\",\"C1\",\"J\",\"53\"
\"\",\"\",\"approach-retreat\",\"202\",\"1685803\",\"0.0-202.0\",\"\",\"\",\"2-5\",\"4369\",\"40\",\"0\",\"Testing\",\"Stims/Figures/27-C-30-1.bmp\",\"fa:sha:va\",\"Up\",\"38\",\"3\",\"6\",\"8\",\"C1\",\"J\",\"54\"
\"\",\"\",\"approach-retreat\",\"203\",\"1691748\",\"0.0-203.0\",\"\",\"\",\"2-5\",\"4435\",\"39\",\"1\",\"Testing\",\"Stims/Figures/74-J-10-4.bmp\",\"zasaha\",\"Left\",\"39\",\"3\",\"7\",\"8\",\"C2\",\"J\",\"55\"
\"\",\"\",\"approach-retreat\",\"204\",\"1698995\",\"0.0-204.0\",\"\",\"\",\"2-5\",\"5738\",\"37\",\"0\",\"Testing\",\"Stims/Figures/7-C-20-4.bmp\",\"sa:haza\",\"Right\",\"39\",\"3\",\"8\",\"8\",\"C2\",\"J\",\"56\"
\"\",\"\",\"approach-retreat\",\"205\",\"1705852\",\"0.0-205.0\",\"\",\"\",\"2-5\",\"5347\",\"39\",\"1\",\"Testing\",\"Stims/Figures/57-J-0-1.bmp\",\"vasha:sha\",\"Left\",\"39\",\"3\",\"9\",\"8\",\"C1\",\"J\",\"57\"
\"\",\"\",\"approach-retreat\",\"206\",\"1712595\",\"0.0-206.0\",\"\",\"\",\"2-5\",\"5234\",\"38\",\"0\",\"Testing\",\"Stims/Figures/27-J-0-1.bmp\",\"vafa:sha\",\"Up\",\"40\",\"3\",\"10\",\"8\",\"C1\",\"J\",\"58\"
\"\",\"\",\"approach-retreat\",\"207\",\"1718388\",\"0.0-207.0\",\"\",\"\",\"2-5\",\"4285\",\"37\",\"0\",\"Testing\",\"Stims/Figures/85-C-20-2.bmp\",\"fafava\",\"Right\",\"39\",\"3\",\"11\",\"8\",\"C1\",\"J\",\"59\"
\"\",\"\",\"approach-retreat\",\"208\",\"1725659\",\"0.0-208.0\",\"\",\"\",\"2-5\",\"5762\",\"39\",\"1\",\"Testing\",\"Stims/Figures/94-J-0-2.bmp\",\"fafa:sha\",\"Left\",\"39\",\"3\",\"12\",\"8\",\"C1\",\"J\",\"60\"
\"\",\"\",\"approach-retreat\",\"209\",\"1731316\",\"0.0-209.0\",\"\",\"\",\"2-5\",\"4148\",\"38\",\"1\",\"Testing\",\"Stims/Figures/7-J-10-4.bmp\",\"sasa:ha\",\"Down\",\"38\",\"3\",\"13\",\"8\",\"C2\",\"J\",\"61\"
\"\",\"\",\"approach-retreat\",\"210\",\"1737123\",\"0.0-210.0\",\"\",\"\",\"2-5\",\"4298\",\"38\",\"0\",\"Testing\",\"Stims/Figures/74-C-20-4.bmp\",\"za:ha:ha\",\"Down\",\"40\",\"3\",\"14\",\"8\",\"C2\",\"J\",\"62\"
\"\",\"\",\"approach-retreat\",\"211\",\"1743292\",\"0.0-211.0\",\"\",\"\",\"2-5\",\"4660\",\"39\",\"1\",\"Testing\",\"Stims/Figures/84-C-20-2.bmp\",\"fa:fasha\",\"Right\",\"39\",\"3\",\"15\",\"8\",\"C1\",\"J\",\"63\"
\"\",\"\",\"approach-retreat\",\"212\",\"1751243\",\"0.0-212.0\",\"\",\"\",\"2-5\",\"6442\",\"38\",\"1\",\"Testing\",\"Stims/Figures/144-C-30-3.bmp\",\"zasaza\",\"Up\",\"38\",\"3\",\"16\",\"8\",\"C2\",\"J\",\"64\"
\"\",\"\",\"approach-retreat\",\"213\",\"1756844\",\"0.0-213.0\",\"\",\"\",\"2-5\",\"4092\",\"39\",\"1\",\"Testing\",\"Stims/Figures/71-J-0-1.bmp\",\"fa:fa:sha\",\"Left\",\"39\",\"3\",\"17\",\"8\",\"C1\",\"J\",\"65\"
\"\",\"\",\"approach-retreat\",\"214\",\"1762675\",\"0.0-214.0\",\"\",\"\",\"2-5\",\"4322\",\"37\",\"0\",\"Testing\",\"Stims/Figures/57-C-30-1.bmp\",\"fasha:sha\",\"Right\",\"39\",\"3\",\"18\",\"8\",\"C1\",\"J\",\"66\"
\"\",\"\",\"approach-retreat\",\"215\",\"1768420\",\"0.0-215.0\",\"\",\"\",\"2-5\",\"4236\",\"38\",\"0\",\"Testing\",\"Stims/Figures/84-J-0-2.bmp\",\"va:shava\",\"Up\",\"40\",\"3\",\"19\",\"8\",\"C1\",\"J\",\"67\"
\"\",\"\",\"approach-retreat\",\"216\",\"1775427\",\"0.0-216.0\",\"\",\"\",\"2-5\",\"5498\",\"38\",\"0\",\"Testing\",\"Stims/Figures/128-C-30-3.bmp\",\"sahaza\",\"Down\",\"40\",\"3\",\"20\",\"8\",\"C2\",\"J\",\"68\"
\"\",\"\",\"approach-retreat\",\"217\",\"1780876\",\"0.0-217.0\",\"\",\"\",\"2-5\",\"3940\",\"39\",\"0\",\"Testing\",\"Stims/Figures/19-J-10-4.bmp\",\"za:ha:za\",\"Right\",\"37\",\"3\",\"21\",\"8\",\"C2\",\"J\",\"69\"
\"\",\"\",\"approach-retreat\",\"218\",\"1787059\",\"0.0-218.0\",\"\",\"\",\"2-5\",\"4674\",\"38\",\"0\",\"Testing\",\"Stims/Figures/111-C-30-3.bmp\",\"sa:sa:ha\",\"Down\",\"40\",\"3\",\"22\",\"8\",\"C2\",\"J\",\"70\"
\"\",\"\",\"approach-retreat\",\"219\",\"1794356\",\"0.0-219.0\",\"\",\"\",\"2-5\",\"5783\",\"39\",\"0\",\"Testing\",\"Stims/Figures/19-C-20-4.bmp\",\"zasa:za\",\"Left\",\"37\",\"3\",\"23\",\"8\",\"C2\",\"J\",\"71\"
\"\",\"\",\"approach-retreat\",\"220\",\"1801539\",\"0.0-220.0\",\"\",\"\",\"2-5\",\"5673\",\"40\",\"1\",\"Testing\",\"Stims/Figures/85-J-0-2.bmp\",\"fasha:va\",\"Up\",\"40\",\"3\",\"24\",\"8\",\"C1\",\"J\",\"72\"
\"\",\"\",\"approach-retreat\",\"221\",\"1807637\",\"0.0-221.0\",\"\",\"\",\"2-5\",\"4588\",\"39\",\"1\",\"Testing\",\"Stims/Figures/71-J-0-1.bmp\",\"fa:fa:sha\",\"Left\",\"39\",\"4\",\"1\",\"8\",\"C1\",\"J\",\"73\"
\"\",\"\",\"approach-retreat\",\"222\",\"1814107\",\"0.0-222.0\",\"\",\"\",\"2-5\",\"4963\",\"37\",\"1\",\"Testing\",\"Stims/Figures/19-J-10-4.bmp\",\"za:ha:za\",\"Right\",\"37\",\"4\",\"2\",\"8\",\"C2\",\"J\",\"74\"
\"\",\"\",\"approach-retreat\",\"223\",\"1820501\",\"0.0-223.0\",\"\",\"\",\"2-5\",\"4888\",\"39\",\"0\",\"Testing\",\"Stims/Figures/128-J-10-3.bmp\",\"sa:sa:za\",\"Right\",\"37\",\"4\",\"3\",\"8\",\"C2\",\"J\",\"75\"
\"\",\"\",\"approach-retreat\",\"224\",\"1826459\",\"0.0-224.0\",\"\",\"\",\"2-5\",\"4450\",\"40\",\"1\",\"Testing\",\"Stims/Figures/71-C-30-1.bmp\",\"fa:fa:va\",\"Down\",\"40\",\"4\",\"4\",\"8\",\"C1\",\"J\",\"76\"
\"\",\"\",\"approach-retreat\",\"225\",\"1832725\",\"0.0-225.0\",\"\",\"\",\"2-5\",\"4755\",\"40\",\"1\",\"Testing\",\"Stims/Figures/74-C-20-4.bmp\",\"za:ha:ha\",\"Down\",\"40\",\"4\",\"5\",\"8\",\"C2\",\"J\",\"77\"
\"\",\"\",\"approach-retreat\",\"226\",\"1839707\",\"0.0-226.0\",\"\",\"\",\"2-5\",\"5475\",\"40\",\"1\",\"Testing\",\"Stims/Figures/94-C-20-2.bmp\",\"va:fa:va\",\"Down\",\"40\",\"4\",\"6\",\"8\",\"C1\",\"J\",\"78\"
\"\",\"\",\"approach-retreat\",\"227\",\"1846340\",\"0.0-227.0\",\"\",\"\",\"2-5\",\"5123\",\"38\",\"0\",\"Testing\",\"Stims/Figures/19-C-20-4.bmp\",\"zasa:za\",\"Down\",\"40\",\"4\",\"7\",\"8\",\"C2\",\"J\",\"79\"
\"\",\"\",\"approach-retreat\",\"228\",\"1851651\",\"0.0-228.0\",\"\",\"\",\"2-5\",\"3802\",\"39\",\"0\",\"Testing\",\"Stims/Figures/7-C-20-4.bmp\",\"sa:haza\",\"Left\",\"37\",\"4\",\"8\",\"8\",\"C2\",\"J\",\"80\"
\"\",\"\",\"approach-retreat\",\"229\",\"1858124\",\"0.0-229.0\",\"\",\"\",\"2-5\",\"4964\",\"37\",\"0\",\"Testing\",\"Stims/Figures/57-J-0-1.bmp\",\"vasha:sha\",\"Left\",\"39\",\"4\",\"9\",\"8\",\"C1\",\"J\",\"81\"
\"\",\"\",\"approach-retreat\",\"230\",\"1864659\",\"0.0-230.0\",\"\",\"\",\"2-5\",\"5026\",\"38\",\"1\",\"Testing\",\"Stims/Figures/84-C-20-2.bmp\",\"fa:fasha\",\"Up\",\"38\",\"4\",\"10\",\"8\",\"C1\",\"J\",\"82\"
\"\",\"\",\"approach-retreat\",\"231\",\"1870421\",\"0.0-231.0\",\"\",\"\",\"2-5\",\"4252\",\"40\",\"1\",\"Testing\",\"Stims/Figures/27-J-0-1.bmp\",\"vafa:sha\",\"Up\",\"40\",\"4\",\"11\",\"8\",\"C1\",\"J\",\"83\"
\"\",\"\",\"approach-retreat\",\"232\",\"1876443\",\"0.0-232.0\",\"\",\"\",\"2-5\",\"4514\",\"37\",\"1\",\"Testing\",\"Stims/Figures/94-J-0-2.bmp\",\"fafa:sha\",\"Right\",\"37\",\"4\",\"12\",\"8\",\"C1\",\"J\",\"84\"
\"\",\"\",\"approach-retreat\",\"233\",\"1883269\",\"0.0-233.0\",\"\",\"\",\"2-5\",\"5315\",\"38\",\"0\",\"Testing\",\"Stims/Figures/74-J-10-4.bmp\",\"zasaha\",\"Up\",\"40\",\"4\",\"13\",\"8\",\"C2\",\"J\",\"85\"
\"\",\"\",\"approach-retreat\",\"234\",\"1889587\",\"0.0-234.0\",\"\",\"\",\"2-5\",\"4810\",\"39\",\"0\",\"Testing\",\"Stims/Figures/128-C-30-3.bmp\",\"sahaza\",\"Left\",\"37\",\"4\",\"14\",\"8\",\"C2\",\"J\",\"86\"
\"\",\"\",\"approach-retreat\",\"235\",\"1897580\",\"0.0-235.0\",\"\",\"\",\"2-5\",\"6484\",\"39\",\"1\",\"Testing\",\"Stims/Figures/111-J-10-3.bmp\",\"za:saha\",\"Left\",\"39\",\"4\",\"15\",\"8\",\"C2\",\"J\",\"87\"
\"\",\"\",\"approach-retreat\",\"236\",\"1903812\",\"0.0-236.0\",\"\",\"\",\"2-5\",\"4722\",\"38\",\"0\",\"Testing\",\"Stims/Figures/144-J-10-3.bmp\",\"sa:saza\",\"Up\",\"40\",\"4\",\"16\",\"8\",\"C2\",\"J\",\"88\"
\"\",\"\",\"approach-retreat\",\"237\",\"1911908\",\"0.0-237.0\",\"\",\"\",\"2-5\",\"6588\",\"40\",\"0\",\"Testing\",\"Stims/Figures/27-C-30-1.bmp\",\"fa:sha:va\",\"Up\",\"38\",\"4\",\"17\",\"8\",\"C1\",\"J\",\"89\"
\"\",\"\",\"approach-retreat\",\"238\",\"1918532\",\"0.0-238.0\",\"\",\"\",\"2-5\",\"5114\",\"38\",\"1\",\"Testing\",\"Stims/Figures/7-J-10-4.bmp\",\"sasa:ha\",\"Down\",\"38\",\"4\",\"18\",\"8\",\"C2\",\"J\",\"90\"
\"\",\"\",\"approach-retreat\",\"239\",\"1925507\",\"0.0-239.0\",\"\",\"\",\"2-5\",\"5467\",\"39\",\"1\",\"Testing\",\"Stims/Figures/85-J-0-2.bmp\",\"fasha:va\",\"Left\",\"39\",\"4\",\"19\",\"8\",\"C1\",\"J\",\"91\"
\"\",\"\",\"approach-retreat\",\"240\",\"1931987\",\"0.0-240.0\",\"\",\"\",\"2-5\",\"4970\",\"40\",\"0\",\"Testing\",\"Stims/Figures/111-C-30-3.bmp\",\"sa:sa:ha\",\"Up\",\"38\",\"4\",\"20\",\"8\",\"C2\",\"J\",\"92\"
\"\",\"\",\"approach-retreat\",\"241\",\"1938076\",\"0.0-241.0\",\"\",\"\",\"2-5\",\"4579\",\"37\",\"1\",\"Testing\",\"Stims/Figures/84-J-0-2.bmp\",\"va:shava\",\"Right\",\"37\",\"4\",\"21\",\"8\",\"C1\",\"J\",\"93\"
\"\",\"\",\"approach-retreat\",\"242\",\"1944436\",\"0.0-242.0\",\"\",\"\",\"2-5\",\"4850\",\"37\",\"0\",\"Testing\",\"Stims/Figures/144-C-30-3.bmp\",\"zasaza\",\"Right\",\"39\",\"4\",\"22\",\"8\",\"C2\",\"J\",\"94\"
\"\",\"\",\"approach-retreat\",\"243\",\"1950604\",\"0.0-243.0\",\"\",\"\",\"2-5\",\"4660\",\"39\",\"1\",\"Testing\",\"Stims/Figures/57-C-30-1.bmp\",\"fasha:sha\",\"Right\",\"39\",\"4\",\"23\",\"8\",\"C1\",\"J\",\"95\"
\"\",\"\",\"approach-retreat\",\"244\",\"1956339\",\"0.0-244.0\",\"\",\"\",\"2-5\",\"4226\",\"38\",\"0\",\"Testing\",\"Stims/Figures/85-C-20-2.bmp\",\"fafava\",\"Down\",\"40\",\"4\",\"24\",\"8\",\"C1\",\"J\",\"96\"
\"63279\",\"\",\"survey-text\",\"245\",\"2019629\",\"0.0-245.0\",\"\",\"{\"\"Q0\"\":\"\"1269/2017\"\"}\",\"\",\"\",\"\",\"\",\"\",\"\",\"\",\"\",\"\",\"\",\"\",\"\",\"\",\"\",\"\"
