\"rt\",\"key_press\",\"trial_type\",\"trial_index\",\"time_elapsed\",\"internal_node_id\",\"view_history\",\"responses\",\"Id\",\"Rt\",\"ResKeyCode\",\"ResCorr\",\"TrialType2\",\"Image\",\"Label\",\"Location\",\"CorrectResponse\",\"Block\",\"BlockTrial\",\"Condition\",\"LabelType\",\"Subcondition\",\"trialNum\"
\"4331\",\"32\",\"text\",\"0\",\"4334\",\"0.0-0.0-0.0\",\"\",\"\",\"\",\"\",\"\",\"\",\"\",\"\",\"\",\"\",\"\",\"\",\"\",\"\",\"\",\"\",\"\"
\"109220\",\"\",\"instructions\",\"1\",\"113555\",\"0.0-1.0\",\"[{\"\"page_index\"\":0,\"\"viewing_time\"\":109219}]\",\"\",\"\",\"\",\"\",\"\",\"\",\"\",\"\",\"\",\"\",\"\",\"\",\"\",\"\",\"\",\"\"
\"44516\",\"\",\"survey-multi-choice\",\"2\",\"158118\",\"0.0-2.0\",\"\",\"{\"\"Q0\"\":\"\"Da\"\",\"\"Q1\"\":\"\"Da\"\",\"\"Q2\"\":\"\"Da\"\",\"\"Q3\"\":\"\"Da\"\",\"\"Q4\"\":\"\"Da\"\",\"\"Q5\"\":\"\"Da\"\"}\",\"\",\"\",\"\",\"\",\"\",\"\",\"\",\"\",\"\",\"\",\"\",\"\",\"\",\"\",\"\"
\"\",\"\",\"bio\",\"3\",\"167061\",\"0.0-3.0\",\"\",\"{\"\"age\"\":\"\"20\"\",\"\"gender\"\":\"\"f\"\",\"\"specify\"\":\"\"\"\"}\",\"\",\"\",\"\",\"\",\"\",\"\",\"\",\"\",\"\",\"\",\"\",\"\",\"\",\"\",\"\"
\"\",\"\",\"approach-retreat\",\"4\",\"178175\",\"0.0-4.0\",\"\",\"\",\"1-4\",\"9594\",\"37\",\"1\",\"Training\",\"Stims/Figures/44-C-30-3.bmp\",\"za:ha:ha\",\"Left\",\"37\",\"1\",\"1\",\"6A\",\"C2\",\"J\",\"1\"
\"\",\"\",\"approach-retreat\",\"5\",\"187139\",\"0.0-5.0\",\"\",\"\",\"1-4\",\"7450\",\"40\",\"1\",\"Training\",\"Stims/Figures/118-C-20-2.bmp\",\"zahaza\",\"Down\",\"40\",\"1\",\"2\",\"6A\",\"C2\",\"J\",\"2\"
\"\",\"\",\"approach-retreat\",\"6\",\"197269\",\"0.0-6.0\",\"\",\"\",\"1-4\",\"8619\",\"39\",\"1\",\"Training\",\"Stims/Figures/139-J-0-2.bmp\",\"fafa:sha\",\"Left\",\"39\",\"1\",\"3\",\"6A\",\"C1\",\"J\",\"3\"
\"\",\"\",\"approach-retreat\",\"7\",\"204027\",\"0.0-7.0\",\"\",\"\",\"1-4\",\"5247\",\"40\",\"1\",\"Training\",\"Stims/Figures/128-J-10-3.bmp\",\"va:sha:va\",\"Up\",\"40\",\"1\",\"4\",\"6A\",\"C1\",\"J\",\"4\"
\"\",\"\",\"approach-retreat\",\"8\",\"210323\",\"0.0-8.0\",\"\",\"\",\"1-4\",\"4785\",\"40\",\"0\",\"Training\",\"Stims/Figures/118-J-0-2.bmp\",\"va:fasha\",\"Down\",\"38\",\"1\",\"5\",\"6A\",\"C1\",\"J\",\"5\"
\"\",\"\",\"approach-retreat\",\"9\",\"219371\",\"0.0-9.0\",\"\",\"\",\"1-4\",\"7534\",\"39\",\"1\",\"Training\",\"Stims/Figures/7-J-10-4.bmp\",\"va:fa:va\",\"Left\",\"39\",\"1\",\"6\",\"6A\",\"C1\",\"J\",\"6\"
\"\",\"\",\"approach-retreat\",\"10\",\"229057\",\"0.0-10.0\",\"\",\"\",\"1-4\",\"8175\",\"38\",\"1\",\"Training\",\"Stims/Figures/128-C-30-3.bmp\",\"sa:sa:za\",\"Up\",\"38\",\"1\",\"7\",\"6A\",\"C2\",\"J\",\"7\"
\"\",\"\",\"approach-retreat\",\"11\",\"235493\",\"0.0-11.0\",\"\",\"\",\"1-4\",\"4924\",\"38\",\"1\",\"Training\",\"Stims/Figures/19-C-20-4.bmp\",\"sasa:ha\",\"Up\",\"38\",\"1\",\"8\",\"6A\",\"C2\",\"J\",\"8\"
\"\",\"\",\"approach-retreat\",\"12\",\"247973\",\"0.0-12.0\",\"\",\"\",\"1-4\",\"10968\",\"39\",\"0\",\"Training\",\"Stims/Figures/44-J-10-3.bmp\",\"fashasha\",\"Right\",\"37\",\"1\",\"9\",\"6A\",\"C1\",\"J\",\"9\"
\"\",\"\",\"approach-retreat\",\"13\",\"256605\",\"0.0-13.0\",\"\",\"\",\"1-4\",\"7121\",\"37\",\"1\",\"Training\",\"Stims/Figures/93-J-0-1.bmp\",\"vasha:sha\",\"Right\",\"37\",\"1\",\"10\",\"6A\",\"C1\",\"J\",\"10\"
\"\",\"\",\"approach-retreat\",\"14\",\"264212\",\"0.0-14.0\",\"\",\"\",\"1-4\",\"6095\",\"40\",\"1\",\"Training\",\"Stims/Figures/7-C-20-4.bmp\",\"za:saza\",\"Down\",\"40\",\"1\",\"11\",\"6A\",\"C2\",\"J\",\"11\"
\"\",\"\",\"approach-retreat\",\"15\",\"271349\",\"0.0-15.0\",\"\",\"\",\"1-4\",\"5625\",\"40\",\"1\",\"Training\",\"Stims/Figures/57-J-0-1.bmp\",\"fa:fa:va\",\"Up\",\"40\",\"1\",\"12\",\"6A\",\"C1\",\"J\",\"12\"
\"\",\"\",\"approach-retreat\",\"16\",\"280154\",\"0.0-16.0\",\"\",\"\",\"1-4\",\"7295\",\"39\",\"1\",\"Training\",\"Stims/Figures/57-C-30-1.bmp\",\"za:saha\",\"Right\",\"39\",\"1\",\"13\",\"6A\",\"C2\",\"J\",\"13\"
\"\",\"\",\"approach-retreat\",\"17\",\"288009\",\"0.0-17.0\",\"\",\"\",\"1-4\",\"6342\",\"37\",\"1\",\"Training\",\"Stims/Figures/93-C-30-1.bmp\",\"za:ha:za\",\"Left\",\"37\",\"1\",\"14\",\"6A\",\"C2\",\"J\",\"14\"
\"\",\"\",\"approach-retreat\",\"18\",\"294690\",\"0.0-18.0\",\"\",\"\",\"1-4\",\"5169\",\"40\",\"0\",\"Training\",\"Stims/Figures/19-J-10-4.bmp\",\"vafa:sha\",\"Down\",\"38\",\"1\",\"15\",\"6A\",\"C1\",\"J\",\"15\"
\"\",\"\",\"approach-retreat\",\"19\",\"304610\",\"0.0-19.0\",\"\",\"\",\"1-4\",\"8407\",\"37\",\"0\",\"Training\",\"Stims/Figures/139-C-20-2.bmp\",\"sahaha\",\"Right\",\"39\",\"1\",\"16\",\"6A\",\"C2\",\"J\",\"16\"
\"\",\"\",\"approach-retreat\",\"20\",\"314466\",\"0.0-20.0\",\"\",\"\",\"1-4\",\"8344\",\"37\",\"0\",\"Training\",\"Stims/Figures/44-C-30-3.bmp\",\"za:ha:ha\",\"Right\",\"39\",\"2\",\"1\",\"6A\",\"C2\",\"J\",\"17\"
\"\",\"\",\"approach-retreat\",\"21\",\"320754\",\"0.0-21.0\",\"\",\"\",\"1-4\",\"4776\",\"37\",\"1\",\"Training\",\"Stims/Figures/93-J-0-1.bmp\",\"vasha:sha\",\"Right\",\"37\",\"2\",\"2\",\"6A\",\"C1\",\"J\",\"18\"
\"\",\"\",\"approach-retreat\",\"22\",\"327902\",\"0.0-22.0\",\"\",\"\",\"1-4\",\"5637\",\"37\",\"1\",\"Training\",\"Stims/Figures/118-C-20-2.bmp\",\"zahaza\",\"Left\",\"37\",\"2\",\"3\",\"6A\",\"C2\",\"J\",\"19\"
\"\",\"\",\"approach-retreat\",\"23\",\"334936\",\"0.0-23.0\",\"\",\"\",\"1-4\",\"5522\",\"38\",\"1\",\"Training\",\"Stims/Figures/93-C-30-1.bmp\",\"za:ha:za\",\"Up\",\"38\",\"2\",\"4\",\"6A\",\"C2\",\"J\",\"20\"
\"\",\"\",\"approach-retreat\",\"24\",\"342732\",\"0.0-24.0\",\"\",\"\",\"1-4\",\"6285\",\"40\",\"1\",\"Training\",\"Stims/Figures/19-J-10-4.bmp\",\"vafa:sha\",\"Up\",\"40\",\"2\",\"5\",\"6A\",\"C1\",\"J\",\"21\"
\"\",\"\",\"approach-retreat\",\"25\",\"349373\",\"0.0-25.0\",\"\",\"\",\"1-4\",\"5129\",\"39\",\"1\",\"Training\",\"Stims/Figures/57-C-30-1.bmp\",\"za:saha\",\"Right\",\"39\",\"2\",\"6\",\"6A\",\"C2\",\"J\",\"22\"
\"\",\"\",\"approach-retreat\",\"26\",\"355872\",\"0.0-26.0\",\"\",\"\",\"1-4\",\"4986\",\"40\",\"1\",\"Training\",\"Stims/Figures/128-C-30-3.bmp\",\"sa:sa:za\",\"Down\",\"40\",\"2\",\"7\",\"6A\",\"C2\",\"J\",\"23\"
\"\",\"\",\"approach-retreat\",\"27\",\"362962\",\"0.0-27.0\",\"\",\"\",\"1-4\",\"5577\",\"37\",\"0\",\"Training\",\"Stims/Figures/128-J-10-3.bmp\",\"va:sha:va\",\"Left\",\"39\",\"2\",\"8\",\"6A\",\"C1\",\"J\",\"24\"
\"\",\"\",\"approach-retreat\",\"28\",\"370255\",\"0.0-28.0\",\"\",\"\",\"1-4\",\"5779\",\"38\",\"1\",\"Training\",\"Stims/Figures/139-J-0-2.bmp\",\"fafa:sha\",\"Down\",\"38\",\"2\",\"9\",\"6A\",\"C1\",\"J\",\"25\"
\"\",\"\",\"approach-retreat\",\"29\",\"376707\",\"0.0-29.0\",\"\",\"\",\"1-4\",\"4942\",\"39\",\"1\",\"Training\",\"Stims/Figures/118-J-0-2.bmp\",\"va:fasha\",\"Left\",\"39\",\"2\",\"10\",\"6A\",\"C1\",\"J\",\"26\"
\"\",\"\",\"approach-retreat\",\"30\",\"383434\",\"0.0-30.0\",\"\",\"\",\"1-4\",\"5211\",\"39\",\"0\",\"Training\",\"Stims/Figures/19-C-20-4.bmp\",\"sasa:ha\",\"Left\",\"37\",\"2\",\"11\",\"6A\",\"C2\",\"J\",\"27\"
\"\",\"\",\"approach-retreat\",\"31\",\"391935\",\"0.0-31.0\",\"\",\"\",\"1-4\",\"6989\",\"40\",\"1\",\"Training\",\"Stims/Figures/7-C-20-4.bmp\",\"za:saza\",\"Down\",\"40\",\"2\",\"12\",\"6A\",\"C2\",\"J\",\"28\"
\"\",\"\",\"approach-retreat\",\"32\",\"399253\",\"0.0-32.0\",\"\",\"\",\"1-4\",\"5806\",\"37\",\"1\",\"Training\",\"Stims/Figures/57-J-0-1.bmp\",\"fa:fa:va\",\"Right\",\"37\",\"2\",\"13\",\"6A\",\"C1\",\"J\",\"29\"
\"\",\"\",\"approach-retreat\",\"33\",\"406463\",\"0.0-33.0\",\"\",\"\",\"1-4\",\"5696\",\"38\",\"0\",\"Training\",\"Stims/Figures/44-J-10-3.bmp\",\"fashasha\",\"Up\",\"40\",\"2\",\"14\",\"6A\",\"C1\",\"J\",\"30\"
\"\",\"\",\"approach-retreat\",\"34\",\"413160\",\"0.0-34.0\",\"\",\"\",\"1-4\",\"5186\",\"38\",\"1\",\"Training\",\"Stims/Figures/7-J-10-4.bmp\",\"va:fa:va\",\"Down\",\"38\",\"2\",\"15\",\"6A\",\"C1\",\"J\",\"31\"
\"\",\"\",\"approach-retreat\",\"35\",\"419362\",\"0.0-35.0\",\"\",\"\",\"1-4\",\"4690\",\"38\",\"1\",\"Training\",\"Stims/Figures/139-C-20-2.bmp\",\"sahaha\",\"Up\",\"38\",\"2\",\"16\",\"6A\",\"C2\",\"J\",\"32\"
\"\",\"\",\"approach-retreat\",\"36\",\"425217\",\"0.0-36.0\",\"\",\"\",\"1-4\",\"4343\",\"39\",\"1\",\"Training\",\"Stims/Figures/44-C-30-3.bmp\",\"za:ha:ha\",\"Right\",\"39\",\"3\",\"1\",\"6A\",\"C2\",\"J\",\"33\"
\"\",\"\",\"approach-retreat\",\"37\",\"431538\",\"0.0-37.0\",\"\",\"\",\"1-4\",\"4809\",\"38\",\"1\",\"Training\",\"Stims/Figures/139-C-20-2.bmp\",\"sahaha\",\"Up\",\"38\",\"3\",\"2\",\"6A\",\"C2\",\"J\",\"34\"
\"\",\"\",\"approach-retreat\",\"38\",\"437340\",\"0.0-38.0\",\"\",\"\",\"1-4\",\"4290\",\"38\",\"1\",\"Training\",\"Stims/Figures/93-C-30-1.bmp\",\"za:ha:za\",\"Up\",\"38\",\"3\",\"3\",\"6A\",\"C2\",\"J\",\"35\"
\"\",\"\",\"approach-retreat\",\"39\",\"443042\",\"0.0-39.0\",\"\",\"\",\"1-4\",\"4191\",\"38\",\"1\",\"Training\",\"Stims/Figures/139-J-0-2.bmp\",\"fafa:sha\",\"Down\",\"38\",\"3\",\"4\",\"6A\",\"C1\",\"J\",\"36\"
\"\",\"\",\"approach-retreat\",\"40\",\"450102\",\"0.0-40.0\",\"\",\"\",\"1-4\",\"5548\",\"39\",\"1\",\"Training\",\"Stims/Figures/44-J-10-3.bmp\",\"fashasha\",\"Left\",\"39\",\"3\",\"5\",\"6A\",\"C1\",\"J\",\"37\"
\"\",\"\",\"approach-retreat\",\"41\",\"456618\",\"0.0-41.0\",\"\",\"\",\"1-4\",\"5004\",\"37\",\"1\",\"Training\",\"Stims/Figures/118-C-20-2.bmp\",\"zahaza\",\"Left\",\"37\",\"3\",\"6\",\"6A\",\"C2\",\"J\",\"38\"
\"\",\"\",\"approach-retreat\",\"42\",\"466193\",\"0.0-42.0\",\"\",\"\",\"1-4\",\"8064\",\"38\",\"1\",\"Training\",\"Stims/Figures/118-J-0-2.bmp\",\"va:fasha\",\"Down\",\"38\",\"3\",\"7\",\"6A\",\"C1\",\"J\",\"39\"
\"\",\"\",\"approach-retreat\",\"43\",\"472641\",\"0.0-43.0\",\"\",\"\",\"1-4\",\"4934\",\"39\",\"1\",\"Training\",\"Stims/Figures/93-J-0-1.bmp\",\"vasha:sha\",\"Left\",\"39\",\"3\",\"8\",\"6A\",\"C1\",\"J\",\"40\"
\"\",\"\",\"approach-retreat\",\"44\",\"479492\",\"0.0-44.0\",\"\",\"\",\"1-4\",\"5339\",\"38\",\"0\",\"Training\",\"Stims/Figures/7-J-10-4.bmp\",\"va:fa:va\",\"Up\",\"40\",\"3\",\"9\",\"6A\",\"C1\",\"J\",\"41\"
\"\",\"\",\"approach-retreat\",\"45\",\"485524\",\"0.0-45.0\",\"\",\"\",\"1-4\",\"4520\",\"37\",\"0\",\"Training\",\"Stims/Figures/19-C-20-4.bmp\",\"sasa:ha\",\"Right\",\"39\",\"3\",\"10\",\"6A\",\"C2\",\"J\",\"42\"
\"\",\"\",\"approach-retreat\",\"46\",\"492303\",\"0.0-46.0\",\"\",\"\",\"1-4\",\"5269\",\"38\",\"1\",\"Training\",\"Stims/Figures/57-J-0-1.bmp\",\"fa:fa:va\",\"Down\",\"38\",\"3\",\"11\",\"6A\",\"C1\",\"J\",\"43\"
\"\",\"\",\"approach-retreat\",\"47\",\"498446\",\"0.0-47.0\",\"\",\"\",\"1-4\",\"4631\",\"37\",\"0\",\"Training\",\"Stims/Figures/128-J-10-3.bmp\",\"va:sha:va\",\"Left\",\"39\",\"3\",\"12\",\"6A\",\"C1\",\"J\",\"44\"
\"\",\"\",\"approach-retreat\",\"48\",\"504313\",\"0.0-48.0\",\"\",\"\",\"1-4\",\"4353\",\"39\",\"1\",\"Training\",\"Stims/Figures/128-C-30-3.bmp\",\"sa:sa:za\",\"Right\",\"39\",\"3\",\"13\",\"6A\",\"C2\",\"J\",\"45\"
\"\",\"\",\"approach-retreat\",\"49\",\"510355\",\"0.0-49.0\",\"\",\"\",\"1-4\",\"4531\",\"38\",\"0\",\"Training\",\"Stims/Figures/19-J-10-4.bmp\",\"vafa:sha\",\"Up\",\"40\",\"3\",\"14\",\"6A\",\"C1\",\"J\",\"46\"
\"\",\"\",\"approach-retreat\",\"50\",\"516404\",\"0.0-50.0\",\"\",\"\",\"1-4\",\"4536\",\"39\",\"1\",\"Training\",\"Stims/Figures/7-C-20-4.bmp\",\"za:saza\",\"Right\",\"39\",\"3\",\"15\",\"6A\",\"C2\",\"J\",\"47\"
\"\",\"\",\"approach-retreat\",\"51\",\"523021\",\"0.0-51.0\",\"\",\"\",\"1-4\",\"5104\",\"40\",\"1\",\"Training\",\"Stims/Figures/57-C-30-1.bmp\",\"za:saha\",\"Down\",\"40\",\"3\",\"16\",\"6A\",\"C2\",\"J\",\"48\"
\"\",\"\",\"approach-retreat\",\"52\",\"528886\",\"0.0-52.0\",\"\",\"\",\"1-4\",\"4353\",\"37\",\"0\",\"Training\",\"Stims/Figures/93-J-0-1.bmp\",\"vasha:sha\",\"Left\",\"39\",\"4\",\"1\",\"6A\",\"C1\",\"J\",\"49\"
\"\",\"\",\"approach-retreat\",\"53\",\"534813\",\"0.0-53.0\",\"\",\"\",\"1-4\",\"4414\",\"39\",\"1\",\"Training\",\"Stims/Figures/7-J-10-4.bmp\",\"va:fa:va\",\"Left\",\"39\",\"4\",\"2\",\"6A\",\"C1\",\"J\",\"50\"
\"\",\"\",\"approach-retreat\",\"54\",\"540559\",\"0.0-54.0\",\"\",\"\",\"1-4\",\"4234\",\"38\",\"1\",\"Training\",\"Stims/Figures/7-C-20-4.bmp\",\"za:saza\",\"Up\",\"38\",\"4\",\"3\",\"6A\",\"C2\",\"J\",\"51\"
\"\",\"\",\"approach-retreat\",\"55\",\"546790\",\"0.0-55.0\",\"\",\"\",\"1-4\",\"4720\",\"38\",\"1\",\"Training\",\"Stims/Figures/93-C-30-1.bmp\",\"za:ha:za\",\"Up\",\"38\",\"4\",\"4\",\"6A\",\"C2\",\"J\",\"52\"
\"\",\"\",\"approach-retreat\",\"56\",\"552583\",\"0.0-56.0\",\"\",\"\",\"1-4\",\"4280\",\"39\",\"0\",\"Training\",\"Stims/Figures/128-J-10-3.bmp\",\"va:sha:va\",\"Right\",\"37\",\"4\",\"5\",\"6A\",\"C1\",\"J\",\"53\"
\"\",\"\",\"approach-retreat\",\"57\",\"559497\",\"0.0-57.0\",\"\",\"\",\"1-4\",\"5403\",\"38\",\"1\",\"Training\",\"Stims/Figures/57-C-30-1.bmp\",\"za:saha\",\"Up\",\"38\",\"4\",\"6\",\"6A\",\"C2\",\"J\",\"54\"
\"\",\"\",\"approach-retreat\",\"58\",\"565677\",\"0.0-58.0\",\"\",\"\",\"1-4\",\"4664\",\"39\",\"0\",\"Training\",\"Stims/Figures/19-J-10-4.bmp\",\"vafa:sha\",\"Right\",\"37\",\"4\",\"7\",\"6A\",\"C1\",\"J\",\"55\"
\"\",\"\",\"approach-retreat\",\"59\",\"571853\",\"0.0-59.0\",\"\",\"\",\"1-4\",\"4664\",\"37\",\"1\",\"Training\",\"Stims/Figures/44-C-30-3.bmp\",\"za:ha:ha\",\"Left\",\"37\",\"4\",\"8\",\"6A\",\"C2\",\"J\",\"56\"
\"\",\"\",\"approach-retreat\",\"60\",\"577854\",\"0.0-60.0\",\"\",\"\",\"1-4\",\"4489\",\"40\",\"1\",\"Training\",\"Stims/Figures/139-C-20-2.bmp\",\"sahaha\",\"Down\",\"40\",\"4\",\"9\",\"6A\",\"C2\",\"J\",\"57\"
\"\",\"\",\"approach-retreat\",\"61\",\"585410\",\"0.0-61.0\",\"\",\"\",\"1-4\",\"6044\",\"37\",\"1\",\"Training\",\"Stims/Figures/57-J-0-1.bmp\",\"fa:fa:va\",\"Right\",\"37\",\"4\",\"10\",\"6A\",\"C1\",\"J\",\"58\"
\"\",\"\",\"approach-retreat\",\"62\",\"591825\",\"0.0-62.0\",\"\",\"\",\"1-4\",\"4904\",\"40\",\"1\",\"Training\",\"Stims/Figures/139-J-0-2.bmp\",\"fafa:sha\",\"Up\",\"40\",\"4\",\"11\",\"6A\",\"C1\",\"J\",\"59\"
\"\",\"\",\"approach-retreat\",\"63\",\"599341\",\"0.0-63.0\",\"\",\"\",\"1-4\",\"6003\",\"37\",\"1\",\"Training\",\"Stims/Figures/118-C-20-2.bmp\",\"zahaza\",\"Left\",\"37\",\"4\",\"12\",\"6A\",\"C2\",\"J\",\"60\"
\"\",\"\",\"approach-retreat\",\"64\",\"605518\",\"0.0-64.0\",\"\",\"\",\"1-4\",\"4666\",\"40\",\"1\",\"Training\",\"Stims/Figures/128-C-30-3.bmp\",\"sa:sa:za\",\"Down\",\"40\",\"4\",\"13\",\"6A\",\"C2\",\"J\",\"61\"
\"\",\"\",\"approach-retreat\",\"65\",\"612071\",\"0.0-65.0\",\"\",\"\",\"1-4\",\"5044\",\"37\",\"1\",\"Training\",\"Stims/Figures/118-J-0-2.bmp\",\"va:fasha\",\"Right\",\"37\",\"4\",\"14\",\"6A\",\"C1\",\"J\",\"62\"
\"\",\"\",\"approach-retreat\",\"66\",\"618666\",\"0.0-66.0\",\"\",\"\",\"1-4\",\"5082\",\"38\",\"0\",\"Training\",\"Stims/Figures/19-C-20-4.bmp\",\"sasa:ha\",\"Down\",\"40\",\"4\",\"15\",\"6A\",\"C2\",\"J\",\"63\"
\"\",\"\",\"approach-retreat\",\"67\",\"625392\",\"0.0-67.0\",\"\",\"\",\"1-4\",\"5210\",\"38\",\"1\",\"Training\",\"Stims/Figures/44-J-10-3.bmp\",\"fashasha\",\"Down\",\"38\",\"4\",\"16\",\"6A\",\"C1\",\"J\",\"64\"
\"\",\"\",\"approach-retreat\",\"68\",\"631607\",\"0.0-68.0\",\"\",\"\",\"1-4\",\"4705\",\"40\",\"1\",\"Training\",\"Stims/Figures/118-J-0-2.bmp\",\"va:fasha\",\"Up\",\"40\",\"5\",\"1\",\"6A\",\"C1\",\"J\",\"65\"
\"\",\"\",\"approach-retreat\",\"69\",\"639836\",\"0.0-69.0\",\"\",\"\",\"1-4\",\"6717\",\"37\",\"1\",\"Training\",\"Stims/Figures/19-C-20-4.bmp\",\"sasa:ha\",\"Left\",\"37\",\"5\",\"2\",\"6A\",\"C2\",\"J\",\"66\"
\"\",\"\",\"approach-retreat\",\"70\",\"646206\",\"0.0-70.0\",\"\",\"\",\"1-4\",\"4858\",\"38\",\"1\",\"Training\",\"Stims/Figures/118-C-20-2.bmp\",\"zahaza\",\"Up\",\"38\",\"5\",\"3\",\"6A\",\"C2\",\"J\",\"67\"
\"\",\"\",\"approach-retreat\",\"71\",\"653377\",\"0.0-71.0\",\"\",\"\",\"1-4\",\"5660\",\"38\",\"1\",\"Training\",\"Stims/Figures/57-J-0-1.bmp\",\"fa:fa:va\",\"Down\",\"38\",\"5\",\"4\",\"6A\",\"C1\",\"J\",\"68\"
\"\",\"\",\"approach-retreat\",\"72\",\"660909\",\"0.0-72.0\",\"\",\"\",\"1-4\",\"6019\",\"37\",\"1\",\"Training\",\"Stims/Figures/7-C-20-4.bmp\",\"za:saza\",\"Left\",\"37\",\"5\",\"5\",\"6A\",\"C2\",\"J\",\"69\"
\"\",\"\",\"approach-retreat\",\"73\",\"669210\",\"0.0-73.0\",\"\",\"\",\"1-4\",\"6789\",\"38\",\"1\",\"Training\",\"Stims/Figures/139-J-0-2.bmp\",\"fafa:sha\",\"Down\",\"38\",\"5\",\"6\",\"6A\",\"C1\",\"J\",\"70\"
\"\",\"\",\"approach-retreat\",\"74\",\"675660\",\"0.0-74.0\",\"\",\"\",\"1-4\",\"4937\",\"37\",\"1\",\"Training\",\"Stims/Figures/139-C-20-2.bmp\",\"sahaha\",\"Left\",\"37\",\"5\",\"7\",\"6A\",\"C2\",\"J\",\"71\"
\"\",\"\",\"approach-retreat\",\"75\",\"682027\",\"0.0-75.0\",\"\",\"\",\"1-4\",\"4855\",\"39\",\"1\",\"Training\",\"Stims/Figures/57-C-30-1.bmp\",\"za:saha\",\"Right\",\"39\",\"5\",\"8\",\"6A\",\"C2\",\"J\",\"72\"
\"\",\"\",\"approach-retreat\",\"76\",\"690185\",\"0.0-76.0\",\"\",\"\",\"1-4\",\"6648\",\"40\",\"1\",\"Training\",\"Stims/Figures/44-J-10-3.bmp\",\"fashasha\",\"Up\",\"40\",\"5\",\"9\",\"6A\",\"C1\",\"J\",\"73\"
\"\",\"\",\"approach-retreat\",\"77\",\"697266\",\"0.0-77.0\",\"\",\"\",\"1-4\",\"5569\",\"39\",\"0\",\"Training\",\"Stims/Figures/7-J-10-4.bmp\",\"va:fa:va\",\"Right\",\"37\",\"5\",\"10\",\"6A\",\"C1\",\"J\",\"74\"
\"\",\"\",\"approach-retreat\",\"78\",\"703419\",\"0.0-78.0\",\"\",\"\",\"1-4\",\"4642\",\"39\",\"1\",\"Training\",\"Stims/Figures/128-J-10-3.bmp\",\"va:sha:va\",\"Left\",\"39\",\"5\",\"11\",\"6A\",\"C1\",\"J\",\"75\"
\"\",\"\",\"approach-retreat\",\"79\",\"711096\",\"0.0-79.0\",\"\",\"\",\"1-4\",\"6167\",\"40\",\"1\",\"Training\",\"Stims/Figures/93-C-30-1.bmp\",\"za:ha:za\",\"Down\",\"40\",\"5\",\"12\",\"6A\",\"C2\",\"J\",\"76\"
\"\",\"\",\"approach-retreat\",\"80\",\"717900\",\"0.0-80.0\",\"\",\"\",\"1-4\",\"5290\",\"38\",\"1\",\"Training\",\"Stims/Figures/19-J-10-4.bmp\",\"vafa:sha\",\"Down\",\"38\",\"5\",\"13\",\"6A\",\"C1\",\"J\",\"77\"
\"\",\"\",\"approach-retreat\",\"81\",\"724803\",\"0.0-81.0\",\"\",\"\",\"1-4\",\"5390\",\"39\",\"1\",\"Training\",\"Stims/Figures/44-C-30-3.bmp\",\"za:ha:ha\",\"Right\",\"39\",\"5\",\"14\",\"6A\",\"C2\",\"J\",\"78\"
\"\",\"\",\"approach-retreat\",\"82\",\"733138\",\"0.0-82.0\",\"\",\"\",\"1-4\",\"6824\",\"37\",\"1\",\"Training\",\"Stims/Figures/93-J-0-1.bmp\",\"vasha:sha\",\"Right\",\"37\",\"5\",\"15\",\"6A\",\"C1\",\"J\",\"79\"
\"\",\"\",\"approach-retreat\",\"83\",\"739226\",\"0.0-83.0\",\"\",\"\",\"1-4\",\"4576\",\"38\",\"1\",\"Training\",\"Stims/Figures/128-C-30-3.bmp\",\"sa:sa:za\",\"Up\",\"38\",\"5\",\"16\",\"6A\",\"C2\",\"J\",\"80\"
\"\",\"\",\"approach-retreat\",\"84\",\"746039\",\"0.0-84.0\",\"\",\"\",\"1-4\",\"5298\",\"39\",\"1\",\"Training\",\"Stims/Figures/19-J-10-4.bmp\",\"vafa:sha\",\"Left\",\"39\",\"6\",\"1\",\"6A\",\"C1\",\"J\",\"81\"
\"\",\"\",\"approach-retreat\",\"85\",\"752576\",\"0.0-85.0\",\"\",\"\",\"1-4\",\"5027\",\"39\",\"1\",\"Training\",\"Stims/Figures/118-C-20-2.bmp\",\"zahaza\",\"Right\",\"39\",\"6\",\"2\",\"6A\",\"C2\",\"J\",\"82\"
\"\",\"\",\"approach-retreat\",\"86\",\"761360\",\"0.0-86.0\",\"\",\"\",\"1-4\",\"7271\",\"39\",\"1\",\"Training\",\"Stims/Figures/93-C-30-1.bmp\",\"za:ha:za\",\"Right\",\"39\",\"6\",\"3\",\"6A\",\"C2\",\"J\",\"83\"
\"\",\"\",\"approach-retreat\",\"87\",\"769220\",\"0.0-87.0\",\"\",\"\",\"1-4\",\"6348\",\"40\",\"1\",\"Training\",\"Stims/Figures/7-C-20-4.bmp\",\"za:saza\",\"Down\",\"40\",\"6\",\"4\",\"6A\",\"C2\",\"J\",\"84\"
\"\",\"\",\"approach-retreat\",\"88\",\"775831\",\"0.0-88.0\",\"\",\"\",\"1-4\",\"5098\",\"40\",\"1\",\"Training\",\"Stims/Figures/44-C-30-3.bmp\",\"za:ha:ha\",\"Down\",\"40\",\"6\",\"5\",\"6A\",\"C2\",\"J\",\"85\"
\"\",\"\",\"approach-retreat\",\"89\",\"781710\",\"0.0-89.0\",\"\",\"\",\"1-4\",\"4367\",\"37\",\"1\",\"Training\",\"Stims/Figures/128-C-30-3.bmp\",\"sa:sa:za\",\"Left\",\"37\",\"6\",\"6\",\"6A\",\"C2\",\"J\",\"86\"
\"\",\"\",\"approach-retreat\",\"90\",\"788455\",\"0.0-90.0\",\"\",\"\",\"1-4\",\"5234\",\"37\",\"1\",\"Training\",\"Stims/Figures/139-J-0-2.bmp\",\"fafa:sha\",\"Right\",\"37\",\"6\",\"7\",\"6A\",\"C1\",\"J\",\"87\"
\"\",\"\",\"approach-retreat\",\"91\",\"795772\",\"0.0-91.0\",\"\",\"\",\"1-4\",\"5802\",\"40\",\"1\",\"Training\",\"Stims/Figures/118-J-0-2.bmp\",\"va:fasha\",\"Up\",\"40\",\"6\",\"8\",\"6A\",\"C1\",\"J\",\"88\"
\"\",\"\",\"approach-retreat\",\"92\",\"802114\",\"0.0-92.0\",\"\",\"\",\"1-4\",\"4831\",\"40\",\"1\",\"Training\",\"Stims/Figures/19-C-20-4.bmp\",\"sasa:ha\",\"Down\",\"40\",\"6\",\"9\",\"6A\",\"C2\",\"J\",\"89\"
\"\",\"\",\"approach-retreat\",\"93\",\"808615\",\"0.0-93.0\",\"\",\"\",\"1-4\",\"4990\",\"38\",\"1\",\"Training\",\"Stims/Figures/139-C-20-2.bmp\",\"sahaha\",\"Up\",\"38\",\"6\",\"10\",\"6A\",\"C2\",\"J\",\"90\"
\"\",\"\",\"approach-retreat\",\"94\",\"817909\",\"0.0-94.0\",\"\",\"\",\"1-4\",\"7783\",\"37\",\"0\",\"Training\",\"Stims/Figures/128-J-10-3.bmp\",\"va:sha:va\",\"Left\",\"39\",\"6\",\"11\",\"6A\",\"C1\",\"J\",\"91\"
\"\",\"\",\"approach-retreat\",\"95\",\"824400\",\"0.0-95.0\",\"\",\"\",\"1-4\",\"4978\",\"38\",\"1\",\"Training\",\"Stims/Figures/57-C-30-1.bmp\",\"za:saha\",\"Up\",\"38\",\"6\",\"12\",\"6A\",\"C2\",\"J\",\"92\"
\"\",\"\",\"approach-retreat\",\"96\",\"830938\",\"0.0-96.0\",\"\",\"\",\"1-4\",\"5025\",\"37\",\"1\",\"Training\",\"Stims/Figures/57-J-0-1.bmp\",\"fa:fa:va\",\"Right\",\"37\",\"6\",\"13\",\"6A\",\"C1\",\"J\",\"93\"
\"\",\"\",\"approach-retreat\",\"97\",\"839212\",\"0.0-97.0\",\"\",\"\",\"1-4\",\"6762\",\"38\",\"1\",\"Training\",\"Stims/Figures/44-J-10-3.bmp\",\"fashasha\",\"Down\",\"38\",\"6\",\"14\",\"6A\",\"C1\",\"J\",\"94\"
\"\",\"\",\"approach-retreat\",\"98\",\"847586\",\"0.0-98.0\",\"\",\"\",\"1-4\",\"6862\",\"40\",\"1\",\"Training\",\"Stims/Figures/93-J-0-1.bmp\",\"vasha:sha\",\"Up\",\"40\",\"6\",\"15\",\"6A\",\"C1\",\"J\",\"95\"
\"\",\"\",\"approach-retreat\",\"99\",\"854315\",\"0.0-99.0\",\"\",\"\",\"1-4\",\"5218\",\"39\",\"1\",\"Training\",\"Stims/Figures/7-J-10-4.bmp\",\"va:fa:va\",\"Left\",\"39\",\"6\",\"16\",\"6A\",\"C1\",\"J\",\"96\"
\"\",\"\",\"approach-retreat\",\"100\",\"860117\",\"0.0-100.0\",\"\",\"\",\"1-4\",\"4291\",\"40\",\"1\",\"Training\",\"Stims/Figures/128-J-10-3.bmp\",\"va:sha:va\",\"Up\",\"40\",\"7\",\"1\",\"6A\",\"C1\",\"J\",\"97\"
\"\",\"\",\"approach-retreat\",\"101\",\"866397\",\"0.0-101.0\",\"\",\"\",\"1-4\",\"4768\",\"38\",\"1\",\"Training\",\"Stims/Figures/7-C-20-4.bmp\",\"za:saza\",\"Up\",\"38\",\"7\",\"2\",\"6A\",\"C2\",\"J\",\"98\"
\"\",\"\",\"approach-retreat\",\"102\",\"872964\",\"0.0-102.0\",\"\",\"\",\"1-4\",\"5057\",\"37\",\"1\",\"Training\",\"Stims/Figures/44-J-10-3.bmp\",\"fashasha\",\"Right\",\"37\",\"7\",\"3\",\"6A\",\"C1\",\"J\",\"99\"
\"\",\"\",\"approach-retreat\",\"103\",\"879526\",\"0.0-103.0\",\"\",\"\",\"1-4\",\"5051\",\"37\",\"1\",\"Training\",\"Stims/Figures/139-C-20-2.bmp\",\"sahaha\",\"Left\",\"37\",\"7\",\"4\",\"6A\",\"C2\",\"J\",\"100\"
\"\",\"\",\"approach-retreat\",\"104\",\"886055\",\"0.0-104.0\",\"\",\"\",\"1-4\",\"5014\",\"38\",\"1\",\"Training\",\"Stims/Figures/118-J-0-2.bmp\",\"va:fasha\",\"Down\",\"38\",\"7\",\"5\",\"6A\",\"C1\",\"J\",\"101\"
\"\",\"\",\"approach-retreat\",\"105\",\"892592\",\"0.0-105.0\",\"\",\"\",\"1-4\",\"5026\",\"37\",\"1\",\"Training\",\"Stims/Figures/57-J-0-1.bmp\",\"fa:fa:va\",\"Right\",\"37\",\"7\",\"6\",\"6A\",\"C1\",\"J\",\"102\"
\"\",\"\",\"approach-retreat\",\"106\",\"899211\",\"0.0-106.0\",\"\",\"\",\"1-4\",\"5107\",\"37\",\"1\",\"Training\",\"Stims/Figures/57-C-30-1.bmp\",\"za:saha\",\"Left\",\"37\",\"7\",\"7\",\"6A\",\"C2\",\"J\",\"103\"
\"\",\"\",\"approach-retreat\",\"107\",\"905683\",\"0.0-107.0\",\"\",\"\",\"1-4\",\"4960\",\"37\",\"1\",\"Training\",\"Stims/Figures/93-J-0-1.bmp\",\"vasha:sha\",\"Right\",\"37\",\"7\",\"8\",\"6A\",\"C1\",\"J\",\"104\"
\"\",\"\",\"approach-retreat\",\"108\",\"911597\",\"0.0-108.0\",\"\",\"\",\"1-4\",\"4403\",\"38\",\"1\",\"Training\",\"Stims/Figures/19-C-20-4.bmp\",\"sasa:ha\",\"Up\",\"38\",\"7\",\"9\",\"6A\",\"C2\",\"J\",\"105\"
\"\",\"\",\"approach-retreat\",\"109\",\"917716\",\"0.0-109.0\",\"\",\"\",\"1-4\",\"4606\",\"39\",\"1\",\"Training\",\"Stims/Figures/139-J-0-2.bmp\",\"fafa:sha\",\"Left\",\"39\",\"7\",\"10\",\"6A\",\"C1\",\"J\",\"106\"
\"\",\"\",\"approach-retreat\",\"110\",\"924398\",\"0.0-110.0\",\"\",\"\",\"1-4\",\"5170\",\"39\",\"1\",\"Training\",\"Stims/Figures/128-C-30-3.bmp\",\"sa:sa:za\",\"Right\",\"39\",\"7\",\"11\",\"6A\",\"C2\",\"J\",\"107\"
\"\",\"\",\"approach-retreat\",\"111\",\"931226\",\"0.0-111.0\",\"\",\"\",\"1-4\",\"5316\",\"40\",\"1\",\"Training\",\"Stims/Figures/118-C-20-2.bmp\",\"zahaza\",\"Down\",\"40\",\"7\",\"12\",\"6A\",\"C2\",\"J\",\"108\"
\"\",\"\",\"approach-retreat\",\"112\",\"937388\",\"0.0-112.0\",\"\",\"\",\"1-4\",\"4651\",\"38\",\"1\",\"Training\",\"Stims/Figures/7-J-10-4.bmp\",\"va:fa:va\",\"Down\",\"38\",\"7\",\"13\",\"6A\",\"C1\",\"J\",\"109\"
\"\",\"\",\"approach-retreat\",\"113\",\"943403\",\"0.0-113.0\",\"\",\"\",\"1-4\",\"4504\",\"38\",\"1\",\"Training\",\"Stims/Figures/93-C-30-1.bmp\",\"za:ha:za\",\"Up\",\"38\",\"7\",\"14\",\"6A\",\"C2\",\"J\",\"110\"
\"\",\"\",\"approach-retreat\",\"114\",\"948979\",\"0.0-114.0\",\"\",\"\",\"1-4\",\"4066\",\"40\",\"1\",\"Training\",\"Stims/Figures/44-C-30-3.bmp\",\"za:ha:ha\",\"Down\",\"40\",\"7\",\"15\",\"6A\",\"C2\",\"J\",\"111\"
\"\",\"\",\"approach-retreat\",\"115\",\"955621\",\"0.0-115.0\",\"\",\"\",\"1-4\",\"5125\",\"39\",\"1\",\"Training\",\"Stims/Figures/19-J-10-4.bmp\",\"vafa:sha\",\"Left\",\"39\",\"7\",\"16\",\"6A\",\"C1\",\"J\",\"112\"
\"\",\"\",\"approach-retreat\",\"116\",\"965023\",\"0.0-116.0\",\"\",\"\",\"1-4\",\"7890\",\"40\",\"1\",\"Training\",\"Stims/Figures/118-C-20-2.bmp\",\"zahaza\",\"Down\",\"40\",\"8\",\"1\",\"6A\",\"C2\",\"J\",\"113\"
\"\",\"\",\"approach-retreat\",\"117\",\"971745\",\"0.0-117.0\",\"\",\"\",\"1-4\",\"5210\",\"39\",\"1\",\"Training\",\"Stims/Figures/93-C-30-1.bmp\",\"za:ha:za\",\"Right\",\"39\",\"8\",\"2\",\"6A\",\"C2\",\"J\",\"114\"
\"\",\"\",\"approach-retreat\",\"118\",\"977955\",\"0.0-118.0\",\"\",\"\",\"1-4\",\"4698\",\"39\",\"1\",\"Training\",\"Stims/Figures/128-J-10-3.bmp\",\"va:sha:va\",\"Left\",\"39\",\"8\",\"3\",\"6A\",\"C1\",\"J\",\"115\"
\"\",\"\",\"approach-retreat\",\"119\",\"983979\",\"0.0-119.0\",\"\",\"\",\"1-4\",\"4511\",\"37\",\"1\",\"Training\",\"Stims/Figures/44-J-10-3.bmp\",\"fashasha\",\"Right\",\"37\",\"8\",\"4\",\"6A\",\"C1\",\"J\",\"116\"
\"\",\"\",\"approach-retreat\",\"120\",\"989902\",\"0.0-120.0\",\"\",\"\",\"1-4\",\"4413\",\"40\",\"1\",\"Training\",\"Stims/Figures/118-J-0-2.bmp\",\"va:fasha\",\"Up\",\"40\",\"8\",\"5\",\"6A\",\"C1\",\"J\",\"117\"
\"\",\"\",\"approach-retreat\",\"121\",\"995575\",\"0.0-121.0\",\"\",\"\",\"1-4\",\"4161\",\"40\",\"1\",\"Training\",\"Stims/Figures/139-J-0-2.bmp\",\"fafa:sha\",\"Up\",\"40\",\"8\",\"6\",\"6A\",\"C1\",\"J\",\"118\"
\"\",\"\",\"approach-retreat\",\"122\",\"1001495\",\"0.0-122.0\",\"\",\"\",\"1-4\",\"4408\",\"39\",\"1\",\"Training\",\"Stims/Figures/19-C-20-4.bmp\",\"sasa:ha\",\"Right\",\"39\",\"8\",\"7\",\"6A\",\"C2\",\"J\",\"119\"
\"\",\"\",\"approach-retreat\",\"123\",\"1007703\",\"0.0-123.0\",\"\",\"\",\"1-4\",\"4697\",\"40\",\"1\",\"Training\",\"Stims/Figures/7-C-20-4.bmp\",\"za:saza\",\"Down\",\"40\",\"8\",\"8\",\"6A\",\"C2\",\"J\",\"120\"
\"\",\"\",\"approach-retreat\",\"124\",\"1013522\",\"0.0-124.0\",\"\",\"\",\"1-4\",\"4307\",\"37\",\"1\",\"Training\",\"Stims/Figures/44-C-30-3.bmp\",\"za:ha:ha\",\"Left\",\"37\",\"8\",\"9\",\"6A\",\"C2\",\"J\",\"121\"
\"\",\"\",\"approach-retreat\",\"125\",\"1019921\",\"0.0-125.0\",\"\",\"\",\"1-4\",\"4888\",\"39\",\"1\",\"Training\",\"Stims/Figures/139-C-20-2.bmp\",\"sahaha\",\"Right\",\"39\",\"8\",\"10\",\"6A\",\"C2\",\"J\",\"122\"
\"\",\"\",\"approach-retreat\",\"126\",\"1026523\",\"0.0-126.0\",\"\",\"\",\"1-4\",\"5092\",\"39\",\"1\",\"Training\",\"Stims/Figures/57-J-0-1.bmp\",\"fa:fa:va\",\"Left\",\"39\",\"8\",\"11\",\"6A\",\"C1\",\"J\",\"123\"
\"\",\"\",\"approach-retreat\",\"127\",\"1032486\",\"0.0-127.0\",\"\",\"\",\"1-4\",\"4452\",\"40\",\"1\",\"Training\",\"Stims/Figures/93-J-0-1.bmp\",\"vasha:sha\",\"Up\",\"40\",\"8\",\"12\",\"6A\",\"C1\",\"J\",\"124\"
\"\",\"\",\"approach-retreat\",\"128\",\"1038344\",\"0.0-128.0\",\"\",\"\",\"1-4\",\"4345\",\"40\",\"0\",\"Training\",\"Stims/Figures/19-J-10-4.bmp\",\"vafa:sha\",\"Down\",\"38\",\"8\",\"13\",\"6A\",\"C1\",\"J\",\"125\"
\"\",\"\",\"approach-retreat\",\"129\",\"1047629\",\"0.0-129.0\",\"\",\"\",\"1-4\",\"7773\",\"40\",\"1\",\"Training\",\"Stims/Figures/7-J-10-4.bmp\",\"va:fa:va\",\"Up\",\"40\",\"8\",\"14\",\"6A\",\"C1\",\"J\",\"126\"
\"\",\"\",\"approach-retreat\",\"130\",\"1055253\",\"0.0-130.0\",\"\",\"\",\"1-4\",\"6113\",\"40\",\"1\",\"Training\",\"Stims/Figures/128-C-30-3.bmp\",\"sa:sa:za\",\"Down\",\"40\",\"8\",\"15\",\"6A\",\"C2\",\"J\",\"127\"
\"\",\"\",\"approach-retreat\",\"131\",\"1063874\",\"0.0-131.0\",\"\",\"\",\"1-4\",\"7110\",\"37\",\"1\",\"Training\",\"Stims/Figures/57-C-30-1.bmp\",\"za:saha\",\"Left\",\"37\",\"8\",\"16\",\"6A\",\"C2\",\"J\",\"128\"
\"\",\"\",\"approach-retreat\",\"132\",\"1070588\",\"0.0-132.0\",\"\",\"\",\"1-4\",\"5203\",\"39\",\"1\",\"Training\",\"Stims/Figures/7-C-20-4.bmp\",\"za:saza\",\"Right\",\"39\",\"9\",\"1\",\"6A\",\"C2\",\"J\",\"129\"
\"\",\"\",\"approach-retreat\",\"133\",\"1077309\",\"0.0-133.0\",\"\",\"\",\"1-4\",\"5210\",\"38\",\"1\",\"Training\",\"Stims/Figures/44-J-10-3.bmp\",\"fashasha\",\"Down\",\"38\",\"9\",\"2\",\"6A\",\"C1\",\"J\",\"130\"
\"\",\"\",\"approach-retreat\",\"134\",\"1084554\",\"0.0-134.0\",\"\",\"\",\"1-4\",\"5734\",\"37\",\"1\",\"Training\",\"Stims/Figures/118-C-20-2.bmp\",\"zahaza\",\"Left\",\"37\",\"9\",\"3\",\"6A\",\"C2\",\"J\",\"131\"
\"\",\"\",\"approach-retreat\",\"135\",\"1093590\",\"0.0-135.0\",\"\",\"\",\"1-4\",\"7525\",\"40\",\"1\",\"Training\",\"Stims/Figures/93-C-30-1.bmp\",\"za:ha:za\",\"Down\",\"40\",\"9\",\"4\",\"6A\",\"C2\",\"J\",\"132\"
\"\",\"\",\"approach-retreat\",\"136\",\"1100456\",\"0.0-136.0\",\"\",\"\",\"1-4\",\"5354\",\"39\",\"1\",\"Training\",\"Stims/Figures/7-J-10-4.bmp\",\"va:fa:va\",\"Left\",\"39\",\"9\",\"5\",\"6A\",\"C1\",\"J\",\"133\"
\"\",\"\",\"approach-retreat\",\"137\",\"1108469\",\"0.0-137.0\",\"\",\"\",\"1-4\",\"6501\",\"40\",\"1\",\"Training\",\"Stims/Figures/118-J-0-2.bmp\",\"va:fasha\",\"Up\",\"40\",\"9\",\"6\",\"6A\",\"C1\",\"J\",\"134\"
\"\",\"\",\"approach-retreat\",\"138\",\"1115931\",\"0.0-138.0\",\"\",\"\",\"1-4\",\"5951\",\"40\",\"1\",\"Training\",\"Stims/Figures/19-C-20-4.bmp\",\"sasa:ha\",\"Down\",\"40\",\"9\",\"7\",\"6A\",\"C2\",\"J\",\"135\"
\"\",\"\",\"approach-retreat\",\"139\",\"1122742\",\"0.0-139.0\",\"\",\"\",\"1-4\",\"5299\",\"37\",\"1\",\"Training\",\"Stims/Figures/93-J-0-1.bmp\",\"vasha:sha\",\"Right\",\"37\",\"9\",\"8\",\"6A\",\"C1\",\"J\",\"136\"
\"\",\"\",\"approach-retreat\",\"140\",\"1128736\",\"0.0-140.0\",\"\",\"\",\"1-4\",\"4482\",\"37\",\"1\",\"Training\",\"Stims/Figures/128-J-10-3.bmp\",\"va:sha:va\",\"Right\",\"37\",\"9\",\"9\",\"6A\",\"C1\",\"J\",\"137\"
\"\",\"\",\"approach-retreat\",\"141\",\"1134950\",\"0.0-141.0\",\"\",\"\",\"1-4\",\"4703\",\"40\",\"1\",\"Training\",\"Stims/Figures/57-J-0-1.bmp\",\"fa:fa:va\",\"Up\",\"40\",\"9\",\"10\",\"6A\",\"C1\",\"J\",\"138\"
\"\",\"\",\"approach-retreat\",\"142\",\"1141746\",\"0.0-142.0\",\"\",\"\",\"1-4\",\"5283\",\"39\",\"1\",\"Training\",\"Stims/Figures/139-C-20-2.bmp\",\"sahaha\",\"Right\",\"39\",\"9\",\"11\",\"6A\",\"C2\",\"J\",\"139\"
\"\",\"\",\"approach-retreat\",\"143\",\"1148984\",\"0.0-143.0\",\"\",\"\",\"1-4\",\"5726\",\"38\",\"1\",\"Training\",\"Stims/Figures/57-C-30-1.bmp\",\"za:saha\",\"Up\",\"38\",\"9\",\"12\",\"6A\",\"C2\",\"J\",\"140\"
\"\",\"\",\"approach-retreat\",\"144\",\"1155216\",\"0.0-144.0\",\"\",\"\",\"1-4\",\"4719\",\"37\",\"1\",\"Training\",\"Stims/Figures/44-C-30-3.bmp\",\"za:ha:ha\",\"Left\",\"37\",\"9\",\"13\",\"6A\",\"C2\",\"J\",\"141\"
\"\",\"\",\"approach-retreat\",\"145\",\"1161815\",\"0.0-145.0\",\"\",\"\",\"1-4\",\"5088\",\"38\",\"1\",\"Training\",\"Stims/Figures/19-J-10-4.bmp\",\"vafa:sha\",\"Down\",\"38\",\"9\",\"14\",\"6A\",\"C1\",\"J\",\"142\"
\"\",\"\",\"approach-retreat\",\"146\",\"1168033\",\"0.0-146.0\",\"\",\"\",\"1-4\",\"4707\",\"38\",\"1\",\"Training\",\"Stims/Figures/128-C-30-3.bmp\",\"sa:sa:za\",\"Up\",\"38\",\"9\",\"15\",\"6A\",\"C2\",\"J\",\"143\"
\"\",\"\",\"approach-retreat\",\"147\",\"1174803\",\"0.0-147.0\",\"\",\"\",\"1-4\",\"5258\",\"39\",\"1\",\"Training\",\"Stims/Figures/139-J-0-2.bmp\",\"fafa:sha\",\"Left\",\"39\",\"9\",\"16\",\"6A\",\"C1\",\"J\",\"144\"
\"13677\",\"\",\"instructions\",\"148\",\"1188480\",\"0.0-148.0\",\"[{\"\"page_index\"\":0,\"\"viewing_time\"\":13676}]\",\"\",\"\",\"\",\"\",\"\",\"\",\"\",\"\",\"\",\"\",\"\",\"\",\"\",\"\",\"\",\"\"
\"\",\"\",\"approach-retreat\",\"149\",\"1199981\",\"0.0-149.0\",\"\",\"\",\"1-4\",\"9992\",\"40\",\"1\",\"Testing\",\"Stims/Figures/93-C-30-1.bmp\",\"za:ha:za\",\"Down\",\"40\",\"1\",\"1\",\"6A\",\"C2\",\"J\",\"1\"
\"\",\"\",\"approach-retreat\",\"150\",\"1206239\",\"0.0-150.0\",\"\",\"\",\"1-4\",\"4748\",\"39\",\"1\",\"Testing\",\"Stims/Figures/94-J-0-2.bmp\",\"fa:sha:sha\",\"Left\",\"39\",\"1\",\"2\",\"6A\",\"C1\",\"J\",\"2\"
\"\",\"\",\"approach-retreat\",\"151\",\"1212398\",\"0.0-151.0\",\"\",\"\",\"1-4\",\"4650\",\"38\",\"1\",\"Testing\",\"Stims/Figures/7-C-20-4.bmp\",\"za:saza\",\"Up\",\"38\",\"1\",\"3\",\"6A\",\"C2\",\"J\",\"3\"
\"\",\"\",\"approach-retreat\",\"152\",\"1219698\",\"0.0-152.0\",\"\",\"\",\"1-4\",\"5792\",\"37\",\"1\",\"Testing\",\"Stims/Figures/94-C-20-2.bmp\",\"zaha:za\",\"Left\",\"37\",\"1\",\"4\",\"6A\",\"C2\",\"J\",\"4\"
\"\",\"\",\"approach-retreat\",\"153\",\"1225803\",\"0.0-153.0\",\"\",\"\",\"1-4\",\"4595\",\"38\",\"1\",\"Testing\",\"Stims/Figures/111-J-10-3.bmp\",\"fafasha\",\"Down\",\"38\",\"1\",\"5\",\"6A\",\"C1\",\"J\",\"5\"
\"\",\"\",\"approach-retreat\",\"154\",\"1232094\",\"0.0-154.0\",\"\",\"\",\"1-4\",\"4781\",\"37\",\"1\",\"Testing\",\"Stims/Figures/44-C-30-3.bmp\",\"za:ha:ha\",\"Left\",\"37\",\"1\",\"6\",\"6A\",\"C2\",\"J\",\"6\"
\"\",\"\",\"approach-retreat\",\"155\",\"1239945\",\"0.0-155.0\",\"\",\"\",\"1-4\",\"6341\",\"40\",\"1\",\"Testing\",\"Stims/Figures/118-C-20-2.bmp\",\"zahaza\",\"Down\",\"40\",\"1\",\"7\",\"6A\",\"C2\",\"J\",\"7\"
\"\",\"\",\"approach-retreat\",\"156\",\"1246291\",\"0.0-156.0\",\"\",\"\",\"1-4\",\"4833\",\"39\",\"1\",\"Testing\",\"Stims/Figures/128-J-10-3.bmp\",\"va:sha:va\",\"Left\",\"39\",\"1\",\"8\",\"6A\",\"C1\",\"J\",\"8\"
\"\",\"\",\"approach-retreat\",\"157\",\"1252028\",\"0.0-157.0\",\"\",\"\",\"1-4\",\"4226\",\"37\",\"1\",\"Testing\",\"Stims/Figures/57-C-30-1.bmp\",\"za:saha\",\"Left\",\"37\",\"1\",\"9\",\"6A\",\"C2\",\"J\",\"9\"
\"\",\"\",\"approach-retreat\",\"158\",\"1257907\",\"0.0-158.0\",\"\",\"\",\"1-4\",\"4371\",\"38\",\"1\",\"Testing\",\"Stims/Figures/27-C-30-1.bmp\",\"sa:ha:ha\",\"Up\",\"38\",\"1\",\"10\",\"6A\",\"C2\",\"J\",\"10\"
\"\",\"\",\"approach-retreat\",\"159\",\"1264068\",\"0.0-159.0\",\"\",\"\",\"1-4\",\"4650\",\"38\",\"1\",\"Testing\",\"Stims/Figures/111-C-30-3.bmp\",\"zasa:za\",\"Up\",\"38\",\"1\",\"11\",\"6A\",\"C2\",\"J\",\"11\"
\"\",\"\",\"approach-retreat\",\"160\",\"1274782\",\"0.0-160.0\",\"\",\"\",\"1-4\",\"9203\",\"39\",\"1\",\"Testing\",\"Stims/Figures/19-C-20-4.bmp\",\"sasa:ha\",\"Right\",\"39\",\"1\",\"12\",\"6A\",\"C2\",\"J\",\"12\"
\"\",\"\",\"approach-retreat\",\"161\",\"1280582\",\"0.0-161.0\",\"\",\"\",\"1-4\",\"4289\",\"39\",\"1\",\"Testing\",\"Stims/Figures/139-C-20-2.bmp\",\"sahaha\",\"Right\",\"39\",\"1\",\"13\",\"6A\",\"C2\",\"J\",\"13\"
\"\",\"\",\"approach-retreat\",\"162\",\"1287105\",\"0.0-162.0\",\"\",\"\",\"1-4\",\"5013\",\"37\",\"1\",\"Testing\",\"Stims/Figures/102-J-10-4.bmp\",\"va:shava\",\"Right\",\"37\",\"1\",\"14\",\"6A\",\"C1\",\"J\",\"14\"
\"\",\"\",\"approach-retreat\",\"163\",\"1293614\",\"0.0-163.0\",\"\",\"\",\"1-4\",\"4999\",\"40\",\"1\",\"Testing\",\"Stims/Figures/27-J-0-1.bmp\",\"fa:fasha\",\"Up\",\"40\",\"1\",\"15\",\"6A\",\"C1\",\"J\",\"15\"
\"\",\"\",\"approach-retreat\",\"164\",\"1299262\",\"0.0-164.0\",\"\",\"\",\"1-4\",\"4140\",\"40\",\"1\",\"Testing\",\"Stims/Figures/139-J-0-2.bmp\",\"fafa:sha\",\"Up\",\"40\",\"1\",\"16\",\"6A\",\"C1\",\"J\",\"16\"
\"\",\"\",\"approach-retreat\",\"165\",\"1308018\",\"0.0-165.0\",\"\",\"\",\"1-4\",\"7244\",\"39\",\"0\",\"Testing\",\"Stims/Figures/19-J-10-4.bmp\",\"vafa:sha\",\"Right\",\"37\",\"1\",\"17\",\"6A\",\"C1\",\"J\",\"17\"
\"\",\"\",\"approach-retreat\",\"166\",\"1313812\",\"0.0-166.0\",\"\",\"\",\"1-4\",\"4284\",\"40\",\"1\",\"Testing\",\"Stims/Figures/57-J-0-1.bmp\",\"fa:fa:va\",\"Up\",\"40\",\"1\",\"18\",\"6A\",\"C1\",\"J\",\"18\"
\"\",\"\",\"approach-retreat\",\"167\",\"1319972\",\"0.0-167.0\",\"\",\"\",\"1-4\",\"4643\",\"37\",\"1\",\"Testing\",\"Stims/Figures/128-C-30-3.bmp\",\"sa:sa:za\",\"Left\",\"37\",\"1\",\"19\",\"6A\",\"C2\",\"J\",\"19\"
\"\",\"\",\"approach-retreat\",\"168\",\"1332883\",\"0.0-168.0\",\"\",\"\",\"1-4\",\"11403\",\"38\",\"1\",\"Testing\",\"Stims/Figures/7-J-10-4.bmp\",\"va:fa:va\",\"Down\",\"38\",\"1\",\"20\",\"6A\",\"C1\",\"J\",\"20\"
\"\",\"\",\"approach-retreat\",\"169\",\"1339043\",\"0.0-169.0\",\"\",\"\",\"1-4\",\"4650\",\"38\",\"1\",\"Testing\",\"Stims/Figures/118-J-0-2.bmp\",\"va:fasha\",\"Down\",\"38\",\"1\",\"21\",\"6A\",\"C1\",\"J\",\"21\"
\"\",\"\",\"approach-retreat\",\"170\",\"1344717\",\"0.0-170.0\",\"\",\"\",\"1-4\",\"4163\",\"37\",\"1\",\"Testing\",\"Stims/Figures/93-J-0-1.bmp\",\"vasha:sha\",\"Right\",\"37\",\"1\",\"22\",\"6A\",\"C1\",\"J\",\"22\"
\"\",\"\",\"approach-retreat\",\"171\",\"1350735\",\"0.0-171.0\",\"\",\"\",\"1-4\",\"4504\",\"40\",\"1\",\"Testing\",\"Stims/Figures/102-C-20-4.bmp\",\"sasaza\",\"Down\",\"40\",\"1\",\"23\",\"6A\",\"C2\",\"J\",\"23\"
\"\",\"\",\"approach-retreat\",\"172\",\"1356431\",\"0.0-172.0\",\"\",\"\",\"1-4\",\"4184\",\"37\",\"1\",\"Testing\",\"Stims/Figures/44-J-10-3.bmp\",\"fashasha\",\"Right\",\"37\",\"1\",\"24\",\"6A\",\"C1\",\"J\",\"24\"
\"\",\"\",\"approach-retreat\",\"173\",\"1362510\",\"0.0-173.0\",\"\",\"\",\"1-4\",\"4570\",\"38\",\"1\",\"Testing\",\"Stims/Figures/128-C-30-3.bmp\",\"sa:sa:za\",\"Up\",\"38\",\"2\",\"1\",\"6A\",\"C2\",\"J\",\"25\"
\"\",\"\",\"approach-retreat\",\"174\",\"1368385\",\"0.0-174.0\",\"\",\"\",\"1-4\",\"4364\",\"38\",\"1\",\"Testing\",\"Stims/Figures/27-J-0-1.bmp\",\"fa:fasha\",\"Down\",\"38\",\"2\",\"2\",\"6A\",\"C1\",\"J\",\"26\"
\"\",\"\",\"approach-retreat\",\"175\",\"1374593\",\"0.0-175.0\",\"\",\"\",\"1-4\",\"4698\",\"37\",\"1\",\"Testing\",\"Stims/Figures/7-J-10-4.bmp\",\"va:fa:va\",\"Right\",\"37\",\"2\",\"3\",\"6A\",\"C1\",\"J\",\"27\"
\"\",\"\",\"approach-retreat\",\"176\",\"1383333\",\"0.0-176.0\",\"\",\"\",\"1-4\",\"7231\",\"39\",\"0\",\"Testing\",\"Stims/Figures/19-J-10-4.bmp\",\"vafa:sha\",\"Right\",\"37\",\"2\",\"4\",\"6A\",\"C1\",\"J\",\"28\"
\"\",\"\",\"approach-retreat\",\"177\",\"1391059\",\"0.0-177.0\",\"\",\"\",\"1-4\",\"6216\",\"38\",\"1\",\"Testing\",\"Stims/Figures/94-C-20-2.bmp\",\"zaha:za\",\"Up\",\"38\",\"2\",\"5\",\"6A\",\"C2\",\"J\",\"29\"
\"\",\"\",\"approach-retreat\",\"178\",\"1398398\",\"0.0-178.0\",\"\",\"\",\"1-4\",\"5829\",\"37\",\"1\",\"Testing\",\"Stims/Figures/128-J-10-3.bmp\",\"va:sha:va\",\"Right\",\"37\",\"2\",\"6\",\"6A\",\"C1\",\"J\",\"30\"
\"\",\"\",\"approach-retreat\",\"179\",\"1409952\",\"0.0-179.0\",\"\",\"\",\"1-4\",\"10044\",\"38\",\"1\",\"Testing\",\"Stims/Figures/102-J-10-4.bmp\",\"va:shava\",\"Down\",\"38\",\"2\",\"7\",\"6A\",\"C1\",\"J\",\"31\"
\"\",\"\",\"approach-retreat\",\"180\",\"1415874\",\"0.0-180.0\",\"\",\"\",\"1-4\",\"4413\",\"40\",\"1\",\"Testing\",\"Stims/Figures/57-J-0-1.bmp\",\"fa:fa:va\",\"Up\",\"40\",\"2\",\"8\",\"6A\",\"C1\",\"J\",\"32\"
\"\",\"\",\"approach-retreat\",\"181\",\"1421917\",\"0.0-181.0\",\"\",\"\",\"1-4\",\"4536\",\"38\",\"1\",\"Testing\",\"Stims/Figures/27-C-30-1.bmp\",\"sa:ha:ha\",\"Up\",\"38\",\"2\",\"9\",\"6A\",\"C2\",\"J\",\"33\"
\"\",\"\",\"approach-retreat\",\"182\",\"1428083\",\"0.0-182.0\",\"\",\"\",\"1-4\",\"4657\",\"40\",\"1\",\"Testing\",\"Stims/Figures/19-C-20-4.bmp\",\"sasa:ha\",\"Down\",\"40\",\"2\",\"10\",\"6A\",\"C2\",\"J\",\"34\"
\"\",\"\",\"approach-retreat\",\"183\",\"1434085\",\"0.0-183.0\",\"\",\"\",\"1-4\",\"4492\",\"39\",\"1\",\"Testing\",\"Stims/Figures/118-C-20-2.bmp\",\"zahaza\",\"Right\",\"39\",\"2\",\"11\",\"6A\",\"C2\",\"J\",\"35\"
\"\",\"\",\"approach-retreat\",\"184\",\"1440013\",\"0.0-184.0\",\"\",\"\",\"1-4\",\"4419\",\"39\",\"1\",\"Testing\",\"Stims/Figures/93-J-0-1.bmp\",\"vasha:sha\",\"Left\",\"39\",\"2\",\"12\",\"6A\",\"C1\",\"J\",\"36\"
\"\",\"\",\"approach-retreat\",\"185\",\"1445737\",\"0.0-185.0\",\"\",\"\",\"1-4\",\"4212\",\"37\",\"1\",\"Testing\",\"Stims/Figures/93-C-30-1.bmp\",\"za:ha:za\",\"Left\",\"37\",\"2\",\"13\",\"6A\",\"C2\",\"J\",\"37\"
\"\",\"\",\"approach-retreat\",\"186\",\"1451366\",\"0.0-186.0\",\"\",\"\",\"1-4\",\"4121\",\"38\",\"1\",\"Testing\",\"Stims/Figures/44-C-30-3.bmp\",\"za:ha:ha\",\"Up\",\"38\",\"2\",\"14\",\"6A\",\"C2\",\"J\",\"38\"
\"\",\"\",\"approach-retreat\",\"187\",\"1457711\",\"0.0-187.0\",\"\",\"\",\"1-4\",\"4837\",\"39\",\"1\",\"Testing\",\"Stims/Figures/111-J-10-3.bmp\",\"fafasha\",\"Left\",\"39\",\"2\",\"15\",\"6A\",\"C1\",\"J\",\"39\"
\"\",\"\",\"approach-retreat\",\"188\",\"1463400\",\"0.0-188.0\",\"\",\"\",\"1-4\",\"4181\",\"38\",\"1\",\"Testing\",\"Stims/Figures/118-J-0-2.bmp\",\"va:fasha\",\"Down\",\"38\",\"2\",\"16\",\"6A\",\"C1\",\"J\",\"40\"
\"\",\"\",\"approach-retreat\",\"189\",\"1470893\",\"0.0-189.0\",\"\",\"\",\"1-4\",\"5981\",\"39\",\"1\",\"Testing\",\"Stims/Figures/102-C-20-4.bmp\",\"sasaza\",\"Right\",\"39\",\"2\",\"17\",\"6A\",\"C2\",\"J\",\"41\"
\"\",\"\",\"approach-retreat\",\"190\",\"1478490\",\"0.0-190.0\",\"\",\"\",\"1-4\",\"6088\",\"38\",\"1\",\"Testing\",\"Stims/Figures/44-J-10-3.bmp\",\"fashasha\",\"Down\",\"38\",\"2\",\"18\",\"6A\",\"C1\",\"J\",\"42\"
\"\",\"\",\"approach-retreat\",\"191\",\"1485502\",\"0.0-191.0\",\"\",\"\",\"1-4\",\"5503\",\"37\",\"1\",\"Testing\",\"Stims/Figures/7-C-20-4.bmp\",\"za:saza\",\"Left\",\"37\",\"2\",\"19\",\"6A\",\"C2\",\"J\",\"43\"
\"\",\"\",\"approach-retreat\",\"192\",\"1495990\",\"0.0-192.0\",\"\",\"\",\"1-4\",\"8978\",\"40\",\"0\",\"Testing\",\"Stims/Figures/111-C-30-3.bmp\",\"zasa:za\",\"Up\",\"38\",\"2\",\"20\",\"6A\",\"C2\",\"J\",\"44\"
\"\",\"\",\"approach-retreat\",\"193\",\"1502271\",\"0.0-193.0\",\"\",\"\",\"1-4\",\"4771\",\"37\",\"1\",\"Testing\",\"Stims/Figures/139-C-20-2.bmp\",\"sahaha\",\"Left\",\"37\",\"2\",\"21\",\"6A\",\"C2\",\"J\",\"45\"
\"\",\"\",\"approach-retreat\",\"194\",\"1509039\",\"0.0-194.0\",\"\",\"\",\"1-4\",\"5259\",\"39\",\"1\",\"Testing\",\"Stims/Figures/57-C-30-1.bmp\",\"za:saha\",\"Right\",\"39\",\"2\",\"22\",\"6A\",\"C2\",\"J\",\"46\"
\"\",\"\",\"approach-retreat\",\"195\",\"1514712\",\"0.0-195.0\",\"\",\"\",\"1-4\",\"4162\",\"39\",\"1\",\"Testing\",\"Stims/Figures/139-J-0-2.bmp\",\"fafa:sha\",\"Left\",\"39\",\"2\",\"23\",\"6A\",\"C1\",\"J\",\"47\"
\"\",\"\",\"approach-retreat\",\"196\",\"1521636\",\"0.0-196.0\",\"\",\"\",\"1-4\",\"5414\",\"38\",\"1\",\"Testing\",\"Stims/Figures/94-J-0-2.bmp\",\"fa:sha:sha\",\"Down\",\"38\",\"2\",\"24\",\"6A\",\"C1\",\"J\",\"48\"
\"\",\"\",\"approach-retreat\",\"197\",\"1527530\",\"0.0-197.0\",\"\",\"\",\"1-4\",\"4384\",\"39\",\"1\",\"Testing\",\"Stims/Figures/27-C-30-1.bmp\",\"sa:ha:ha\",\"Right\",\"39\",\"3\",\"1\",\"6A\",\"C2\",\"J\",\"49\"
\"\",\"\",\"approach-retreat\",\"198\",\"1534186\",\"0.0-198.0\",\"\",\"\",\"1-4\",\"5147\",\"37\",\"1\",\"Testing\",\"Stims/Figures/93-J-0-1.bmp\",\"vasha:sha\",\"Right\",\"37\",\"3\",\"2\",\"6A\",\"C1\",\"J\",\"50\"
\"\",\"\",\"approach-retreat\",\"199\",\"1540408\",\"0.0-199.0\",\"\",\"\",\"1-4\",\"4714\",\"39\",\"1\",\"Testing\",\"Stims/Figures/27-J-0-1.bmp\",\"fa:fasha\",\"Left\",\"39\",\"3\",\"3\",\"6A\",\"C1\",\"J\",\"51\"
\"\",\"\",\"approach-retreat\",\"200\",\"1546129\",\"0.0-200.0\",\"\",\"\",\"1-4\",\"4211\",\"39\",\"1\",\"Testing\",\"Stims/Figures/102-C-20-4.bmp\",\"sasaza\",\"Right\",\"39\",\"3\",\"4\",\"6A\",\"C2\",\"J\",\"52\"
\"\",\"\",\"approach-retreat\",\"201\",\"1553125\",\"0.0-201.0\",\"\",\"\",\"1-4\",\"5485\",\"40\",\"1\",\"Testing\",\"Stims/Figures/19-C-20-4.bmp\",\"sasa:ha\",\"Down\",\"40\",\"3\",\"5\",\"6A\",\"C2\",\"J\",\"53\"
\"\",\"\",\"approach-retreat\",\"202\",\"1560361\",\"0.0-202.0\",\"\",\"\",\"1-4\",\"5725\",\"38\",\"1\",\"Testing\",\"Stims/Figures/118-J-0-2.bmp\",\"va:fasha\",\"Down\",\"38\",\"3\",\"6\",\"6A\",\"C1\",\"J\",\"54\"
\"\",\"\",\"approach-retreat\",\"203\",\"1567104\",\"0.0-203.0\",\"\",\"\",\"1-4\",\"5233\",\"40\",\"1\",\"Testing\",\"Stims/Figures/44-J-10-3.bmp\",\"fashasha\",\"Up\",\"40\",\"3\",\"7\",\"6A\",\"C1\",\"J\",\"55\"
\"\",\"\",\"approach-retreat\",\"204\",\"1573706\",\"0.0-204.0\",\"\",\"\",\"1-4\",\"5093\",\"37\",\"1\",\"Testing\",\"Stims/Figures/118-C-20-2.bmp\",\"zahaza\",\"Left\",\"37\",\"3\",\"8\",\"6A\",\"C2\",\"J\",\"56\"
\"\",\"\",\"approach-retreat\",\"205\",\"1583795\",\"0.0-205.0\",\"\",\"\",\"1-4\",\"8580\",\"37\",\"1\",\"Testing\",\"Stims/Figures/111-C-30-3.bmp\",\"zasa:za\",\"Left\",\"37\",\"3\",\"9\",\"6A\",\"C2\",\"J\",\"57\"
\"\",\"\",\"approach-retreat\",\"206\",\"1592133\",\"0.0-206.0\",\"\",\"\",\"1-4\",\"6831\",\"40\",\"1\",\"Testing\",\"Stims/Figures/139-C-20-2.bmp\",\"sahaha\",\"Down\",\"40\",\"3\",\"10\",\"6A\",\"C2\",\"J\",\"58\"
\"\",\"\",\"approach-retreat\",\"207\",\"1599343\",\"0.0-207.0\",\"\",\"\",\"1-4\",\"5700\",\"37\",\"1\",\"Testing\",\"Stims/Figures/128-C-30-3.bmp\",\"sa:sa:za\",\"Left\",\"37\",\"3\",\"11\",\"6A\",\"C2\",\"J\",\"59\"
\"\",\"\",\"approach-retreat\",\"208\",\"1605613\",\"0.0-208.0\",\"\",\"\",\"1-4\",\"4761\",\"40\",\"1\",\"Testing\",\"Stims/Figures/7-J-10-4.bmp\",\"va:fa:va\",\"Up\",\"40\",\"3\",\"12\",\"6A\",\"C1\",\"J\",\"60\"
\"\",\"\",\"approach-retreat\",\"209\",\"1612457\",\"0.0-209.0\",\"\",\"\",\"1-4\",\"5334\",\"40\",\"1\",\"Testing\",\"Stims/Figures/7-C-20-4.bmp\",\"za:saza\",\"Down\",\"40\",\"3\",\"13\",\"6A\",\"C2\",\"J\",\"61\"
\"\",\"\",\"approach-retreat\",\"210\",\"1618203\",\"0.0-210.0\",\"\",\"\",\"1-4\",\"4236\",\"38\",\"1\",\"Testing\",\"Stims/Figures/93-C-30-1.bmp\",\"za:ha:za\",\"Up\",\"38\",\"3\",\"14\",\"6A\",\"C2\",\"J\",\"62\"
\"\",\"\",\"approach-retreat\",\"211\",\"1624534\",\"0.0-211.0\",\"\",\"\",\"1-4\",\"4820\",\"37\",\"1\",\"Testing\",\"Stims/Figures/94-J-0-2.bmp\",\"fa:sha:sha\",\"Right\",\"37\",\"3\",\"15\",\"6A\",\"C1\",\"J\",\"63\"
\"\",\"\",\"approach-retreat\",\"212\",\"1631419\",\"0.0-212.0\",\"\",\"\",\"1-4\",\"5378\",\"40\",\"1\",\"Testing\",\"Stims/Figures/128-J-10-3.bmp\",\"va:sha:va\",\"Up\",\"40\",\"3\",\"16\",\"6A\",\"C1\",\"J\",\"64\"
\"\",\"\",\"approach-retreat\",\"213\",\"1637703\",\"0.0-213.0\",\"\",\"\",\"1-4\",\"4775\",\"38\",\"1\",\"Testing\",\"Stims/Figures/57-C-30-1.bmp\",\"za:saha\",\"Up\",\"38\",\"3\",\"17\",\"6A\",\"C2\",\"J\",\"65\"
\"\",\"\",\"approach-retreat\",\"214\",\"1644226\",\"0.0-214.0\",\"\",\"\",\"1-4\",\"5012\",\"38\",\"1\",\"Testing\",\"Stims/Figures/111-J-10-3.bmp\",\"fafasha\",\"Down\",\"38\",\"3\",\"18\",\"6A\",\"C1\",\"J\",\"66\"
\"\",\"\",\"approach-retreat\",\"215\",\"1651018\",\"0.0-215.0\",\"\",\"\",\"1-4\",\"5283\",\"39\",\"1\",\"Testing\",\"Stims/Figures/94-C-20-2.bmp\",\"zaha:za\",\"Right\",\"39\",\"3\",\"19\",\"6A\",\"C2\",\"J\",\"67\"
\"\",\"\",\"approach-retreat\",\"216\",\"1656894\",\"0.0-216.0\",\"\",\"\",\"1-4\",\"4365\",\"40\",\"0\",\"Testing\",\"Stims/Figures/19-J-10-4.bmp\",\"vafa:sha\",\"Down\",\"38\",\"3\",\"20\",\"6A\",\"C1\",\"J\",\"68\"
\"\",\"\",\"approach-retreat\",\"217\",\"1663229\",\"0.0-217.0\",\"\",\"\",\"1-4\",\"4828\",\"40\",\"1\",\"Testing\",\"Stims/Figures/102-J-10-4.bmp\",\"va:shava\",\"Up\",\"40\",\"3\",\"21\",\"6A\",\"C1\",\"J\",\"69\"
\"\",\"\",\"approach-retreat\",\"218\",\"1669783\",\"0.0-218.0\",\"\",\"\",\"1-4\",\"5043\",\"39\",\"1\",\"Testing\",\"Stims/Figures/139-J-0-2.bmp\",\"fafa:sha\",\"Left\",\"39\",\"3\",\"22\",\"6A\",\"C1\",\"J\",\"70\"
\"\",\"\",\"approach-retreat\",\"219\",\"1677116\",\"0.0-219.0\",\"\",\"\",\"1-4\",\"5824\",\"37\",\"1\",\"Testing\",\"Stims/Figures/44-C-30-3.bmp\",\"za:ha:ha\",\"Left\",\"37\",\"3\",\"23\",\"6A\",\"C2\",\"J\",\"71\"
\"\",\"\",\"approach-retreat\",\"220\",\"1683669\",\"0.0-220.0\",\"\",\"\",\"1-4\",\"5044\",\"37\",\"1\",\"Testing\",\"Stims/Figures/57-J-0-1.bmp\",\"fa:fa:va\",\"Right\",\"37\",\"3\",\"24\",\"6A\",\"C1\",\"J\",\"72\"
\"\",\"\",\"approach-retreat\",\"221\",\"1690471\",\"0.0-221.0\",\"\",\"\",\"1-4\",\"5293\",\"37\",\"1\",\"Testing\",\"Stims/Figures/94-J-0-2.bmp\",\"fa:sha:sha\",\"Right\",\"37\",\"4\",\"1\",\"6A\",\"C1\",\"J\",\"73\"
\"\",\"\",\"approach-retreat\",\"222\",\"1696679\",\"0.0-222.0\",\"\",\"\",\"1-4\",\"4700\",\"38\",\"1\",\"Testing\",\"Stims/Figures/128-J-10-3.bmp\",\"va:sha:va\",\"Down\",\"38\",\"4\",\"2\",\"6A\",\"C1\",\"J\",\"74\"
\"\",\"\",\"approach-retreat\",\"223\",\"1702624\",\"0.0-223.0\",\"\",\"\",\"1-4\",\"4436\",\"40\",\"1\",\"Testing\",\"Stims/Figures/111-C-30-3.bmp\",\"zasa:za\",\"Down\",\"40\",\"4\",\"3\",\"6A\",\"C2\",\"J\",\"75\"
\"\",\"\",\"approach-retreat\",\"224\",\"1709580\",\"0.0-224.0\",\"\",\"\",\"1-4\",\"5446\",\"37\",\"1\",\"Testing\",\"Stims/Figures/128-C-30-3.bmp\",\"sa:sa:za\",\"Left\",\"37\",\"4\",\"4\",\"6A\",\"C2\",\"J\",\"76\"
\"\",\"\",\"approach-retreat\",\"225\",\"1715400\",\"0.0-225.0\",\"\",\"\",\"1-4\",\"4307\",\"39\",\"1\",\"Testing\",\"Stims/Figures/44-J-10-3.bmp\",\"fashasha\",\"Left\",\"39\",\"4\",\"5\",\"6A\",\"C1\",\"J\",\"77\"
\"\",\"\",\"approach-retreat\",\"226\",\"1721458\",\"0.0-226.0\",\"\",\"\",\"1-4\",\"4548\",\"40\",\"1\",\"Testing\",\"Stims/Figures/7-C-20-4.bmp\",\"za:saza\",\"Down\",\"40\",\"4\",\"6\",\"6A\",\"C2\",\"J\",\"78\"
\"\",\"\",\"approach-retreat\",\"227\",\"1727425\",\"0.0-227.0\",\"\",\"\",\"1-4\",\"4460\",\"39\",\"1\",\"Testing\",\"Stims/Figures/57-C-30-1.bmp\",\"za:saha\",\"Right\",\"39\",\"4\",\"7\",\"6A\",\"C2\",\"J\",\"79\"
\"\",\"\",\"approach-retreat\",\"228\",\"1733683\",\"0.0-228.0\",\"\",\"\",\"1-4\",\"4749\",\"37\",\"1\",\"Testing\",\"Stims/Figures/44-C-30-3.bmp\",\"za:ha:ha\",\"Left\",\"37\",\"4\",\"8\",\"6A\",\"C2\",\"J\",\"80\"
\"\",\"\",\"approach-retreat\",\"229\",\"1740107\",\"0.0-229.0\",\"\",\"\",\"1-4\",\"4916\",\"39\",\"1\",\"Testing\",\"Stims/Figures/102-C-20-4.bmp\",\"sasaza\",\"Right\",\"39\",\"4\",\"9\",\"6A\",\"C2\",\"J\",\"81\"
\"\",\"\",\"approach-retreat\",\"230\",\"1746936\",\"0.0-230.0\",\"\",\"\",\"1-4\",\"5319\",\"37\",\"1\",\"Testing\",\"Stims/Figures/57-J-0-1.bmp\",\"fa:fa:va\",\"Right\",\"37\",\"4\",\"10\",\"6A\",\"C1\",\"J\",\"82\"
\"\",\"\",\"approach-retreat\",\"231\",\"1753008\",\"0.0-231.0\",\"\",\"\",\"1-4\",\"4563\",\"40\",\"1\",\"Testing\",\"Stims/Figures/27-J-0-1.bmp\",\"fa:fasha\",\"Up\",\"40\",\"4\",\"11\",\"6A\",\"C1\",\"J\",\"83\"
\"\",\"\",\"approach-retreat\",\"232\",\"1758672\",\"0.0-232.0\",\"\",\"\",\"1-4\",\"4155\",\"40\",\"1\",\"Testing\",\"Stims/Figures/93-J-0-1.bmp\",\"vasha:sha\",\"Up\",\"40\",\"4\",\"12\",\"6A\",\"C1\",\"J\",\"84\"
\"\",\"\",\"approach-retreat\",\"233\",\"1764347\",\"0.0-233.0\",\"\",\"\",\"1-4\",\"4165\",\"38\",\"1\",\"Testing\",\"Stims/Figures/27-C-30-1.bmp\",\"sa:ha:ha\",\"Up\",\"38\",\"4\",\"13\",\"6A\",\"C2\",\"J\",\"85\"
\"\",\"\",\"approach-retreat\",\"234\",\"1769745\",\"0.0-234.0\",\"\",\"\",\"1-4\",\"3888\",\"37\",\"1\",\"Testing\",\"Stims/Figures/118-C-20-2.bmp\",\"zahaza\",\"Left\",\"37\",\"4\",\"14\",\"6A\",\"C2\",\"J\",\"86\"
\"\",\"\",\"approach-retreat\",\"235\",\"1775223\",\"0.0-235.0\",\"\",\"\",\"1-4\",\"3970\",\"39\",\"0\",\"Testing\",\"Stims/Figures/19-J-10-4.bmp\",\"vafa:sha\",\"Right\",\"37\",\"4\",\"15\",\"6A\",\"C1\",\"J\",\"87\"
\"\",\"\",\"approach-retreat\",\"236\",\"1781164\",\"0.0-236.0\",\"\",\"\",\"1-4\",\"4431\",\"39\",\"1\",\"Testing\",\"Stims/Figures/7-J-10-4.bmp\",\"va:fa:va\",\"Left\",\"39\",\"4\",\"16\",\"6A\",\"C1\",\"J\",\"88\"
\"\",\"\",\"approach-retreat\",\"237\",\"1786571\",\"0.0-237.0\",\"\",\"\",\"1-4\",\"3899\",\"40\",\"1\",\"Testing\",\"Stims/Figures/118-J-0-2.bmp\",\"va:fasha\",\"Up\",\"40\",\"4\",\"17\",\"6A\",\"C1\",\"J\",\"89\"
\"\",\"\",\"approach-retreat\",\"238\",\"1792075\",\"0.0-238.0\",\"\",\"\",\"1-4\",\"3993\",\"39\",\"1\",\"Testing\",\"Stims/Figures/139-C-20-2.bmp\",\"sahaha\",\"Right\",\"39\",\"4\",\"18\",\"6A\",\"C2\",\"J\",\"90\"
\"\",\"\",\"approach-retreat\",\"239\",\"1798351\",\"0.0-239.0\",\"\",\"\",\"1-4\",\"4767\",\"38\",\"1\",\"Testing\",\"Stims/Figures/111-J-10-3.bmp\",\"fafasha\",\"Down\",\"38\",\"4\",\"19\",\"6A\",\"C1\",\"J\",\"91\"
\"\",\"\",\"approach-retreat\",\"240\",\"1804343\",\"0.0-240.0\",\"\",\"\",\"1-4\",\"4483\",\"37\",\"1\",\"Testing\",\"Stims/Figures/93-C-30-1.bmp\",\"za:ha:za\",\"Left\",\"37\",\"4\",\"20\",\"6A\",\"C2\",\"J\",\"92\"
\"\",\"\",\"approach-retreat\",\"241\",\"1810311\",\"0.0-241.0\",\"\",\"\",\"1-4\",\"4460\",\"38\",\"1\",\"Testing\",\"Stims/Figures/102-J-10-4.bmp\",\"va:shava\",\"Down\",\"38\",\"4\",\"21\",\"6A\",\"C1\",\"J\",\"93\"
\"\",\"\",\"approach-retreat\",\"242\",\"1816761\",\"0.0-242.0\",\"\",\"\",\"1-4\",\"4940\",\"40\",\"1\",\"Testing\",\"Stims/Figures/139-J-0-2.bmp\",\"fafa:sha\",\"Up\",\"40\",\"4\",\"22\",\"6A\",\"C1\",\"J\",\"94\"
\"\",\"\",\"approach-retreat\",\"243\",\"1822969\",\"0.0-243.0\",\"\",\"\",\"1-4\",\"4699\",\"40\",\"1\",\"Testing\",\"Stims/Figures/94-C-20-2.bmp\",\"zaha:za\",\"Down\",\"40\",\"4\",\"23\",\"6A\",\"C2\",\"J\",\"95\"
\"\",\"\",\"approach-retreat\",\"244\",\"1829725\",\"0.0-244.0\",\"\",\"\",\"1-4\",\"5245\",\"38\",\"1\",\"Testing\",\"Stims/Figures/19-C-20-4.bmp\",\"sasa:ha\",\"Up\",\"38\",\"4\",\"24\",\"6A\",\"C2\",\"J\",\"96\"
\"30104\",\"\",\"survey-text\",\"245\",\"1859838\",\"0.0-245.0\",\"\",\"{\"\"Q0\"\":\"\"PS170076\"\"}\",\"\",\"\",\"\",\"\",\"\",\"\",\"\",\"\",\"\",\"\",\"\",\"\",\"\",\"\",\"\"
