"rt","key_press","trial_type","trial_index","time_elapsed","internal_node_id","view_history","responses","Id","Rt","ResKeyCode","ResCorr","TrialType2","Image","Label","Location","CorrectResponse","Block","BlockTrial","Condition","LabelType","Subcondition","trialNum"
"30796","32","text","0","30804","0.0-0.0-0.0","","","","","","","","","","","","","","","","",""
"25509","","instructions","1","56317","0.0-1.0","[{""page_index"":0,""viewing_time"":25508}]","","","","","","","","","","","","","","","",""
"34858","","survey-multi-choice","2","91263","0.0-2.0","","{""Q0"":""Da"",""Q1"":""Da"",""Q2"":""Da"",""Q3"":""Da"",""Q4"":""Da"",""Q5"":""Da""}","","","","","","","","","","","","","","",""
"","","bio","3","98330","0.0-3.0","","{""age"":""18"",""gender"":""f"",""specify"":""""}","","","","","","","","","","","","","","",""
"","","approach-retreat","4","108671","0.0-4.0","","","1-1","8803","40","0","Training","Stims/Figures/86-C-30-1.bmp","va:sha:va","Down","38","1","1","3B","C1","C","1"
"","","approach-retreat","5","117479","0.0-5.0","","","1-1","7294","39","1","Training","Stims/Figures/44-C-30-3.bmp","va:sha:va","Left","39","1","2","3B","C1","C","2"
"","","approach-retreat","6","126033","0.0-6.0","","","1-1","7039","38","0","Training","Stims/Figures/7-C-20-4.bmp","va:sha:va","Up","40","1","3","3B","C1","C","3"
"","","approach-retreat","7","132685","0.0-7.0","","","1-1","5139","40","1","Training","Stims/Figures/102-C-20-4.bmp","va:sha:va","Up","40","1","4","3B","C1","C","4"
"","","approach-retreat","8","140194","0.0-8.0","","","1-1","5996","38","0","Training","Stims/Figures/94-J-0-2.bmp","za:haza","Down","40","1","5","3B","C2","C","5"
"","","approach-retreat","9","146973","0.0-9.0","","","1-1","5265","37","0","Training","Stims/Figures/27-C-30-1.bmp","va:sha:va","Left","39","1","6","3B","C1","C","6"
"","","approach-retreat","10","153967","0.0-10.0","","","1-1","5482","37","1","Training","Stims/Figures/27-J-0-1.bmp","za:haza","Left","37","1","7","3B","C2","C","7"
"","","approach-retreat","11","160684","0.0-11.0","","","1-1","5203","39","1","Training","Stims/Figures/102-J-10-4.bmp","za:haza","Right","39","1","8","3B","C2","C","8"
"","","approach-retreat","12","167144","0.0-12.0","","","1-1","4946","40","0","Training","Stims/Figures/86-J-0-1.bmp","za:haza","Up","38","1","9","3B","C2","C","9"
"","","approach-retreat","13","173702","0.0-13.0","","","1-1","5046","40","1","Training","Stims/Figures/85-C-20-2.bmp","va:sha:va","Up","40","1","10","3B","C1","C","10"
"","","approach-retreat","14","180414","0.0-14.0","","","1-1","5198","37","1","Training","Stims/Figures/144-C-30-3.bmp","va:sha:va","Right","37","1","11","3B","C1","C","11"
"","","approach-retreat","15","188190","0.0-15.0","","","1-1","6264","37","1","Training","Stims/Figures/94-C-20-2.bmp","va:sha:va","Right","37","1","12","3B","C1","C","12"
"","","approach-retreat","16","194862","0.0-16.0","","","1-1","5159","39","0","Training","Stims/Figures/85-J-0-2.bmp","za:haza","Left","37","1","13","3B","C2","C","13"
"","","approach-retreat","17","201389","0.0-17.0","","","1-1","5014","39","1","Training","Stims/Figures/44-J-10-3.bmp","za:haza","Right","39","1","14","3B","C2","C","14"
"","","approach-retreat","18","207430","0.0-18.0","","","1-1","4529","40","1","Training","Stims/Figures/7-J-10-4.bmp","za:haza","Down","40","1","15","3B","C2","C","15"
"","","approach-retreat","19","214261","0.0-19.0","","","1-1","5317","38","0","Training","Stims/Figures/144-J-10-3.bmp","za:haza","Down","40","1","16","3B","C2","C","16"
"","","approach-retreat","20","220536","0.0-20.0","","","1-1","4768","37","0","Training","Stims/Figures/144-J-10-3.bmp","za:haza","Right","39","2","1","3B","C2","C","17"
"","","approach-retreat","21","227002","0.0-21.0","","","1-1","4950","38","1","Training","Stims/Figures/27-C-30-1.bmp","va:sha:va","Down","38","2","2","3B","C1","C","18"
"","","approach-retreat","22","233246","0.0-22.0","","","1-1","4734","40","1","Training","Stims/Figures/7-J-10-4.bmp","za:haza","Down","40","2","3","3B","C2","C","19"
"","","approach-retreat","23","239928","0.0-23.0","","","1-1","5167","37","0","Training","Stims/Figures/86-C-30-1.bmp","va:sha:va","Left","39","2","4","3B","C1","C","20"
"","","approach-retreat","24","246642","0.0-24.0","","","1-1","5207","38","1","Training","Stims/Figures/27-J-0-1.bmp","za:haza","Up","38","2","5","3B","C2","C","21"
"","","approach-retreat","25","254072","0.0-25.0","","","1-1","5916","37","1","Training","Stims/Figures/86-J-0-1.bmp","za:haza","Left","37","2","6","3B","C2","C","22"
"","","approach-retreat","26","262595","0.0-26.0","","","1-1","7009","40","1","Training","Stims/Figures/102-J-10-4.bmp","za:haza","Down","40","2","7","3B","C2","C","23"
"","","approach-retreat","27","270308","0.0-27.0","","","1-1","6200","39","0","Training","Stims/Figures/85-J-0-2.bmp","za:haza","Left","37","2","8","3B","C2","C","24"
"","","approach-retreat","28","276468","0.0-28.0","","","1-1","4647","40","1","Training","Stims/Figures/85-C-20-2.bmp","va:sha:va","Up","40","2","9","3B","C1","C","25"
"","","approach-retreat","29","282451","0.0-29.0","","","1-1","4470","40","1","Training","Stims/Figures/44-C-30-3.bmp","va:sha:va","Up","40","2","10","3B","C1","C","26"
"","","approach-retreat","30","289103","0.0-30.0","","","1-1","5139","39","0","Training","Stims/Figures/7-C-20-4.bmp","va:sha:va","Right","37","2","11","3B","C1","C","27"
"","","approach-retreat","31","295535","0.0-31.0","","","1-1","4921","37","1","Training","Stims/Figures/94-J-0-2.bmp","za:haza","Left","37","2","12","3B","C2","C","28"
"","","approach-retreat","32","302997","0.0-32.0","","","1-1","5947","37","1","Training","Stims/Figures/144-C-30-3.bmp","va:sha:va","Right","37","2","13","3B","C1","C","29"
"","","approach-retreat","33","309650","0.0-33.0","","","1-1","5139","38","0","Training","Stims/Figures/44-J-10-3.bmp","za:haza","Down","40","2","14","3B","C2","C","30"
"","","approach-retreat","34","316049","0.0-34.0","","","1-1","4885","40","1","Training","Stims/Figures/102-C-20-4.bmp","va:sha:va","Up","40","2","15","3B","C1","C","31"
"","","approach-retreat","35","322857","0.0-35.0","","","1-1","5294","37","1","Training","Stims/Figures/94-C-20-2.bmp","va:sha:va","Right","37","2","16","3B","C1","C","32"
"","","approach-retreat","36","329381","0.0-36.0","","","1-1","5011","38","1","Training","Stims/Figures/27-J-0-1.bmp","za:haza","Up","38","3","1","3B","C2","C","33"
"","","approach-retreat","37","336394","0.0-37.0","","","1-1","5500","39","1","Training","Stims/Figures/7-C-20-4.bmp","va:sha:va","Left","39","3","2","3B","C1","C","34"
"","","approach-retreat","38","342766","0.0-38.0","","","1-1","4857","37","1","Training","Stims/Figures/94-J-0-2.bmp","za:haza","Left","37","3","3","3B","C2","C","35"
"","","approach-retreat","39","350009","0.0-39.0","","","1-1","5730","37","0","Training","Stims/Figures/27-C-30-1.bmp","va:sha:va","Left","39","3","4","3B","C1","C","36"
"","","approach-retreat","40","356283","0.0-40.0","","","1-1","4762","39","1","Training","Stims/Figures/7-J-10-4.bmp","za:haza","Right","39","3","5","3B","C2","C","37"
"","","approach-retreat","41","363808","0.0-41.0","","","1-1","6011","37","1","Training","Stims/Figures/102-J-10-4.bmp","za:haza","Left","37","3","6","3B","C2","C","38"
"","","approach-retreat","42","370117","0.0-42.0","","","1-1","4796","38","0","Training","Stims/Figures/144-J-10-3.bmp","za:haza","Down","40","3","7","3B","C2","C","39"
"","","approach-retreat","43","376831","0.0-43.0","","","1-1","5202","38","0","Training","Stims/Figures/144-C-30-3.bmp","va:sha:va","Up","40","3","8","3B","C1","C","40"
"","","approach-retreat","44","383261","0.0-44.0","","","1-1","4916","39","0","Training","Stims/Figures/86-C-30-1.bmp","va:sha:va","Right","37","3","9","3B","C1","C","41"
"","","approach-retreat","45","389587","0.0-45.0","","","1-1","4813","38","1","Training","Stims/Figures/44-C-30-3.bmp","va:sha:va","Down","38","3","10","3B","C1","C","42"
"","","approach-retreat","46","396268","0.0-46.0","","","1-1","5168","38","1","Training","Stims/Figures/86-J-0-1.bmp","za:haza","Up","38","3","11","3B","C2","C","43"
"","","approach-retreat","47","403077","0.0-47.0","","","1-1","5297","40","1","Training","Stims/Figures/94-C-20-2.bmp","va:sha:va","Up","40","3","12","3B","C1","C","44"
"","","approach-retreat","48","409757","0.0-48.0","","","1-1","5169","38","1","Training","Stims/Figures/102-C-20-4.bmp","va:sha:va","Down","38","3","13","3B","C1","C","45"
"","","approach-retreat","49","415786","0.0-49.0","","","1-1","4516","39","1","Training","Stims/Figures/44-J-10-3.bmp","za:haza","Right","39","3","14","3B","C2","C","46"
"","","approach-retreat","50","422029","0.0-50.0","","","1-1","4730","38","0","Training","Stims/Figures/85-J-0-2.bmp","za:haza","Down","40","3","15","3B","C2","C","47"
"","","approach-retreat","51","428078","0.0-51.0","","","1-1","4538","37","1","Training","Stims/Figures/85-C-20-2.bmp","va:sha:va","Right","37","3","16","3B","C1","C","48"
"","","approach-retreat","52","434294","0.0-52.0","","","1-1","4703","40","0","Training","Stims/Figures/94-C-20-2.bmp","va:sha:va","Down","38","4","1","3B","C1","C","49"
"","","approach-retreat","53","440196","0.0-53.0","","","1-1","4388","39","0","Training","Stims/Figures/27-C-30-1.bmp","va:sha:va","Right","37","4","2","3B","C1","C","50"
"","","approach-retreat","54","446470","0.0-54.0","","","1-1","4762","38","1","Training","Stims/Figures/86-C-30-1.bmp","va:sha:va","Down","38","4","3","3B","C1","C","51"
"","","approach-retreat","55","453069","0.0-55.0","","","1-1","5086","40","0","Training","Stims/Figures/94-J-0-2.bmp","za:haza","Up","38","4","4","3B","C2","C","52"
"","","approach-retreat","56","458909","0.0-56.0","","","1-1","4333","39","0","Training","Stims/Figures/44-J-10-3.bmp","za:haza","Left","37","4","5","3B","C2","C","53"
"","","approach-retreat","57","464968","0.0-57.0","","","1-1","4547","39","0","Training","Stims/Figures/7-C-20-4.bmp","va:sha:va","Right","37","4","6","3B","C1","C","54"
"","","approach-retreat","58","470931","0.0-58.0","","","1-1","4450","37","0","Training","Stims/Figures/7-J-10-4.bmp","za:haza","Right","39","4","7","3B","C2","C","55"
"","","approach-retreat","59","477208","0.0-59.0","","","1-1","4764","38","1","Training","Stims/Figures/85-J-0-2.bmp","za:haza","Up","38","4","8","3B","C2","C","56"
"","","approach-retreat","60","483297","0.0-60.0","","","1-1","4577","37","0","Training","Stims/Figures/144-C-30-3.bmp","va:sha:va","Left","39","4","9","3B","C1","C","57"
"","","approach-retreat","61","489761","0.0-61.0","","","1-1","4951","39","1","Training","Stims/Figures/85-C-20-2.bmp","va:sha:va","Left","39","4","10","3B","C1","C","58"
"","","approach-retreat","62","495320","0.0-62.0","","","1-1","4044","38","0","Training","Stims/Figures/102-C-20-4.bmp","va:sha:va","Up","40","4","11","3B","C1","C","59"
"","","approach-retreat","63","501098","0.0-63.0","","","1-1","4264","37","1","Training","Stims/Figures/144-J-10-3.bmp","za:haza","Left","37","4","12","3B","C2","C","60"
"","","approach-retreat","64","507466","0.0-64.0","","","1-1","4855","39","1","Training","Stims/Figures/86-J-0-1.bmp","za:haza","Right","39","4","13","3B","C2","C","61"
"","","approach-retreat","65","513969","0.0-65.0","","","1-1","4991","40","0","Training","Stims/Figures/27-J-0-1.bmp","za:haza","Up","38","4","14","3B","C2","C","62"
"","","approach-retreat","66","521215","0.0-66.0","","","1-1","5733","40","1","Training","Stims/Figures/102-J-10-4.bmp","za:haza","Down","40","4","15","3B","C2","C","63"
"","","approach-retreat","67","528646","0.0-67.0","","","1-1","5920","38","1","Training","Stims/Figures/44-C-30-3.bmp","va:sha:va","Down","38","4","16","3B","C1","C","64"
"","","approach-retreat","68","534733","0.0-68.0","","","1-1","4574","38","0","Training","Stims/Figures/86-J-0-1.bmp","za:haza","Down","40","5","1","3B","C2","C","65"
"","","approach-retreat","69","543132","0.0-69.0","","","1-1","6885","37","0","Training","Stims/Figures/85-J-0-2.bmp","za:haza","Right","39","5","2","3B","C2","C","66"
"","","approach-retreat","70","549283","0.0-70.0","","","1-1","4639","39","1","Training","Stims/Figures/94-C-20-2.bmp","va:sha:va","Left","39","5","3","3B","C1","C","67"
"","","approach-retreat","71","555558","0.0-71.0","","","1-1","4763","37","0","Training","Stims/Figures/7-C-20-4.bmp","va:sha:va","Left","39","5","4","3B","C1","C","68"
"","","approach-retreat","72","561710","0.0-72.0","","","1-1","4639","38","0","Training","Stims/Figures/44-C-30-3.bmp","va:sha:va","Up","40","5","5","3B","C1","C","69"
"","","approach-retreat","73","567778","0.0-73.0","","","1-1","4556","40","1","Training","Stims/Figures/7-J-10-4.bmp","za:haza","Down","40","5","6","3B","C2","C","70"
"","","approach-retreat","74","573493","0.0-74.0","","","1-1","4202","39","0","Training","Stims/Figures/27-C-30-1.bmp","va:sha:va","Right","37","5","7","3B","C1","C","71"
"","","approach-retreat","75","579584","0.0-75.0","","","1-1","4578","37","0","Training","Stims/Figures/144-C-30-3.bmp","va:sha:va","Left","39","5","8","3B","C1","C","72"
"","","approach-retreat","76","586077","0.0-76.0","","","1-1","4979","39","1","Training","Stims/Figures/102-J-10-4.bmp","za:haza","Right","39","5","9","3B","C2","C","73"
"","","approach-retreat","77","592324","0.0-77.0","","","1-1","4733","38","1","Training","Stims/Figures/27-J-0-1.bmp","za:haza","Up","38","5","10","3B","C2","C","74"
"","","approach-retreat","78","598349","0.0-78.0","","","1-1","4512","37","1","Training","Stims/Figures/94-J-0-2.bmp","za:haza","Left","37","5","11","3B","C2","C","75"
"","","approach-retreat","79","604346","0.0-79.0","","","1-1","4483","39","0","Training","Stims/Figures/102-C-20-4.bmp","va:sha:va","Right","37","5","12","3B","C1","C","76"
"","","approach-retreat","80","611682","0.0-80.0","","","1-1","5820","38","0","Training","Stims/Figures/44-J-10-3.bmp","za:haza","Down","40","5","13","3B","C2","C","77"
"","","approach-retreat","81","617272","0.0-81.0","","","1-1","4077","40","1","Training","Stims/Figures/144-J-10-3.bmp","za:haza","Down","40","5","14","3B","C2","C","78"
"","","approach-retreat","82","624015","0.0-82.0","","","1-1","5230","40","1","Training","Stims/Figures/85-C-20-2.bmp","va:sha:va","Up","40","5","15","3B","C1","C","79"
"","","approach-retreat","83","630324","0.0-83.0","","","1-1","4796","38","0","Training","Stims/Figures/86-C-30-1.bmp","va:sha:va","Up","40","5","16","3B","C1","C","80"
"","","approach-retreat","84","635852","0.0-84.0","","","1-1","4016","39","0","Training","Stims/Figures/86-C-30-1.bmp","va:sha:va","Right","37","6","1","3B","C1","C","81"
"","","approach-retreat","85","643126","0.0-85.0","","","1-1","5760","38","1","Training","Stims/Figures/7-J-10-4.bmp","za:haza","Up","38","6","2","3B","C2","C","82"
"","","approach-retreat","86","649619","0.0-86.0","","","1-1","4981","38","0","Training","Stims/Figures/144-J-10-3.bmp","za:haza","Down","40","6","3","3B","C2","C","83"
"","","approach-retreat","87","655928","0.0-87.0","","","1-1","4798","38","0","Training","Stims/Figures/85-J-0-2.bmp","za:haza","Down","40","6","4","3B","C2","C","84"
"","","approach-retreat","88","661766","0.0-88.0","","","1-1","4324","40","1","Training","Stims/Figures/86-J-0-1.bmp","za:haza","Down","40","6","5","3B","C2","C","85"
"","","approach-retreat","89","667389","0.0-89.0","","","1-1","4109","39","0","Training","Stims/Figures/102-C-20-4.bmp","va:sha:va","Right","37","6","6","3B","C1","C","86"
"","","approach-retreat","90","673259","0.0-90.0","","","1-1","4358","40","1","Training","Stims/Figures/7-C-20-4.bmp","va:sha:va","Up","40","6","7","3B","C1","C","87"
"","","approach-retreat","91","679568","0.0-91.0","","","1-1","4795","38","0","Training","Stims/Figures/144-C-30-3.bmp","va:sha:va","Up","40","6","8","3B","C1","C","88"
"","","approach-retreat","92","685779","0.0-92.0","","","1-1","4700","39","0","Training","Stims/Figures/44-C-30-3.bmp","va:sha:va","Right","37","6","9","3B","C1","C","89"
"","","approach-retreat","93","691838","0.0-93.0","","","1-1","4545","37","1","Training","Stims/Figures/102-J-10-4.bmp","za:haza","Left","37","6","10","3B","C2","C","90"
"","","approach-retreat","94","697865","0.0-94.0","","","1-1","4517","40","0","Training","Stims/Figures/85-C-20-2.bmp","va:sha:va","Down","38","6","11","3B","C1","C","91"
"","","approach-retreat","95","703799","0.0-95.0","","","1-1","4422","39","1","Training","Stims/Figures/94-J-0-2.bmp","za:haza","Right","39","6","12","3B","C2","C","92"
"","","approach-retreat","96","709949","0.0-96.0","","","1-1","4638","37","1","Training","Stims/Figures/44-J-10-3.bmp","za:haza","Left","37","6","13","3B","C2","C","93"
"","","approach-retreat","97","716509","0.0-97.0","","","1-1","5046","39","1","Training","Stims/Figures/94-C-20-2.bmp","va:sha:va","Left","39","6","14","3B","C1","C","94"
"","","approach-retreat","98","722350","0.0-98.0","","","1-1","4330","38","1","Training","Stims/Figures/27-J-0-1.bmp","za:haza","Up","38","6","15","3B","C2","C","95"
"","","approach-retreat","99","730310","0.0-99.0","","","1-1","6447","39","1","Training","Stims/Figures/27-C-30-1.bmp","va:sha:va","Left","39","6","16","3B","C1","C","96"
"","","approach-retreat","100","737335","0.0-100.0","","","1-1","5513","37","0","Training","Stims/Figures/102-J-10-4.bmp","za:haza","Right","39","7","1","3B","C2","C","97"
"","","approach-retreat","101","743674","0.0-101.0","","","1-1","4825","37","1","Training","Stims/Figures/27-J-0-1.bmp","za:haza","Left","37","7","2","3B","C2","C","98"
"","","approach-retreat","102","750167","0.0-102.0","","","1-1","4982","39","0","Training","Stims/Figures/44-J-10-3.bmp","za:haza","Left","37","7","3","3B","C2","C","99"
"","","approach-retreat","103","756289","0.0-103.0","","","1-1","4608","40","0","Training","Stims/Figures/7-C-20-4.bmp","va:sha:va","Down","38","7","4","3B","C1","C","100"
"","","approach-retreat","104","762534","0.0-104.0","","","1-1","4732","39","0","Training","Stims/Figures/144-C-30-3.bmp","va:sha:va","Right","37","7","5","3B","C1","C","101"
"","","approach-retreat","105","770480","0.0-105.0","","","1-1","6432","38","0","Training","Stims/Figures/102-C-20-4.bmp","va:sha:va","Up","40","7","6","3B","C1","C","102"
"","","approach-retreat","106","776951","0.0-106.0","","","1-1","4958","38","1","Training","Stims/Figures/27-C-30-1.bmp","va:sha:va","Down","38","7","7","3B","C1","C","103"
"","","approach-retreat","107","783010","0.0-107.0","","","1-1","4548","39","1","Training","Stims/Figures/94-J-0-2.bmp","za:haza","Right","39","7","8","3B","C2","C","104"
"","","approach-retreat","108","789752","0.0-108.0","","","1-1","5230","38","0","Training","Stims/Figures/144-J-10-3.bmp","za:haza","Down","40","7","9","3B","C2","C","105"
"","","approach-retreat","109","796091","0.0-109.0","","","1-1","4825","40","1","Training","Stims/Figures/86-C-30-1.bmp","va:sha:va","Up","40","7","10","3B","C1","C","106"
"","","approach-retreat","110","802026","0.0-110.0","","","1-1","4421","37","0","Training","Stims/Figures/44-C-30-3.bmp","va:sha:va","Left","39","7","11","3B","C1","C","107"
"","","approach-retreat","111","807989","0.0-111.0","","","1-1","4452","39","0","Training","Stims/Figures/85-J-0-2.bmp","za:haza","Left","37","7","12","3B","C2","C","108"
"","","approach-retreat","112","814141","0.0-112.0","","","1-1","4640","38","0","Training","Stims/Figures/7-J-10-4.bmp","za:haza","Down","40","7","13","3B","C2","C","109"
"","","approach-retreat","113","820105","0.0-113.0","","","1-1","4453","40","0","Training","Stims/Figures/86-J-0-1.bmp","za:haza","Up","38","7","14","3B","C2","C","110"
"","","approach-retreat","114","826289","0.0-114.0","","","1-1","4670","38","0","Training","Stims/Figures/85-C-20-2.bmp","va:sha:va","Up","40","7","15","3B","C1","C","111"
"","","approach-retreat","115","832690","0.0-115.0","","","1-1","4890","39","0","Training","Stims/Figures/94-C-20-2.bmp","va:sha:va","Right","37","7","16","3B","C1","C","112"
"","","approach-retreat","116","839401","0.0-116.0","","","1-1","5200","39","0","Training","Stims/Figures/102-J-10-4.bmp","za:haza","Left","37","8","1","3B","C2","C","113"
"","","approach-retreat","117","845373","0.0-117.0","","","1-1","4460","38","0","Training","Stims/Figures/27-C-30-1.bmp","va:sha:va","Up","40","8","2","3B","C1","C","114"
"","","approach-retreat","118","851525","0.0-118.0","","","1-1","4638","40","1","Training","Stims/Figures/94-J-0-2.bmp","za:haza","Down","40","8","3","3B","C2","C","115"
"","","approach-retreat","119","857614","0.0-119.0","","","1-1","4577","39","1","Training","Stims/Figures/86-C-30-1.bmp","va:sha:va","Left","39","8","4","3B","C1","C","116"
"","","approach-retreat","120","863874","0.0-120.0","","","1-1","4748","39","0","Training","Stims/Figures/85-J-0-2.bmp","za:haza","Left","37","8","5","3B","C2","C","117"
"","","approach-retreat","121","869839","0.0-121.0","","","1-1","4452","40","0","Training","Stims/Figures/102-C-20-4.bmp","va:sha:va","Down","38","8","6","3B","C1","C","118"
"","","approach-retreat","122","875957","0.0-122.0","","","1-1","4607","37","1","Training","Stims/Figures/85-C-20-2.bmp","va:sha:va","Right","37","8","7","3B","C1","C","119"
"","","approach-retreat","123","882174","0.0-123.0","","","1-1","4703","38","1","Training","Stims/Figures/144-J-10-3.bmp","za:haza","Up","38","8","8","3B","C2","C","120"
"","","approach-retreat","124","889790","0.0-124.0","","","1-1","6103","40","0","Training","Stims/Figures/144-C-30-3.bmp","va:sha:va","Down","38","8","9","3B","C1","C","121"
"","","approach-retreat","125","896815","0.0-125.0","","","1-1","5514","37","1","Training","Stims/Figures/94-C-20-2.bmp","va:sha:va","Right","37","8","10","3B","C1","C","122"
"","","approach-retreat","126","906086","0.0-126.0","","","1-1","7756","40","1","Training","Stims/Figures/7-C-20-4.bmp","va:sha:va","Up","40","8","11","3B","C1","C","123"
"","","approach-retreat","127","914014","0.0-127.0","","","1-1","6416","38","0","Training","Stims/Figures/86-J-0-1.bmp","za:haza","Down","40","8","12","3B","C2","C","124"
"","","approach-retreat","128","920818","0.0-128.0","","","1-1","5290","37","1","Training","Stims/Figures/7-J-10-4.bmp","za:haza","Left","37","8","13","3B","C2","C","125"
"","","approach-retreat","129","926846","0.0-129.0","","","1-1","4514","40","0","Training","Stims/Figures/27-J-0-1.bmp","za:haza","Up","38","8","14","3B","C2","C","126"
"","","approach-retreat","130","938019","0.0-130.0","","","1-1","9660","39","1","Training","Stims/Figures/44-J-10-3.bmp","za:haza","Right","39","8","15","3B","C2","C","127"
"","","approach-retreat","131","944419","0.0-131.0","","","1-1","4886","37","1","Training","Stims/Figures/44-C-30-3.bmp","va:sha:va","Right","37","8","16","3B","C1","C","128"
"","","approach-retreat","132","950528","0.0-132.0","","","1-1","4593","40","0","Training","Stims/Figures/27-J-0-1.bmp","za:haza","Up","38","9","1","3B","C2","C","129"
"","","approach-retreat","133","956957","0.0-133.0","","","1-1","4918","37","1","Training","Stims/Figures/86-C-30-1.bmp","va:sha:va","Right","37","9","2","3B","C1","C","130"
"","","approach-retreat","134","963079","0.0-134.0","","","1-1","4611","38","1","Training","Stims/Figures/94-J-0-2.bmp","za:haza","Up","38","9","3","3B","C2","C","131"
"","","approach-retreat","135","971289","0.0-135.0","","","1-1","6698","40","0","Training","Stims/Figures/85-J-0-2.bmp","za:haza","Up","38","9","4","3B","C2","C","132"
"","","approach-retreat","136","977315","0.0-136.0","","","1-1","4514","37","0","Training","Stims/Figures/144-J-10-3.bmp","za:haza","Right","39","9","5","3B","C2","C","133"
"","","approach-retreat","137","986430","0.0-137.0","","","1-1","7603","38","0","Training","Stims/Figures/27-C-30-1.bmp","va:sha:va","Up","40","9","6","3B","C1","C","134"
"","","approach-retreat","138","995604","0.0-138.0","","","1-1","7660","37","0","Training","Stims/Figures/7-C-20-4.bmp","va:sha:va","Left","39","9","7","3B","C1","C","135"
"","","approach-retreat","139","1002068","0.0-139.0","","","1-1","4951","38","1","Training","Stims/Figures/94-C-20-2.bmp","va:sha:va","Down","38","9","8","3B","C1","C","136"
"","","approach-retreat","140","1008719","0.0-140.0","","","1-1","5138","40","1","Training","Stims/Figures/7-J-10-4.bmp","za:haza","Down","40","9","9","3B","C2","C","137"
"","","approach-retreat","141","1018268","0.0-141.0","","","1-1","8036","37","0","Training","Stims/Figures/86-J-0-1.bmp","za:haza","Right","39","9","10","3B","C2","C","138"
"","","approach-retreat","142","1024579","0.0-142.0","","","1-1","4800","38","0","Training","Stims/Figures/102-J-10-4.bmp","za:haza","Down","40","9","11","3B","C2","C","139"
"","","approach-retreat","143","1031882","0.0-143.0","","","1-1","5789","38","0","Training","Stims/Figures/44-J-10-3.bmp","za:haza","Down","40","9","12","3B","C2","C","140"
"","","approach-retreat","144","1037845","0.0-144.0","","","1-1","4453","37","0","Training","Stims/Figures/85-C-20-2.bmp","va:sha:va","Left","39","9","13","3B","C1","C","141"
"","","approach-retreat","145","1044494","0.0-145.0","","","1-1","5136","39","1","Training","Stims/Figures/144-C-30-3.bmp","va:sha:va","Left","39","9","14","3B","C1","C","142"
"","","approach-retreat","146","1050615","0.0-146.0","","","1-1","4609","37","0","Training","Stims/Figures/44-C-30-3.bmp","va:sha:va","Left","39","9","15","3B","C1","C","143"
"","","approach-retreat","147","1056671","0.0-147.0","","","1-1","4545","37","1","Training","Stims/Figures/102-C-20-4.bmp","va:sha:va","Right","37","9","16","3B","C1","C","144"
"21171","","instructions","148","1077843","0.0-148.0","[{""page_index"":0,""viewing_time"":21171}]","","","","","","","","","","","","","","","",""
"","","approach-retreat","149","1085337","0.0-149.0","","","1-1","5984","37","0","Testing","Stims/Figures/144-J-10-3.bmp","za:haza","Right","39","1","1","3B","C2","C","1"
"","","approach-retreat","150","1092518","0.0-150.0","","","1-1","5668","37","1","Testing","Stims/Figures/7-J-10-4.bmp","za:haza","Left","37","1","2","3B","C2","C","2"
"","","approach-retreat","151","1098731","0.0-151.0","","","1-1","4703","40","1","Testing","Stims/Figures/85-C-20-2.bmp","va:sha:va","Up","40","1","3","3B","C1","C","3"
"","","approach-retreat","152","1105163","0.0-152.0","","","1-1","4922","38","0","Testing","Stims/Figures/93-J-0-1.bmp","za:haza","Down","40","1","4","3B","C2","C","4"
"","","approach-retreat","153","1111530","0.0-153.0","","","1-1","4858","38","1","Testing","Stims/Figures/86-C-30-1.bmp","va:sha:va","Down","38","1","5","3B","C1","C","5"
"","","approach-retreat","154","1118057","0.0-154.0","","","1-1","5016","37","1","Testing","Stims/Figures/84-J-0-2.bmp","za:haza","Left","37","1","6","3B","C2","C","6"
"","","approach-retreat","155","1128385","0.0-155.0","","","1-1","8818","38","1","Testing","Stims/Figures/85-J-0-2.bmp","za:haza","Up","38","1","7","3B","C2","C","7"
"","","approach-retreat","156","1135128","0.0-156.0","","","1-1","5234","37","1","Testing","Stims/Figures/44-C-30-3.bmp","va:sha:va","Right","37","1","8","3B","C1","C","8"
"","","approach-retreat","157","1142186","0.0-157.0","","","1-1","5548","37","0","Testing","Stims/Figures/7-C-20-4.bmp","va:sha:va","Left","39","1","9","3B","C1","C","9"
"","","approach-retreat","158","1149832","0.0-158.0","","","1-1","6134","38","1","Testing","Stims/Figures/44-J-10-3.bmp","za:haza","Up","38","1","10","3B","C2","C","10"
"","","approach-retreat","159","1156764","0.0-159.0","","","1-1","5422","39","1","Testing","Stims/Figures/27-C-30-1.bmp","va:sha:va","Left","39","1","11","3B","C1","C","11"
"","","approach-retreat","160","1163256","0.0-160.0","","","1-1","4983","38","0","Testing","Stims/Figures/111-C-30-3.bmp","va:sha:va","Up","40","1","12","3B","C1","C","12"
"","","approach-retreat","161","1169469","0.0-161.0","","","1-1","4703","37","1","Testing","Stims/Figures/102-J-10-4.bmp","za:haza","Left","37","1","13","3B","C2","C","13"
"","","approach-retreat","162","1176025","0.0-162.0","","","1-1","5044","38","1","Testing","Stims/Figures/93-C-30-1.bmp","va:sha:va","Down","38","1","14","3B","C1","C","14"
"","","approach-retreat","163","1182073","0.0-163.0","","","1-1","4538","37","1","Testing","Stims/Figures/19-J-10-4.bmp","za:haza","Left","37","1","15","3B","C2","C","15"
"","","approach-retreat","164","1189315","0.0-164.0","","","1-1","5730","38","0","Testing","Stims/Figures/94-C-20-2.bmp","va:sha:va","Up","40","1","16","3B","C1","C","16"
"","","approach-retreat","165","1194967","0.0-165.0","","","1-1","4136","37","0","Testing","Stims/Figures/111-J-10-3.bmp","za:haza","Right","39","1","17","3B","C2","C","17"
"","","approach-retreat","166","1201040","0.0-166.0","","","1-1","4564","39","1","Testing","Stims/Figures/27-J-0-1.bmp","za:haza","Right","39","1","18","3B","C2","C","18"
"","","approach-retreat","167","1206631","0.0-167.0","","","1-1","4070","38","1","Testing","Stims/Figures/84-C-20-2.bmp","va:sha:va","Down","38","1","19","3B","C1","C","19"
"","","approach-retreat","168","1212977","0.0-168.0","","","1-1","4835","38","0","Testing","Stims/Figures/94-J-0-2.bmp","za:haza","Down","40","1","20","3B","C2","C","20"
"","","approach-retreat","169","1219444","0.0-169.0","","","1-1","4954","39","0","Testing","Stims/Figures/144-C-30-3.bmp","va:sha:va","Right","37","1","21","3B","C1","C","21"
"","","approach-retreat","170","1225623","0.0-170.0","","","1-1","4671","38","1","Testing","Stims/Figures/86-J-0-1.bmp","za:haza","Up","38","1","22","3B","C2","C","22"
"","","approach-retreat","171","1231577","0.0-171.0","","","1-1","4446","37","1","Testing","Stims/Figures/102-C-20-4.bmp","va:sha:va","Right","37","1","23","3B","C1","C","23"
"","","approach-retreat","172","1238006","0.0-172.0","","","1-1","4919","38","1","Testing","Stims/Figures/19-C-20-4.bmp","va:sha:va","Down","38","1","24","3B","C1","C","24"
"","","approach-retreat","173","1244439","0.0-173.0","","","1-1","4922","37","1","Testing","Stims/Figures/19-C-20-4.bmp","va:sha:va","Right","37","2","1","3B","C1","C","25"
"","","approach-retreat","174","1250253","0.0-174.0","","","1-1","4303","38","1","Testing","Stims/Figures/27-J-0-1.bmp","za:haza","Up","38","2","2","3B","C2","C","26"
"","","approach-retreat","175","1256561","0.0-175.0","","","1-1","4797","37","1","Testing","Stims/Figures/84-C-20-2.bmp","va:sha:va","Right","37","2","3","3B","C1","C","27"
"","","approach-retreat","176","1262588","0.0-176.0","","","1-1","4517","37","1","Testing","Stims/Figures/86-J-0-1.bmp","za:haza","Left","37","2","4","3B","C2","C","28"
"","","approach-retreat","177","1269237","0.0-177.0","","","1-1","5139","37","0","Testing","Stims/Figures/111-C-30-3.bmp","va:sha:va","Left","39","2","5","3B","C1","C","29"
"","","approach-retreat","178","1275793","0.0-178.0","","","1-1","5045","39","1","Testing","Stims/Figures/86-C-30-1.bmp","va:sha:va","Left","39","2","6","3B","C1","C","30"
"","","approach-retreat","179","1281601","0.0-179.0","","","1-1","4299","37","0","Testing","Stims/Figures/111-J-10-3.bmp","za:haza","Right","39","2","7","3B","C2","C","31"
"","","approach-retreat","180","1288064","0.0-180.0","","","1-1","4953","39","0","Testing","Stims/Figures/93-C-30-1.bmp","va:sha:va","Right","37","2","8","3B","C1","C","32"
"","","approach-retreat","181","1294184","0.0-181.0","","","1-1","4609","37","0","Testing","Stims/Figures/44-C-30-3.bmp","va:sha:va","Left","39","2","9","3B","C1","C","33"
"","","approach-retreat","182","1307507","0.0-182.0","","","1-1","11812","38","1","Testing","Stims/Figures/85-C-20-2.bmp","va:sha:va","Down","38","2","10","3B","C1","C","34"
"","","approach-retreat","183","1313331","0.0-183.0","","","1-1","4316","40","1","Testing","Stims/Figures/102-C-20-4.bmp","va:sha:va","Up","40","2","11","3B","C1","C","35"
"","","approach-retreat","184","1319171","0.0-184.0","","","1-1","4329","39","0","Testing","Stims/Figures/93-J-0-1.bmp","za:haza","Left","37","2","12","3B","C2","C","36"
"","","approach-retreat","185","1325217","0.0-185.0","","","1-1","4536","38","0","Testing","Stims/Figures/102-J-10-4.bmp","za:haza","Down","40","2","13","3B","C2","C","37"
"","","approach-retreat","186","1331680","0.0-186.0","","","1-1","4954","38","1","Testing","Stims/Figures/85-J-0-2.bmp","za:haza","Up","38","2","14","3B","C2","C","38"
"","","approach-retreat","187","1337425","0.0-187.0","","","1-1","4235","37","1","Testing","Stims/Figures/84-J-0-2.bmp","za:haza","Left","37","2","15","3B","C2","C","39"
"","","approach-retreat","188","1345250","0.0-188.0","","","1-1","6316","39","0","Testing","Stims/Figures/7-C-20-4.bmp","va:sha:va","Right","37","2","16","3B","C1","C","40"
"","","approach-retreat","189","1357357","0.0-189.0","","","1-1","10595","40","0","Testing","Stims/Figures/94-J-0-2.bmp","za:haza","Up","38","2","17","3B","C2","C","41"
"","","approach-retreat","190","1363226","0.0-190.0","","","1-1","4358","40","1","Testing","Stims/Figures/44-J-10-3.bmp","za:haza","Down","40","2","18","3B","C2","C","42"
"","","approach-retreat","191","1369220","0.0-191.0","","","1-1","4485","40","1","Testing","Stims/Figures/94-C-20-2.bmp","va:sha:va","Up","40","2","19","3B","C1","C","43"
"","","approach-retreat","192","1375900","0.0-192.0","","","1-1","5171","38","0","Testing","Stims/Figures/7-J-10-4.bmp","za:haza","Down","40","2","20","3B","C2","C","44"
"","","approach-retreat","193","1383831","0.0-193.0","","","1-1","6420","38","0","Testing","Stims/Figures/144-J-10-3.bmp","za:haza","Down","40","2","21","3B","C2","C","45"
"","","approach-retreat","194","1390136","0.0-194.0","","","1-1","4795","39","1","Testing","Stims/Figures/19-J-10-4.bmp","za:haza","Right","39","2","22","3B","C2","C","46"
"","","approach-retreat","195","1398471","0.0-195.0","","","1-1","6823","38","1","Testing","Stims/Figures/27-C-30-1.bmp","va:sha:va","Down","38","2","23","3B","C1","C","47"
"","","approach-retreat","196","1405680","0.0-196.0","","","1-1","5699","38","0","Testing","Stims/Figures/144-C-30-3.bmp","va:sha:va","Up","40","2","24","3B","C1","C","48"
"","","approach-retreat","197","1414607","0.0-197.0","","","1-1","7418","37","1","Testing","Stims/Figures/19-J-10-4.bmp","za:haza","Left","37","3","1","3B","C2","C","49"
"","","approach-retreat","198","1426526","0.0-198.0","","","1-1","10409","37","1","Testing","Stims/Figures/102-C-20-4.bmp","va:sha:va","Right","37","3","2","3B","C1","C","50"
"","","approach-retreat","199","1433487","0.0-199.0","","","1-1","5451","38","1","Testing","Stims/Figures/7-C-20-4.bmp","va:sha:va","Down","38","3","3","3B","C1","C","51"
"","","approach-retreat","200","1439700","0.0-200.0","","","1-1","4702","40","0","Testing","Stims/Figures/27-C-30-1.bmp","va:sha:va","Down","38","3","4","3B","C1","C","52"
"","","approach-retreat","201","1446974","0.0-201.0","","","1-1","5764","37","0","Testing","Stims/Figures/27-J-0-1.bmp","za:haza","Right","39","3","5","3B","C2","C","53"
"","","approach-retreat","202","1453032","0.0-202.0","","","1-1","4548","40","1","Testing","Stims/Figures/94-C-20-2.bmp","va:sha:va","Up","40","3","6","3B","C1","C","54"
"","","approach-retreat","203","1459172","0.0-203.0","","","1-1","4629","37","0","Testing","Stims/Figures/102-J-10-4.bmp","za:haza","Right","39","3","7","3B","C2","C","55"
"","","approach-retreat","204","1464917","0.0-204.0","","","1-1","4235","40","1","Testing","Stims/Figures/144-C-30-3.bmp","va:sha:va","Up","40","3","8","3B","C1","C","56"
"","","approach-retreat","205","1471816","0.0-205.0","","","1-1","5388","38","1","Testing","Stims/Figures/144-J-10-3.bmp","za:haza","Up","38","3","9","3B","C2","C","57"
"","","approach-retreat","206","1477874","0.0-206.0","","","1-1","4548","37","1","Testing","Stims/Figures/44-C-30-3.bmp","va:sha:va","Right","37","3","10","3B","C1","C","58"
"","","approach-retreat","207","1484055","0.0-207.0","","","1-1","4672","38","0","Testing","Stims/Figures/85-J-0-2.bmp","za:haza","Down","40","3","11","3B","C2","C","59"
"","","approach-retreat","208","1489822","0.0-208.0","","","1-1","4256","40","0","Testing","Stims/Figures/44-J-10-3.bmp","za:haza","Up","38","3","12","3B","C2","C","60"
"","","approach-retreat","209","1495690","0.0-209.0","","","1-1","4358","37","1","Testing","Stims/Figures/94-J-0-2.bmp","za:haza","Left","37","3","13","3B","C2","C","61"
"","","approach-retreat","210","1501406","0.0-210.0","","","1-1","4204","39","1","Testing","Stims/Figures/86-C-30-1.bmp","va:sha:va","Left","39","3","14","3B","C1","C","62"
"","","approach-retreat","211","1508024","0.0-211.0","","","1-1","5108","37","0","Testing","Stims/Figures/86-J-0-1.bmp","za:haza","Right","39","3","15","3B","C2","C","63"
"","","approach-retreat","212","1514738","0.0-212.0","","","1-1","5204","39","0","Testing","Stims/Figures/93-J-0-1.bmp","za:haza","Left","37","3","16","3B","C2","C","64"
"","","approach-retreat","213","1521573","0.0-213.0","","","1-1","5325","40","0","Testing","Stims/Figures/85-C-20-2.bmp","va:sha:va","Down","38","3","17","3B","C1","C","65"
"","","approach-retreat","214","1528348","0.0-214.0","","","1-1","5267","37","0","Testing","Stims/Figures/93-C-30-1.bmp","va:sha:va","Left","39","3","18","3B","C1","C","66"
"","","approach-retreat","215","1536463","0.0-215.0","","","1-1","6603","38","1","Testing","Stims/Figures/84-J-0-2.bmp","za:haza","Up","38","3","19","3B","C2","C","67"
"","","approach-retreat","216","1543799","0.0-216.0","","","1-1","5826","40","1","Testing","Stims/Figures/111-J-10-3.bmp","za:haza","Down","40","3","20","3B","C2","C","68"
"","","approach-retreat","217","1551477","0.0-217.0","","","1-1","6169","37","1","Testing","Stims/Figures/111-C-30-3.bmp","va:sha:va","Right","37","3","21","3B","C1","C","69"
"","","approach-retreat","218","1560247","0.0-218.0","","","1-1","7262","38","1","Testing","Stims/Figures/84-C-20-2.bmp","va:sha:va","Down","38","3","22","3B","C1","C","70"
"","","approach-retreat","219","1566275","0.0-219.0","","","1-1","4515","40","1","Testing","Stims/Figures/19-C-20-4.bmp","va:sha:va","Up","40","3","23","3B","C1","C","71"
"","","approach-retreat","220","1571958","0.0-220.0","","","1-1","4174","37","1","Testing","Stims/Figures/7-J-10-4.bmp","za:haza","Left","37","3","24","3B","C2","C","72"
"","","approach-retreat","221","1577734","0.0-221.0","","","1-1","4267","40","1","Testing","Stims/Figures/102-C-20-4.bmp","va:sha:va","Up","40","4","1","3B","C1","C","73"
"","","approach-retreat","222","1586722","0.0-222.0","","","1-1","7479","40","0","Testing","Stims/Figures/93-C-30-1.bmp","va:sha:va","Down","38","4","2","3B","C1","C","74"
"","","approach-retreat","223","1593152","0.0-223.0","","","1-1","4920","38","0","Testing","Stims/Figures/7-J-10-4.bmp","za:haza","Down","40","4","3","3B","C2","C","75"
"","","approach-retreat","224","1600395","0.0-224.0","","","1-1","5733","40","1","Testing","Stims/Figures/86-C-30-1.bmp","va:sha:va","Up","40","4","4","3B","C1","C","76"
"","","approach-retreat","225","1606739","0.0-225.0","","","1-1","4836","37","1","Testing","Stims/Figures/102-J-10-4.bmp","za:haza","Left","37","4","5","3B","C2","C","77"
"","","approach-retreat","226","1613317","0.0-226.0","","","1-1","5067","38","0","Testing","Stims/Figures/85-J-0-2.bmp","za:haza","Down","40","4","6","3B","C2","C","78"
"","","approach-retreat","227","1622305","0.0-227.0","","","1-1","7478","40","0","Testing","Stims/Figures/85-C-20-2.bmp","va:sha:va","Down","38","4","7","3B","C1","C","79"
"","","approach-retreat","228","1631013","0.0-228.0","","","1-1","7200","40","0","Testing","Stims/Figures/94-J-0-2.bmp","za:haza","Up","38","4","8","3B","C2","C","80"
"","","approach-retreat","229","1640748","0.0-229.0","","","1-1","8226","38","1","Testing","Stims/Figures/111-J-10-3.bmp","za:haza","Up","38","4","9","3B","C2","C","81"
"","","approach-retreat","230","1650954","0.0-230.0","","","1-1","8695","40","0","Testing","Stims/Figures/19-C-20-4.bmp","va:sha:va","Down","38","4","10","3B","C1","C","82"
"","","approach-retreat","231","1657322","0.0-231.0","","","1-1","4858","40","0","Testing","Stims/Figures/44-J-10-3.bmp","za:haza","Up","38","4","11","3B","C2","C","83"
"","","approach-retreat","232","1666779","0.0-232.0","","","1-1","7946","39","1","Testing","Stims/Figures/93-J-0-1.bmp","za:haza","Right","39","4","12","3B","C2","C","84"
"","","approach-retreat","233","1673490","0.0-233.0","","","1-1","5200","37","0","Testing","Stims/Figures/144-J-10-3.bmp","za:haza","Right","39","4","13","3B","C2","C","85"
"","","approach-retreat","234","1679515","0.0-234.0","","","1-1","4516","37","0","Testing","Stims/Figures/27-J-0-1.bmp","za:haza","Right","39","4","14","3B","C2","C","86"
"","","approach-retreat","235","1691562","0.0-235.0","","","1-1","10541","37","0","Testing","Stims/Figures/144-C-30-3.bmp","va:sha:va","Left","39","4","15","3B","C1","C","87"
"","","approach-retreat","236","1698397","0.0-236.0","","","1-1","5326","38","1","Testing","Stims/Figures/111-C-30-3.bmp","va:sha:va","Down","38","4","16","3B","C1","C","88"
"","","approach-retreat","237","1707760","0.0-237.0","","","1-1","7854","37","1","Testing","Stims/Figures/84-J-0-2.bmp","za:haza","Left","37","4","17","3B","C2","C","89"
"","","approach-retreat","238","1714035","0.0-238.0","","","1-1","4765","38","1","Testing","Stims/Figures/19-J-10-4.bmp","za:haza","Up","38","4","18","3B","C2","C","90"
"","","approach-retreat","239","1720591","0.0-239.0","","","1-1","5046","37","0","Testing","Stims/Figures/7-C-20-4.bmp","va:sha:va","Left","39","4","19","3B","C1","C","91"
"","","approach-retreat","240","1727801","0.0-240.0","","","1-1","5699","39","0","Testing","Stims/Figures/44-C-30-3.bmp","va:sha:va","Right","37","4","20","3B","C1","C","92"
"","","approach-retreat","241","1733453","0.0-241.0","","","1-1","4142","37","0","Testing","Stims/Figures/27-C-30-1.bmp","va:sha:va","Left","39","4","21","3B","C1","C","93"
"","","approach-retreat","242","1739197","0.0-242.0","","","1-1","4240","37","0","Testing","Stims/Figures/94-C-20-2.bmp","va:sha:va","Left","39","4","22","3B","C1","C","94"
"","","approach-retreat","243","1745162","0.0-243.0","","","1-1","4455","39","1","Testing","Stims/Figures/86-J-0-1.bmp","za:haza","Right","39","4","23","3B","C2","C","95"
"","","approach-retreat","244","1751563","0.0-244.0","","","1-1","4891","39","0","Testing","Stims/Figures/84-C-20-2.bmp","va:sha:va","Right","37","4","24","3B","C1","C","96"
"30407","","survey-text","245","1781979","0.0-245.0","","{""Q0"":""1020/2018""}","","","","","","","","","","","","","","",""
