\"rt\",\"key_press\",\"trial_type\",\"trial_index\",\"time_elapsed\",\"internal_node_id\",\"view_history\",\"responses\",\"Id\",\"Rt\",\"ResKeyCode\",\"ResCorr\",\"TrialType2\",\"Image\",\"Label\",\"Location\",\"CorrectResponse\",\"Block\",\"BlockTrial\",\"Condition\",\"LabelType\",\"Subcondition\",\"trialNum\"
\"234966\",\"32\",\"text\",\"0\",\"234972\",\"0.0-0.0-0.0\",\"\",\"\",\"\",\"\",\"\",\"\",\"\",\"\",\"\",\"\",\"\",\"\",\"\",\"\",\"\",\"\",\"\"
\"9073\",\"\",\"instructions\",\"1\",\"244051\",\"0.0-1.0\",\"[{\"\"page_index\"\":0,\"\"viewing_time\"\":9072}]\",\"\",\"\",\"\",\"\",\"\",\"\",\"\",\"\",\"\",\"\",\"\",\"\",\"\",\"\",\"\",\"\"
\"59797\",\"\",\"survey-multi-choice\",\"2\",\"303897\",\"0.0-2.0\",\"\",\"{\"\"Q0\"\":\"\"Da\"\",\"\"Q1\"\":\"\"Da\"\",\"\"Q2\"\":\"\"Da\"\",\"\"Q3\"\":\"\"Da\"\",\"\"Q4\"\":\"\"Da\"\",\"\"Q5\"\":\"\"Da\"\"}\",\"\",\"\",\"\",\"\",\"\",\"\",\"\",\"\",\"\",\"\",\"\",\"\",\"\",\"\",\"\"
\"\",\"\",\"bio\",\"3\",\"313939\",\"0.0-3.0\",\"\",\"{\"\"age\"\":\"\"20\"\",\"\"gender\"\":\"\"f\"\",\"\"specify\"\":\"\"\"\"}\",\"\",\"\",\"\",\"\",\"\",\"\",\"\",\"\",\"\",\"\",\"\",\"\",\"\",\"\",\"\"
\"\",\"\",\"approach-retreat\",\"4\",\"973703\",\"0.0-4.0\",\"\",\"\",\"1-4\",\"658250\",\"38\",\"0\",\"Training\",\"Stims/Figures/74-C-20-4.bmp\",\"ta:ka:ka\",\"Up\",\"40\",\"1\",\"1\",\"2\",\"P\",\"C\",\"1\"
\"\",\"\",\"approach-retreat\",\"5\",\"986766\",\"0.0-5.0\",\"\",\"\",\"1-4\",\"11553\",\"40\",\"0\",\"Training\",\"Stims/Figures/118-C-20-2.bmp\",\"ta:ka:ka\",\"Down\",\"38\",\"1\",\"2\",\"2\",\"P\",\"C\",\"2\"
\"\",\"\",\"approach-retreat\",\"6\",\"993735\",\"0.0-6.0\",\"\",\"\",\"1-4\",\"5462\",\"37\",\"0\",\"Training\",\"Stims/Figures/111-C-30-3.bmp\",\"ta:ka:ka\",\"Left\",\"39\",\"1\",\"3\",\"2\",\"P\",\"C\",\"3\"
\"\",\"\",\"approach-retreat\",\"7\",\"1003478\",\"0.0-7.0\",\"\",\"\",\"1-4\",\"8235\",\"40\",\"0\",\"Training\",\"Stims/Figures/57-C-30-1.bmp\",\"ta:ka:ka\",\"Down\",\"38\",\"1\",\"4\",\"2\",\"P\",\"C\",\"4\"
\"\",\"\",\"approach-retreat\",\"8\",\"1010574\",\"0.0-8.0\",\"\",\"\",\"1-4\",\"5589\",\"37\",\"0\",\"Training\",\"Stims/Figures/85-J-0-2.bmp\",\"ma:la:na\",\"Right\",\"39\",\"1\",\"5\",\"2\",\"S\",\"C\",\"5\"
\"\",\"\",\"approach-retreat\",\"9\",\"1016943\",\"0.0-9.0\",\"\",\"\",\"1-4\",\"4861\",\"37\",\"1\",\"Training\",\"Stims/Figures/93-C-30-1.bmp\",\"ta:ka:ka\",\"Right\",\"37\",\"1\",\"6\",\"2\",\"P\",\"C\",\"6\"
\"\",\"\",\"approach-retreat\",\"10\",\"1024279\",\"0.0-10.0\",\"\",\"\",\"1-4\",\"5827\",\"37\",\"1\",\"Training\",\"Stims/Figures/111-J-10-3.bmp\",\"ma:la:na\",\"Left\",\"37\",\"1\",\"7\",\"2\",\"S\",\"C\",\"7\"
\"\",\"\",\"approach-retreat\",\"11\",\"1030125\",\"0.0-11.0\",\"\",\"\",\"1-4\",\"4338\",\"39\",\"1\",\"Training\",\"Stims/Figures/74-J-10-4.bmp\",\"ma:la:na\",\"Right\",\"39\",\"1\",\"8\",\"2\",\"S\",\"C\",\"8\"
\"\",\"\",\"approach-retreat\",\"12\",\"1036907\",\"0.0-12.0\",\"\",\"\",\"1-4\",\"5274\",\"38\",\"1\",\"Training\",\"Stims/Figures/19-J-10-4.bmp\",\"ma:la:na\",\"Up\",\"38\",\"1\",\"9\",\"2\",\"S\",\"C\",\"9\"
\"\",\"\",\"approach-retreat\",\"13\",\"1043929\",\"0.0-13.0\",\"\",\"\",\"1-4\",\"5515\",\"38\",\"1\",\"Training\",\"Stims/Figures/100-C-30-3.bmp\",\"ta:ka:ka\",\"Down\",\"38\",\"1\",\"10\",\"2\",\"P\",\"C\",\"10\"
\"\",\"\",\"approach-retreat\",\"14\",\"1051377\",\"0.0-14.0\",\"\",\"\",\"1-4\",\"5938\",\"39\",\"1\",\"Training\",\"Stims/Figures/118-J-0-2.bmp\",\"ma:la:na\",\"Right\",\"39\",\"1\",\"11\",\"2\",\"S\",\"C\",\"11\"
\"\",\"\",\"approach-retreat\",\"15\",\"1058073\",\"0.0-15.0\",\"\",\"\",\"1-4\",\"5188\",\"38\",\"1\",\"Training\",\"Stims/Figures/100-J-10-3.bmp\",\"ma:la:na\",\"Up\",\"38\",\"1\",\"12\",\"2\",\"S\",\"C\",\"12\"
\"\",\"\",\"approach-retreat\",\"16\",\"1065209\",\"0.0-16.0\",\"\",\"\",\"1-4\",\"5628\",\"37\",\"0\",\"Training\",\"Stims/Figures/85-C-20-2.bmp\",\"ta:ka:ka\",\"Left\",\"39\",\"1\",\"13\",\"2\",\"P\",\"C\",\"13\"
\"\",\"\",\"approach-retreat\",\"17\",\"1071370\",\"0.0-17.0\",\"\",\"\",\"1-4\",\"4654\",\"40\",\"0\",\"Training\",\"Stims/Figures/19-C-20-4.bmp\",\"ta:ka:ka\",\"Down\",\"38\",\"1\",\"14\",\"2\",\"P\",\"C\",\"14\"
\"\",\"\",\"approach-retreat\",\"18\",\"1079098\",\"0.0-18.0\",\"\",\"\",\"1-4\",\"6216\",\"39\",\"0\",\"Training\",\"Stims/Figures/93-J-0-1.bmp\",\"ma:la:na\",\"Left\",\"37\",\"1\",\"15\",\"2\",\"S\",\"C\",\"15\"
\"\",\"\",\"approach-retreat\",\"19\",\"1086016\",\"0.0-19.0\",\"\",\"\",\"1-4\",\"5412\",\"38\",\"1\",\"Training\",\"Stims/Figures/57-J-0-1.bmp\",\"ma:la:na\",\"Up\",\"38\",\"1\",\"16\",\"2\",\"S\",\"C\",\"16\"
\"\",\"\",\"approach-retreat\",\"20\",\"1093136\",\"0.0-20.0\",\"\",\"\",\"1-4\",\"5614\",\"40\",\"0\",\"Training\",\"Stims/Figures/100-J-10-3.bmp\",\"ma:la:na\",\"Up\",\"38\",\"2\",\"1\",\"2\",\"S\",\"C\",\"17\"
\"\",\"\",\"approach-retreat\",\"21\",\"1100282\",\"0.0-21.0\",\"\",\"\",\"1-4\",\"5638\",\"40\",\"1\",\"Training\",\"Stims/Figures/85-C-20-2.bmp\",\"ta:ka:ka\",\"Up\",\"40\",\"2\",\"2\",\"2\",\"P\",\"C\",\"18\"
\"\",\"\",\"approach-retreat\",\"22\",\"1107544\",\"0.0-22.0\",\"\",\"\",\"1-4\",\"5757\",\"38\",\"0\",\"Training\",\"Stims/Figures/74-J-10-4.bmp\",\"ma:la:na\",\"Down\",\"40\",\"2\",\"3\",\"2\",\"S\",\"C\",\"19\"
\"\",\"\",\"approach-retreat\",\"23\",\"1118256\",\"0.0-23.0\",\"\",\"\",\"1-4\",\"9205\",\"37\",\"0\",\"Training\",\"Stims/Figures/74-C-20-4.bmp\",\"ta:ka:ka\",\"Left\",\"39\",\"2\",\"4\",\"2\",\"P\",\"C\",\"20\"
\"\",\"\",\"approach-retreat\",\"24\",\"1125425\",\"0.0-24.0\",\"\",\"\",\"1-4\",\"5661\",\"37\",\"0\",\"Training\",\"Stims/Figures/118-C-20-2.bmp\",\"ta:ka:ka\",\"Left\",\"39\",\"2\",\"5\",\"2\",\"P\",\"C\",\"21\"
\"\",\"\",\"approach-retreat\",\"25\",\"1141640\",\"0.0-25.0\",\"\",\"\",\"1-4\",\"14707\",\"39\",\"0\",\"Training\",\"Stims/Figures/57-J-0-1.bmp\",\"ma:la:na\",\"Left\",\"37\",\"2\",\"6\",\"2\",\"S\",\"C\",\"22\"
\"\",\"\",\"approach-retreat\",\"26\",\"1149105\",\"0.0-26.0\",\"\",\"\",\"1-4\",\"5956\",\"37\",\"1\",\"Training\",\"Stims/Figures/100-C-30-3.bmp\",\"ta:ka:ka\",\"Right\",\"37\",\"2\",\"7\",\"2\",\"P\",\"C\",\"23\"
\"\",\"\",\"approach-retreat\",\"27\",\"1155591\",\"0.0-27.0\",\"\",\"\",\"1-4\",\"4979\",\"39\",\"1\",\"Training\",\"Stims/Figures/93-J-0-1.bmp\",\"ma:la:na\",\"Right\",\"39\",\"2\",\"8\",\"2\",\"S\",\"C\",\"24\"
\"\",\"\",\"approach-retreat\",\"28\",\"1165250\",\"0.0-28.0\",\"\",\"\",\"1-4\",\"8152\",\"40\",\"0\",\"Training\",\"Stims/Figures/111-J-10-3.bmp\",\"ma:la:na\",\"Up\",\"38\",\"2\",\"9\",\"2\",\"S\",\"C\",\"25\"
\"\",\"\",\"approach-retreat\",\"29\",\"1173273\",\"0.0-29.0\",\"\",\"\",\"1-4\",\"6516\",\"40\",\"0\",\"Training\",\"Stims/Figures/85-J-0-2.bmp\",\"ma:la:na\",\"Up\",\"38\",\"2\",\"10\",\"2\",\"S\",\"C\",\"26\"
\"\",\"\",\"approach-retreat\",\"30\",\"1185857\",\"0.0-30.0\",\"\",\"\",\"1-4\",\"11075\",\"37\",\"0\",\"Training\",\"Stims/Figures/118-J-0-2.bmp\",\"ma:la:na\",\"Right\",\"39\",\"2\",\"11\",\"2\",\"S\",\"C\",\"27\"
\"\",\"\",\"approach-retreat\",\"31\",\"1193890\",\"0.0-31.0\",\"\",\"\",\"1-4\",\"6524\",\"38\",\"1\",\"Training\",\"Stims/Figures/93-C-30-1.bmp\",\"ta:ka:ka\",\"Down\",\"38\",\"2\",\"12\",\"2\",\"P\",\"C\",\"28\"
\"\",\"\",\"approach-retreat\",\"32\",\"1200146\",\"0.0-32.0\",\"\",\"\",\"1-4\",\"4747\",\"40\",\"0\",\"Training\",\"Stims/Figures/111-C-30-3.bmp\",\"ta:ka:ka\",\"Down\",\"38\",\"2\",\"13\",\"2\",\"P\",\"C\",\"29\"
\"\",\"\",\"approach-retreat\",\"33\",\"1207241\",\"0.0-33.0\",\"\",\"\",\"1-4\",\"5588\",\"37\",\"0\",\"Training\",\"Stims/Figures/19-C-20-4.bmp\",\"ta:ka:ka\",\"Left\",\"39\",\"2\",\"14\",\"2\",\"P\",\"C\",\"30\"
\"\",\"\",\"approach-retreat\",\"34\",\"1213800\",\"0.0-34.0\",\"\",\"\",\"1-4\",\"5051\",\"37\",\"0\",\"Training\",\"Stims/Figures/19-J-10-4.bmp\",\"ma:la:na\",\"Right\",\"39\",\"2\",\"15\",\"2\",\"S\",\"C\",\"31\"
\"\",\"\",\"approach-retreat\",\"35\",\"1220721\",\"0.0-35.0\",\"\",\"\",\"1-4\",\"5412\",\"38\",\"1\",\"Training\",\"Stims/Figures/57-C-30-1.bmp\",\"ta:ka:ka\",\"Down\",\"38\",\"2\",\"16\",\"2\",\"P\",\"C\",\"32\"
\"\",\"\",\"approach-retreat\",\"36\",\"1229328\",\"0.0-36.0\",\"\",\"\",\"1-4\",\"7100\",\"39\",\"0\",\"Training\",\"Stims/Figures/93-C-30-1.bmp\",\"ta:ka:ka\",\"Right\",\"37\",\"3\",\"1\",\"2\",\"P\",\"C\",\"33\"
\"\",\"\",\"approach-retreat\",\"37\",\"1235625\",\"0.0-37.0\",\"\",\"\",\"1-4\",\"4790\",\"37\",\"1\",\"Training\",\"Stims/Figures/19-C-20-4.bmp\",\"ta:ka:ka\",\"Right\",\"37\",\"3\",\"2\",\"2\",\"P\",\"C\",\"34\"
\"\",\"\",\"approach-retreat\",\"38\",\"1241968\",\"0.0-38.0\",\"\",\"\",\"1-4\",\"4837\",\"39\",\"1\",\"Training\",\"Stims/Figures/118-J-0-2.bmp\",\"ma:la:na\",\"Right\",\"39\",\"3\",\"3\",\"2\",\"S\",\"C\",\"35\"
\"\",\"\",\"approach-retreat\",\"39\",\"1248529\",\"0.0-39.0\",\"\",\"\",\"1-4\",\"5053\",\"38\",\"1\",\"Training\",\"Stims/Figures/74-C-20-4.bmp\",\"ta:ka:ka\",\"Down\",\"38\",\"3\",\"4\",\"2\",\"P\",\"C\",\"36\"
\"\",\"\",\"approach-retreat\",\"40\",\"1254560\",\"0.0-40.0\",\"\",\"\",\"1-4\",\"4524\",\"38\",\"0\",\"Training\",\"Stims/Figures/100-J-10-3.bmp\",\"ma:la:na\",\"Down\",\"40\",\"3\",\"5\",\"2\",\"S\",\"C\",\"37\"
\"\",\"\",\"approach-retreat\",\"41\",\"1261799\",\"0.0-41.0\",\"\",\"\",\"1-4\",\"5732\",\"37\",\"0\",\"Training\",\"Stims/Figures/19-J-10-4.bmp\",\"ma:la:na\",\"Right\",\"39\",\"3\",\"6\",\"2\",\"S\",\"C\",\"38\"
\"\",\"\",\"approach-retreat\",\"42\",\"1268392\",\"0.0-42.0\",\"\",\"\",\"1-4\",\"5086\",\"40\",\"0\",\"Training\",\"Stims/Figures/93-J-0-1.bmp\",\"ma:la:na\",\"Up\",\"38\",\"3\",\"7\",\"2\",\"S\",\"C\",\"39\"
\"\",\"\",\"approach-retreat\",\"43\",\"1274800\",\"0.0-43.0\",\"\",\"\",\"1-4\",\"4898\",\"38\",\"1\",\"Training\",\"Stims/Figures/57-J-0-1.bmp\",\"ma:la:na\",\"Up\",\"38\",\"3\",\"8\",\"2\",\"S\",\"C\",\"40\"
\"\",\"\",\"approach-retreat\",\"44\",\"1280953\",\"0.0-44.0\",\"\",\"\",\"1-4\",\"4644\",\"40\",\"1\",\"Training\",\"Stims/Figures/85-J-0-2.bmp\",\"ma:la:na\",\"Down\",\"40\",\"3\",\"9\",\"2\",\"S\",\"C\",\"41\"
\"\",\"\",\"approach-retreat\",\"45\",\"1287335\",\"0.0-45.0\",\"\",\"\",\"1-4\",\"4875\",\"39\",\"1\",\"Training\",\"Stims/Figures/57-C-30-1.bmp\",\"ta:ka:ka\",\"Left\",\"39\",\"3\",\"10\",\"2\",\"P\",\"C\",\"42\"
\"\",\"\",\"approach-retreat\",\"46\",\"1293946\",\"0.0-46.0\",\"\",\"\",\"1-4\",\"5103\",\"39\",\"0\",\"Training\",\"Stims/Figures/111-J-10-3.bmp\",\"ma:la:na\",\"Left\",\"37\",\"3\",\"11\",\"2\",\"S\",\"C\",\"43\"
\"\",\"\",\"approach-retreat\",\"47\",\"1300708\",\"0.0-47.0\",\"\",\"\",\"1-4\",\"5254\",\"37\",\"0\",\"Training\",\"Stims/Figures/100-C-30-3.bmp\",\"ta:ka:ka\",\"Left\",\"39\",\"3\",\"12\",\"2\",\"P\",\"C\",\"44\"
\"\",\"\",\"approach-retreat\",\"48\",\"1307842\",\"0.0-48.0\",\"\",\"\",\"1-4\",\"5625\",\"40\",\"1\",\"Training\",\"Stims/Figures/111-C-30-3.bmp\",\"ta:ka:ka\",\"Up\",\"40\",\"3\",\"13\",\"2\",\"P\",\"C\",\"45\"
\"\",\"\",\"approach-retreat\",\"49\",\"1320563\",\"0.0-49.0\",\"\",\"\",\"1-4\",\"11212\",\"38\",\"1\",\"Training\",\"Stims/Figures/118-C-20-2.bmp\",\"ta:ka:ka\",\"Down\",\"38\",\"3\",\"14\",\"2\",\"P\",\"C\",\"46\"
\"\",\"\",\"approach-retreat\",\"50\",\"1329482\",\"0.0-50.0\",\"\",\"\",\"1-4\",\"7411\",\"38\",\"1\",\"Training\",\"Stims/Figures/74-J-10-4.bmp\",\"ma:la:na\",\"Up\",\"38\",\"3\",\"15\",\"2\",\"S\",\"C\",\"47\"
\"\",\"\",\"approach-retreat\",\"51\",\"1336019\",\"0.0-51.0\",\"\",\"\",\"1-4\",\"5028\",\"39\",\"1\",\"Training\",\"Stims/Figures/85-C-20-2.bmp\",\"ta:ka:ka\",\"Left\",\"39\",\"3\",\"16\",\"2\",\"P\",\"C\",\"48\"
\"\",\"\",\"approach-retreat\",\"52\",\"1342545\",\"0.0-52.0\",\"\",\"\",\"1-4\",\"5020\",\"38\",\"1\",\"Training\",\"Stims/Figures/100-J-10-3.bmp\",\"ma:la:na\",\"Up\",\"38\",\"4\",\"1\",\"2\",\"S\",\"C\",\"49\"
\"\",\"\",\"approach-retreat\",\"53\",\"1349921\",\"0.0-53.0\",\"\",\"\",\"1-4\",\"5869\",\"39\",\"0\",\"Training\",\"Stims/Figures/85-J-0-2.bmp\",\"ma:la:na\",\"Left\",\"37\",\"4\",\"2\",\"2\",\"S\",\"C\",\"50\"
\"\",\"\",\"approach-retreat\",\"54\",\"1356528\",\"0.0-54.0\",\"\",\"\",\"1-4\",\"5100\",\"38\",\"0\",\"Training\",\"Stims/Figures/118-J-0-2.bmp\",\"ma:la:na\",\"Down\",\"40\",\"4\",\"3\",\"2\",\"S\",\"C\",\"51\"
\"\",\"\",\"approach-retreat\",\"55\",\"1362296\",\"0.0-55.0\",\"\",\"\",\"1-4\",\"4261\",\"39\",\"1\",\"Training\",\"Stims/Figures/118-C-20-2.bmp\",\"ta:ka:ka\",\"Left\",\"39\",\"4\",\"4\",\"2\",\"P\",\"C\",\"52\"
\"\",\"\",\"approach-retreat\",\"56\",\"1367818\",\"0.0-56.0\",\"\",\"\",\"1-4\",\"4010\",\"37\",\"1\",\"Training\",\"Stims/Figures/74-J-10-4.bmp\",\"ma:la:na\",\"Left\",\"37\",\"4\",\"5\",\"2\",\"S\",\"C\",\"53\"
\"\",\"\",\"approach-retreat\",\"57\",\"1374208\",\"0.0-57.0\",\"\",\"\",\"1-4\",\"4883\",\"37\",\"1\",\"Training\",\"Stims/Figures/111-C-30-3.bmp\",\"ta:ka:ka\",\"Right\",\"37\",\"4\",\"6\",\"2\",\"P\",\"C\",\"54\"
\"\",\"\",\"approach-retreat\",\"58\",\"1380472\",\"0.0-58.0\",\"\",\"\",\"1-4\",\"4755\",\"40\",\"1\",\"Training\",\"Stims/Figures/85-C-20-2.bmp\",\"ta:ka:ka\",\"Up\",\"40\",\"4\",\"7\",\"2\",\"P\",\"C\",\"55\"
\"\",\"\",\"approach-retreat\",\"59\",\"1386489\",\"0.0-59.0\",\"\",\"\",\"1-4\",\"4509\",\"37\",\"1\",\"Training\",\"Stims/Figures/74-C-20-4.bmp\",\"ta:ka:ka\",\"Right\",\"37\",\"4\",\"8\",\"2\",\"P\",\"C\",\"56\"
\"\",\"\",\"approach-retreat\",\"60\",\"1394167\",\"0.0-60.0\",\"\",\"\",\"1-4\",\"6171\",\"37\",\"1\",\"Training\",\"Stims/Figures/19-J-10-4.bmp\",\"ma:la:na\",\"Left\",\"37\",\"4\",\"9\",\"2\",\"S\",\"C\",\"57\"
\"\",\"\",\"approach-retreat\",\"61\",\"1400919\",\"0.0-61.0\",\"\",\"\",\"1-4\",\"5245\",\"38\",\"1\",\"Training\",\"Stims/Figures/100-C-30-3.bmp\",\"ta:ka:ka\",\"Down\",\"38\",\"4\",\"10\",\"2\",\"P\",\"C\",\"58\"
\"\",\"\",\"approach-retreat\",\"62\",\"1406896\",\"0.0-62.0\",\"\",\"\",\"1-4\",\"4470\",\"38\",\"1\",\"Training\",\"Stims/Figures/57-C-30-1.bmp\",\"ta:ka:ka\",\"Down\",\"38\",\"4\",\"11\",\"2\",\"P\",\"C\",\"59\"
\"\",\"\",\"approach-retreat\",\"63\",\"1413313\",\"0.0-63.0\",\"\",\"\",\"1-4\",\"4909\",\"39\",\"1\",\"Training\",\"Stims/Figures/111-J-10-3.bmp\",\"ma:la:na\",\"Right\",\"39\",\"4\",\"12\",\"2\",\"S\",\"C\",\"60\"
\"\",\"\",\"approach-retreat\",\"64\",\"1422648\",\"0.0-64.0\",\"\",\"\",\"1-4\",\"7828\",\"38\",\"0\",\"Training\",\"Stims/Figures/19-C-20-4.bmp\",\"ta:ka:ka\",\"Up\",\"40\",\"4\",\"13\",\"2\",\"P\",\"C\",\"61\"
\"\",\"\",\"approach-retreat\",\"65\",\"1428631\",\"0.0-65.0\",\"\",\"\",\"1-4\",\"4476\",\"38\",\"0\",\"Training\",\"Stims/Figures/57-J-0-1.bmp\",\"ma:la:na\",\"Down\",\"40\",\"4\",\"14\",\"2\",\"S\",\"C\",\"62\"
\"\",\"\",\"approach-retreat\",\"66\",\"1436030\",\"0.0-66.0\",\"\",\"\",\"1-4\",\"5892\",\"37\",\"0\",\"Training\",\"Stims/Figures/93-J-0-1.bmp\",\"ma:la:na\",\"Right\",\"39\",\"4\",\"15\",\"2\",\"S\",\"C\",\"63\"
\"\",\"\",\"approach-retreat\",\"67\",\"1442352\",\"0.0-67.0\",\"\",\"\",\"1-4\",\"4814\",\"40\",\"1\",\"Training\",\"Stims/Figures/93-C-30-1.bmp\",\"ta:ka:ka\",\"Up\",\"40\",\"4\",\"16\",\"2\",\"P\",\"C\",\"64\"
\"\",\"\",\"approach-retreat\",\"68\",\"1448376\",\"0.0-68.0\",\"\",\"\",\"1-4\",\"4516\",\"38\",\"1\",\"Training\",\"Stims/Figures/57-J-0-1.bmp\",\"ma:la:na\",\"Up\",\"38\",\"5\",\"1\",\"2\",\"S\",\"C\",\"65\"
\"\",\"\",\"approach-retreat\",\"69\",\"1456583\",\"0.0-69.0\",\"\",\"\",\"1-4\",\"6700\",\"37\",\"1\",\"Training\",\"Stims/Figures/93-C-30-1.bmp\",\"ta:ka:ka\",\"Right\",\"37\",\"5\",\"2\",\"2\",\"P\",\"C\",\"66\"
\"\",\"\",\"approach-retreat\",\"70\",\"1463399\",\"0.0-70.0\",\"\",\"\",\"1-4\",\"5309\",\"39\",\"1\",\"Training\",\"Stims/Figures/111-J-10-3.bmp\",\"ma:la:na\",\"Right\",\"39\",\"5\",\"3\",\"2\",\"S\",\"C\",\"67\"
\"\",\"\",\"approach-retreat\",\"71\",\"1469830\",\"0.0-71.0\",\"\",\"\",\"1-4\",\"4925\",\"37\",\"1\",\"Training\",\"Stims/Figures/57-C-30-1.bmp\",\"ta:ka:ka\",\"Right\",\"37\",\"5\",\"4\",\"2\",\"P\",\"C\",\"68\"
\"\",\"\",\"approach-retreat\",\"72\",\"1475971\",\"0.0-72.0\",\"\",\"\",\"1-4\",\"4631\",\"39\",\"1\",\"Training\",\"Stims/Figures/100-C-30-3.bmp\",\"ta:ka:ka\",\"Left\",\"39\",\"5\",\"5\",\"2\",\"P\",\"C\",\"69\"
\"\",\"\",\"approach-retreat\",\"73\",\"1482663\",\"0.0-73.0\",\"\",\"\",\"1-4\",\"5185\",\"37\",\"0\",\"Training\",\"Stims/Figures/19-C-20-4.bmp\",\"ta:ka:ka\",\"Left\",\"39\",\"5\",\"6\",\"2\",\"P\",\"C\",\"70\"
\"\",\"\",\"approach-retreat\",\"74\",\"1490400\",\"0.0-74.0\",\"\",\"\",\"1-4\",\"6231\",\"40\",\"0\",\"Training\",\"Stims/Figures/93-J-0-1.bmp\",\"ma:la:na\",\"Up\",\"38\",\"5\",\"7\",\"2\",\"S\",\"C\",\"71\"
\"\",\"\",\"approach-retreat\",\"75\",\"1496520\",\"0.0-75.0\",\"\",\"\",\"1-4\",\"4613\",\"37\",\"1\",\"Training\",\"Stims/Figures/118-J-0-2.bmp\",\"ma:la:na\",\"Left\",\"37\",\"5\",\"8\",\"2\",\"S\",\"C\",\"72\"
\"\",\"\",\"approach-retreat\",\"76\",\"1504080\",\"0.0-76.0\",\"\",\"\",\"1-4\",\"6051\",\"40\",\"1\",\"Training\",\"Stims/Figures/100-J-10-3.bmp\",\"ma:la:na\",\"Down\",\"40\",\"5\",\"9\",\"2\",\"S\",\"C\",\"73\"
\"\",\"\",\"approach-retreat\",\"77\",\"1510855\",\"0.0-77.0\",\"\",\"\",\"1-4\",\"5268\",\"40\",\"1\",\"Training\",\"Stims/Figures/74-J-10-4.bmp\",\"ma:la:na\",\"Down\",\"40\",\"5\",\"10\",\"2\",\"S\",\"C\",\"74\"
\"\",\"\",\"approach-retreat\",\"78\",\"1516576\",\"0.0-78.0\",\"\",\"\",\"1-4\",\"4214\",\"40\",\"1\",\"Training\",\"Stims/Figures/111-C-30-3.bmp\",\"ta:ka:ka\",\"Up\",\"40\",\"5\",\"11\",\"2\",\"P\",\"C\",\"75\"
\"\",\"\",\"approach-retreat\",\"79\",\"1526073\",\"0.0-79.0\",\"\",\"\",\"1-4\",\"7990\",\"38\",\"0\",\"Training\",\"Stims/Figures/118-C-20-2.bmp\",\"ta:ka:ka\",\"Up\",\"40\",\"5\",\"12\",\"2\",\"P\",\"C\",\"76\"
\"\",\"\",\"approach-retreat\",\"80\",\"1532414\",\"0.0-80.0\",\"\",\"\",\"1-4\",\"4835\",\"40\",\"1\",\"Training\",\"Stims/Figures/85-J-0-2.bmp\",\"ma:la:na\",\"Down\",\"40\",\"5\",\"13\",\"2\",\"S\",\"C\",\"77\"
\"\",\"\",\"approach-retreat\",\"81\",\"1538344\",\"0.0-81.0\",\"\",\"\",\"1-4\",\"4423\",\"37\",\"1\",\"Training\",\"Stims/Figures/19-J-10-4.bmp\",\"ma:la:na\",\"Left\",\"37\",\"5\",\"14\",\"2\",\"S\",\"C\",\"78\"
\"\",\"\",\"approach-retreat\",\"82\",\"1544575\",\"0.0-82.0\",\"\",\"\",\"1-4\",\"4724\",\"37\",\"1\",\"Training\",\"Stims/Figures/85-C-20-2.bmp\",\"ta:ka:ka\",\"Right\",\"37\",\"5\",\"15\",\"2\",\"P\",\"C\",\"79\"
\"\",\"\",\"approach-retreat\",\"83\",\"1553831\",\"0.0-83.0\",\"\",\"\",\"1-4\",\"7749\",\"38\",\"1\",\"Training\",\"Stims/Figures/74-C-20-4.bmp\",\"ta:ka:ka\",\"Down\",\"38\",\"5\",\"16\",\"2\",\"P\",\"C\",\"80\"
\"\",\"\",\"approach-retreat\",\"84\",\"1561248\",\"0.0-84.0\",\"\",\"\",\"1-4\",\"5910\",\"40\",\"1\",\"Training\",\"Stims/Figures/74-C-20-4.bmp\",\"ta:ka:ka\",\"Up\",\"40\",\"6\",\"1\",\"2\",\"P\",\"C\",\"81\"
\"\",\"\",\"approach-retreat\",\"85\",\"1567879\",\"0.0-85.0\",\"\",\"\",\"1-4\",\"5124\",\"39\",\"1\",\"Training\",\"Stims/Figures/118-C-20-2.bmp\",\"ta:ka:ka\",\"Left\",\"39\",\"6\",\"2\",\"2\",\"P\",\"C\",\"82\"
\"\",\"\",\"approach-retreat\",\"86\",\"1574600\",\"0.0-86.0\",\"\",\"\",\"1-4\",\"5211\",\"39\",\"1\",\"Training\",\"Stims/Figures/57-J-0-1.bmp\",\"ma:la:na\",\"Right\",\"39\",\"6\",\"3\",\"2\",\"S\",\"C\",\"83\"
\"\",\"\",\"approach-retreat\",\"87\",\"1581871\",\"0.0-87.0\",\"\",\"\",\"1-4\",\"5763\",\"38\",\"1\",\"Training\",\"Stims/Figures/100-J-10-3.bmp\",\"ma:la:na\",\"Up\",\"38\",\"6\",\"4\",\"2\",\"S\",\"C\",\"84\"
\"\",\"\",\"approach-retreat\",\"88\",\"1588567\",\"0.0-88.0\",\"\",\"\",\"1-4\",\"5188\",\"37\",\"0\",\"Training\",\"Stims/Figures/111-J-10-3.bmp\",\"ma:la:na\",\"Right\",\"39\",\"6\",\"5\",\"2\",\"S\",\"C\",\"85\"
\"\",\"\",\"approach-retreat\",\"89\",\"1595006\",\"0.0-89.0\",\"\",\"\",\"1-4\",\"4933\",\"40\",\"0\",\"Training\",\"Stims/Figures/19-J-10-4.bmp\",\"ma:la:na\",\"Up\",\"38\",\"6\",\"6\",\"2\",\"S\",\"C\",\"86\"
\"\",\"\",\"approach-retreat\",\"90\",\"1601298\",\"0.0-90.0\",\"\",\"\",\"1-4\",\"4783\",\"37\",\"1\",\"Training\",\"Stims/Figures/19-C-20-4.bmp\",\"ta:ka:ka\",\"Right\",\"37\",\"6\",\"7\",\"2\",\"P\",\"C\",\"87\"
\"\",\"\",\"approach-retreat\",\"91\",\"1609146\",\"0.0-91.0\",\"\",\"\",\"1-4\",\"6341\",\"37\",\"1\",\"Training\",\"Stims/Figures/85-J-0-2.bmp\",\"ma:la:na\",\"Left\",\"37\",\"6\",\"8\",\"2\",\"S\",\"C\",\"88\"
\"\",\"\",\"approach-retreat\",\"92\",\"1615865\",\"0.0-92.0\",\"\",\"\",\"1-4\",\"5212\",\"39\",\"0\",\"Training\",\"Stims/Figures/74-J-10-4.bmp\",\"ma:la:na\",\"Left\",\"37\",\"6\",\"9\",\"2\",\"S\",\"C\",\"89\"
\"\",\"\",\"approach-retreat\",\"93\",\"1621825\",\"0.0-93.0\",\"\",\"\",\"1-4\",\"4454\",\"40\",\"1\",\"Training\",\"Stims/Figures/100-C-30-3.bmp\",\"ta:ka:ka\",\"Up\",\"40\",\"6\",\"10\",\"2\",\"P\",\"C\",\"90\"
\"\",\"\",\"approach-retreat\",\"94\",\"1635441\",\"0.0-94.0\",\"\",\"\",\"1-4\",\"12108\",\"37\",\"1\",\"Training\",\"Stims/Figures/57-C-30-1.bmp\",\"ta:ka:ka\",\"Right\",\"37\",\"6\",\"11\",\"2\",\"P\",\"C\",\"91\"
\"\",\"\",\"approach-retreat\",\"95\",\"1642449\",\"0.0-95.0\",\"\",\"\",\"1-4\",\"5499\",\"37\",\"1\",\"Training\",\"Stims/Figures/118-J-0-2.bmp\",\"ma:la:na\",\"Left\",\"37\",\"6\",\"12\",\"2\",\"S\",\"C\",\"92\"
\"\",\"\",\"approach-retreat\",\"96\",\"1648961\",\"0.0-96.0\",\"\",\"\",\"1-4\",\"5002\",\"38\",\"1\",\"Training\",\"Stims/Figures/85-C-20-2.bmp\",\"ta:ka:ka\",\"Down\",\"38\",\"6\",\"13\",\"2\",\"P\",\"C\",\"93\"
\"\",\"\",\"approach-retreat\",\"97\",\"1655345\",\"0.0-97.0\",\"\",\"\",\"1-4\",\"4875\",\"40\",\"1\",\"Training\",\"Stims/Figures/93-J-0-1.bmp\",\"ma:la:na\",\"Down\",\"40\",\"6\",\"14\",\"2\",\"S\",\"C\",\"94\"
\"\",\"\",\"approach-retreat\",\"98\",\"1662798\",\"0.0-98.0\",\"\",\"\",\"1-4\",\"5943\",\"38\",\"1\",\"Training\",\"Stims/Figures/93-C-30-1.bmp\",\"ta:ka:ka\",\"Down\",\"38\",\"6\",\"15\",\"2\",\"P\",\"C\",\"95\"
\"\",\"\",\"approach-retreat\",\"99\",\"1668549\",\"0.0-99.0\",\"\",\"\",\"1-4\",\"4241\",\"38\",\"1\",\"Training\",\"Stims/Figures/111-C-30-3.bmp\",\"ta:ka:ka\",\"Down\",\"38\",\"6\",\"16\",\"2\",\"P\",\"C\",\"96\"
\"\",\"\",\"approach-retreat\",\"100\",\"1675212\",\"0.0-100.0\",\"\",\"\",\"1-4\",\"5156\",\"37\",\"1\",\"Training\",\"Stims/Figures/118-J-0-2.bmp\",\"ma:la:na\",\"Left\",\"37\",\"7\",\"1\",\"2\",\"S\",\"C\",\"97\"
\"\",\"\",\"approach-retreat\",\"101\",\"1681821\",\"0.0-101.0\",\"\",\"\",\"1-4\",\"5101\",\"39\",\"1\",\"Training\",\"Stims/Figures/93-J-0-1.bmp\",\"ma:la:na\",\"Right\",\"39\",\"7\",\"2\",\"2\",\"S\",\"C\",\"98\"
\"\",\"\",\"approach-retreat\",\"102\",\"1687917\",\"0.0-102.0\",\"\",\"\",\"1-4\",\"4587\",\"37\",\"1\",\"Training\",\"Stims/Figures/57-C-30-1.bmp\",\"ta:ka:ka\",\"Right\",\"37\",\"7\",\"3\",\"2\",\"P\",\"C\",\"99\"
\"\",\"\",\"approach-retreat\",\"103\",\"1695189\",\"0.0-103.0\",\"\",\"\",\"1-4\",\"5764\",\"40\",\"1\",\"Training\",\"Stims/Figures/118-C-20-2.bmp\",\"ta:ka:ka\",\"Up\",\"40\",\"7\",\"4\",\"2\",\"P\",\"C\",\"100\"
\"\",\"\",\"approach-retreat\",\"104\",\"1702924\",\"0.0-104.0\",\"\",\"\",\"1-4\",\"6229\",\"39\",\"1\",\"Training\",\"Stims/Figures/85-J-0-2.bmp\",\"ma:la:na\",\"Right\",\"39\",\"7\",\"5\",\"2\",\"S\",\"C\",\"101\"
\"\",\"\",\"approach-retreat\",\"105\",\"1712539\",\"0.0-105.0\",\"\",\"\",\"1-4\",\"8108\",\"38\",\"1\",\"Training\",\"Stims/Figures/19-J-10-4.bmp\",\"ma:la:na\",\"Up\",\"38\",\"7\",\"6\",\"2\",\"S\",\"C\",\"102\"
\"\",\"\",\"approach-retreat\",\"106\",\"1719029\",\"0.0-106.0\",\"\",\"\",\"1-4\",\"4980\",\"38\",\"1\",\"Training\",\"Stims/Figures/74-J-10-4.bmp\",\"ma:la:na\",\"Up\",\"38\",\"7\",\"7\",\"2\",\"S\",\"C\",\"103\"
\"\",\"\",\"approach-retreat\",\"107\",\"1727813\",\"0.0-107.0\",\"\",\"\",\"1-4\",\"7276\",\"38\",\"1\",\"Training\",\"Stims/Figures/19-C-20-4.bmp\",\"ta:ka:ka\",\"Down\",\"38\",\"7\",\"8\",\"2\",\"P\",\"C\",\"104\"
\"\",\"\",\"approach-retreat\",\"108\",\"1733100\",\"0.0-108.0\",\"\",\"\",\"1-4\",\"3779\",\"38\",\"1\",\"Training\",\"Stims/Figures/111-C-30-3.bmp\",\"ta:ka:ka\",\"Down\",\"38\",\"7\",\"9\",\"2\",\"P\",\"C\",\"105\"
\"\",\"\",\"approach-retreat\",\"109\",\"1739187\",\"0.0-109.0\",\"\",\"\",\"1-4\",\"4580\",\"37\",\"1\",\"Training\",\"Stims/Figures/74-C-20-4.bmp\",\"ta:ka:ka\",\"Right\",\"37\",\"7\",\"10\",\"2\",\"P\",\"C\",\"106\"
\"\",\"\",\"approach-retreat\",\"110\",\"1745051\",\"0.0-110.0\",\"\",\"\",\"1-4\",\"4357\",\"38\",\"0\",\"Training\",\"Stims/Figures/57-J-0-1.bmp\",\"ma:la:na\",\"Down\",\"40\",\"7\",\"11\",\"2\",\"S\",\"C\",\"107\"
\"\",\"\",\"approach-retreat\",\"111\",\"1753578\",\"0.0-111.0\",\"\",\"\",\"1-4\",\"7020\",\"39\",\"1\",\"Training\",\"Stims/Figures/93-C-30-1.bmp\",\"ta:ka:ka\",\"Left\",\"39\",\"7\",\"12\",\"2\",\"P\",\"C\",\"108\"
\"\",\"\",\"approach-retreat\",\"112\",\"1759195\",\"0.0-112.0\",\"\",\"\",\"1-4\",\"4109\",\"40\",\"0\",\"Training\",\"Stims/Figures/100-C-30-3.bmp\",\"ta:ka:ka\",\"Down\",\"38\",\"7\",\"13\",\"2\",\"P\",\"C\",\"109\"
\"\",\"\",\"approach-retreat\",\"113\",\"1764514\",\"0.0-113.0\",\"\",\"\",\"1-4\",\"3811\",\"39\",\"1\",\"Training\",\"Stims/Figures/85-C-20-2.bmp\",\"ta:ka:ka\",\"Left\",\"39\",\"7\",\"14\",\"2\",\"P\",\"C\",\"110\"
\"\",\"\",\"approach-retreat\",\"114\",\"1770108\",\"0.0-114.0\",\"\",\"\",\"1-4\",\"4085\",\"39\",\"0\",\"Training\",\"Stims/Figures/111-J-10-3.bmp\",\"ma:la:na\",\"Left\",\"37\",\"7\",\"15\",\"2\",\"S\",\"C\",\"111\"
\"\",\"\",\"approach-retreat\",\"115\",\"1776298\",\"0.0-115.0\",\"\",\"\",\"1-4\",\"4684\",\"38\",\"1\",\"Training\",\"Stims/Figures/100-J-10-3.bmp\",\"ma:la:na\",\"Up\",\"38\",\"7\",\"16\",\"2\",\"S\",\"C\",\"112\"
\"\",\"\",\"approach-retreat\",\"116\",\"1782082\",\"0.0-116.0\",\"\",\"\",\"1-4\",\"4278\",\"39\",\"1\",\"Training\",\"Stims/Figures/93-C-30-1.bmp\",\"ta:ka:ka\",\"Left\",\"39\",\"8\",\"1\",\"2\",\"P\",\"C\",\"113\"
\"\",\"\",\"approach-retreat\",\"117\",\"1788235\",\"0.0-117.0\",\"\",\"\",\"1-4\",\"4645\",\"40\",\"1\",\"Training\",\"Stims/Figures/74-J-10-4.bmp\",\"ma:la:na\",\"Down\",\"40\",\"8\",\"2\",\"2\",\"S\",\"C\",\"114\"
\"\",\"\",\"approach-retreat\",\"118\",\"1794682\",\"0.0-118.0\",\"\",\"\",\"1-4\",\"4938\",\"38\",\"1\",\"Training\",\"Stims/Figures/111-J-10-3.bmp\",\"ma:la:na\",\"Up\",\"38\",\"8\",\"3\",\"2\",\"S\",\"C\",\"115\"
\"\",\"\",\"approach-retreat\",\"119\",\"1800482\",\"0.0-119.0\",\"\",\"\",\"1-4\",\"4293\",\"37\",\"1\",\"Training\",\"Stims/Figures/111-C-30-3.bmp\",\"ta:ka:ka\",\"Right\",\"37\",\"8\",\"4\",\"2\",\"P\",\"C\",\"116\"
\"\",\"\",\"approach-retreat\",\"120\",\"1806491\",\"0.0-120.0\",\"\",\"\",\"1-4\",\"4501\",\"40\",\"1\",\"Training\",\"Stims/Figures/85-J-0-2.bmp\",\"ma:la:na\",\"Down\",\"40\",\"8\",\"5\",\"2\",\"S\",\"C\",\"117\"
\"\",\"\",\"approach-retreat\",\"121\",\"1813209\",\"0.0-121.0\",\"\",\"\",\"1-4\",\"5212\",\"37\",\"1\",\"Training\",\"Stims/Figures/118-C-20-2.bmp\",\"ta:ka:ka\",\"Right\",\"37\",\"8\",\"6\",\"2\",\"P\",\"C\",\"118\"
\"\",\"\",\"approach-retreat\",\"122\",\"1820363\",\"0.0-122.0\",\"\",\"\",\"1-4\",\"5646\",\"40\",\"1\",\"Training\",\"Stims/Figures/19-C-20-4.bmp\",\"ta:ka:ka\",\"Up\",\"40\",\"8\",\"7\",\"2\",\"P\",\"C\",\"119\"
\"\",\"\",\"approach-retreat\",\"123\",\"1826721\",\"0.0-123.0\",\"\",\"\",\"1-4\",\"4850\",\"39\",\"0\",\"Training\",\"Stims/Figures/19-J-10-4.bmp\",\"ma:la:na\",\"Left\",\"37\",\"8\",\"8\",\"2\",\"S\",\"C\",\"120\"
\"\",\"\",\"approach-retreat\",\"124\",\"1832554\",\"0.0-124.0\",\"\",\"\",\"1-4\",\"4325\",\"40\",\"1\",\"Training\",\"Stims/Figures/93-J-0-1.bmp\",\"ma:la:na\",\"Down\",\"40\",\"8\",\"9\",\"2\",\"S\",\"C\",\"121\"
\"\",\"\",\"approach-retreat\",\"125\",\"1838194\",\"0.0-125.0\",\"\",\"\",\"1-4\",\"4132\",\"37\",\"1\",\"Training\",\"Stims/Figures/100-C-30-3.bmp\",\"ta:ka:ka\",\"Right\",\"37\",\"8\",\"10\",\"2\",\"P\",\"C\",\"122\"
\"\",\"\",\"approach-retreat\",\"126\",\"1843705\",\"0.0-126.0\",\"\",\"\",\"1-4\",\"4004\",\"39\",\"0\",\"Training\",\"Stims/Figures/57-J-0-1.bmp\",\"ma:la:na\",\"Left\",\"37\",\"8\",\"11\",\"2\",\"S\",\"C\",\"123\"
\"\",\"\",\"approach-retreat\",\"127\",\"1850484\",\"0.0-127.0\",\"\",\"\",\"1-4\",\"5272\",\"37\",\"0\",\"Training\",\"Stims/Figures/74-C-20-4.bmp\",\"ta:ka:ka\",\"Left\",\"39\",\"8\",\"12\",\"2\",\"P\",\"C\",\"124\"
\"\",\"\",\"approach-retreat\",\"128\",\"1855964\",\"0.0-128.0\",\"\",\"\",\"1-4\",\"3973\",\"40\",\"0\",\"Training\",\"Stims/Figures/57-C-30-1.bmp\",\"ta:ka:ka\",\"Down\",\"38\",\"8\",\"13\",\"2\",\"P\",\"C\",\"125\"
\"\",\"\",\"approach-retreat\",\"129\",\"1861652\",\"0.0-129.0\",\"\",\"\",\"1-4\",\"4181\",\"37\",\"0\",\"Training\",\"Stims/Figures/118-J-0-2.bmp\",\"ma:la:na\",\"Right\",\"39\",\"8\",\"14\",\"2\",\"S\",\"C\",\"126\"
\"\",\"\",\"approach-retreat\",\"130\",\"1867187\",\"0.0-130.0\",\"\",\"\",\"1-4\",\"4028\",\"38\",\"0\",\"Training\",\"Stims/Figures/85-C-20-2.bmp\",\"ta:ka:ka\",\"Up\",\"40\",\"8\",\"15\",\"2\",\"P\",\"C\",\"127\"
\"\",\"\",\"approach-retreat\",\"131\",\"1873301\",\"0.0-131.0\",\"\",\"\",\"1-4\",\"4603\",\"38\",\"1\",\"Training\",\"Stims/Figures/100-J-10-3.bmp\",\"ma:la:na\",\"Up\",\"38\",\"8\",\"16\",\"2\",\"S\",\"C\",\"128\"
\"\",\"\",\"approach-retreat\",\"132\",\"1880459\",\"0.0-132.0\",\"\",\"\",\"1-4\",\"5650\",\"39\",\"1\",\"Training\",\"Stims/Figures/93-C-30-1.bmp\",\"ta:ka:ka\",\"Left\",\"39\",\"9\",\"1\",\"2\",\"P\",\"C\",\"129\"
\"\",\"\",\"approach-retreat\",\"133\",\"1885484\",\"0.0-133.0\",\"\",\"\",\"1-4\",\"3517\",\"40\",\"1\",\"Training\",\"Stims/Figures/111-C-30-3.bmp\",\"ta:ka:ka\",\"Up\",\"40\",\"9\",\"2\",\"2\",\"P\",\"C\",\"130\"
\"\",\"\",\"approach-retreat\",\"134\",\"1891732\",\"0.0-134.0\",\"\",\"\",\"1-4\",\"4740\",\"37\",\"1\",\"Training\",\"Stims/Figures/19-C-20-4.bmp\",\"ta:ka:ka\",\"Right\",\"37\",\"9\",\"3\",\"2\",\"P\",\"C\",\"131\"
\"\",\"\",\"approach-retreat\",\"135\",\"1897307\",\"0.0-135.0\",\"\",\"\",\"1-4\",\"4066\",\"38\",\"1\",\"Training\",\"Stims/Figures/100-J-10-3.bmp\",\"ma:la:na\",\"Up\",\"38\",\"9\",\"4\",\"2\",\"S\",\"C\",\"132\"
\"\",\"\",\"approach-retreat\",\"136\",\"1905236\",\"0.0-136.0\",\"\",\"\",\"1-4\",\"6422\",\"37\",\"0\",\"Training\",\"Stims/Figures/74-C-20-4.bmp\",\"ta:ka:ka\",\"Left\",\"39\",\"9\",\"5\",\"2\",\"P\",\"C\",\"133\"
\"\",\"\",\"approach-retreat\",\"137\",\"1911203\",\"0.0-137.0\",\"\",\"\",\"1-4\",\"4461\",\"38\",\"0\",\"Training\",\"Stims/Figures/111-J-10-3.bmp\",\"ma:la:na\",\"Down\",\"40\",\"9\",\"6\",\"2\",\"S\",\"C\",\"134\"
\"\",\"\",\"approach-retreat\",\"138\",\"1916316\",\"0.0-138.0\",\"\",\"\",\"1-4\",\"3606\",\"39\",\"0\",\"Training\",\"Stims/Figures/100-C-30-3.bmp\",\"ta:ka:ka\",\"Right\",\"37\",\"9\",\"7\",\"2\",\"P\",\"C\",\"135\"
\"\",\"\",\"approach-retreat\",\"139\",\"1922115\",\"0.0-139.0\",\"\",\"\",\"1-4\",\"4290\",\"39\",\"1\",\"Training\",\"Stims/Figures/85-J-0-2.bmp\",\"ma:la:na\",\"Right\",\"39\",\"9\",\"8\",\"2\",\"S\",\"C\",\"136\"
\"\",\"\",\"approach-retreat\",\"140\",\"1928875\",\"0.0-140.0\",\"\",\"\",\"1-4\",\"5252\",\"39\",\"0\",\"Training\",\"Stims/Figures/19-J-10-4.bmp\",\"ma:la:na\",\"Left\",\"37\",\"9\",\"9\",\"2\",\"S\",\"C\",\"137\"
\"\",\"\",\"approach-retreat\",\"141\",\"1934291\",\"0.0-141.0\",\"\",\"\",\"1-4\",\"3908\",\"39\",\"1\",\"Training\",\"Stims/Figures/74-J-10-4.bmp\",\"ma:la:na\",\"Right\",\"39\",\"9\",\"10\",\"2\",\"S\",\"C\",\"138\"
\"\",\"\",\"approach-retreat\",\"142\",\"1942218\",\"0.0-142.0\",\"\",\"\",\"1-4\",\"6419\",\"40\",\"0\",\"Training\",\"Stims/Figures/118-C-20-2.bmp\",\"ta:ka:ka\",\"Down\",\"38\",\"9\",\"11\",\"2\",\"P\",\"C\",\"139\"
\"\",\"\",\"approach-retreat\",\"143\",\"1948170\",\"0.0-143.0\",\"\",\"\",\"1-4\",\"4444\",\"38\",\"0\",\"Training\",\"Stims/Figures/85-C-20-2.bmp\",\"ta:ka:ka\",\"Up\",\"40\",\"9\",\"12\",\"2\",\"P\",\"C\",\"140\"
\"\",\"\",\"approach-retreat\",\"144\",\"1957675\",\"0.0-144.0\",\"\",\"\",\"1-4\",\"7996\",\"38\",\"0\",\"Training\",\"Stims/Figures/93-J-0-1.bmp\",\"ma:la:na\",\"Down\",\"40\",\"9\",\"13\",\"2\",\"S\",\"C\",\"141\"
\"\",\"\",\"approach-retreat\",\"145\",\"1963219\",\"0.0-145.0\",\"\",\"\",\"1-4\",\"4035\",\"38\",\"1\",\"Training\",\"Stims/Figures/57-J-0-1.bmp\",\"ma:la:na\",\"Up\",\"38\",\"9\",\"14\",\"2\",\"S\",\"C\",\"142\"
\"\",\"\",\"approach-retreat\",\"146\",\"1973828\",\"0.0-146.0\",\"\",\"\",\"1-4\",\"9101\",\"39\",\"0\",\"Training\",\"Stims/Figures/118-J-0-2.bmp\",\"ma:la:na\",\"Left\",\"37\",\"9\",\"15\",\"2\",\"S\",\"C\",\"143\"
\"\",\"\",\"approach-retreat\",\"147\",\"1979390\",\"0.0-147.0\",\"\",\"\",\"1-4\",\"4055\",\"40\",\"0\",\"Training\",\"Stims/Figures/57-C-30-1.bmp\",\"ta:ka:ka\",\"Down\",\"38\",\"9\",\"16\",\"2\",\"P\",\"C\",\"144\"
\"\",\"\",\"instructions\",\"148\",\"1983229\",\"0.0-148.0\",\"\",\"\",\"1-4\",\"7894\",\"40\",\"0\",\"Training\",\"Stims/Figures/57-C-30-1.bmp\",\"ta:ka:ka\",\"Down\",\"38\",\"9\",\"16\",\"2\",\"P\",\"C\",\"\"
\"\",\"\",\"approach-retreat\",\"149\",\"1993204\",\"0.0-149.0\",\"\",\"\",\"1-4\",\"8470\",\"40\",\"0\",\"Testing\",\"Stims/Figures/85-J-0-2.bmp\",\"ma:la:na\",\"Up\",\"38\",\"1\",\"1\",\"2\",\"S\",\"C\",\"1\"
\"\",\"\",\"approach-retreat\",\"150\",\"1999556\",\"0.0-150.0\",\"\",\"\",\"1-4\",\"4846\",\"37\",\"0\",\"Testing\",\"Stims/Figures/111-J-10-3.bmp\",\"ma:la:na\",\"Right\",\"39\",\"1\",\"2\",\"2\",\"S\",\"C\",\"2\"
\"\",\"\",\"approach-retreat\",\"151\",\"2005972\",\"0.0-151.0\",\"\",\"\",\"1-4\",\"4910\",\"38\",\"1\",\"Testing\",\"Stims/Figures/74-C-20-4.bmp\",\"ta:ka:ka\",\"Down\",\"38\",\"1\",\"3\",\"2\",\"P\",\"C\",\"3\"
\"\",\"\",\"approach-retreat\",\"152\",\"2013331\",\"0.0-152.0\",\"\",\"\",\"1-4\",\"5853\",\"39\",\"0\",\"Testing\",\"Stims/Figures/118-C-20-2.bmp\",\"ta:ka:ka\",\"Right\",\"37\",\"1\",\"4\",\"2\",\"P\",\"C\",\"4\"
\"\",\"\",\"approach-retreat\",\"153\",\"2020117\",\"0.0-153.0\",\"\",\"\",\"1-4\",\"5279\",\"37\",\"0\",\"Testing\",\"Stims/Figures/93-C-30-1.bmp\",\"ta:ka:ka\",\"Left\",\"39\",\"1\",\"5\",\"2\",\"P\",\"C\",\"5\"
\"\",\"\",\"approach-retreat\",\"154\",\"2027131\",\"0.0-154.0\",\"\",\"\",\"1-4\",\"5510\",\"40\",\"0\",\"Testing\",\"Stims/Figures/94-C-20-2.bmp\",\"ta:ka:ka\",\"Down\",\"38\",\"1\",\"6\",\"2\",\"P\",\"C\",\"6\"
\"\",\"\",\"approach-retreat\",\"155\",\"2033734\",\"0.0-155.0\",\"\",\"\",\"1-4\",\"5095\",\"40\",\"1\",\"Testing\",\"Stims/Figures/19-C-20-4.bmp\",\"ta:ka:ka\",\"Up\",\"40\",\"1\",\"7\",\"2\",\"P\",\"C\",\"7\"
\"\",\"\",\"approach-retreat\",\"156\",\"2039775\",\"0.0-156.0\",\"\",\"\",\"1-4\",\"4534\",\"40\",\"0\",\"Testing\",\"Stims/Figures/74-J-10-4.bmp\",\"ma:la:na\",\"Up\",\"38\",\"1\",\"8\",\"2\",\"S\",\"C\",\"8\"
\"\",\"\",\"approach-retreat\",\"157\",\"2046333\",\"0.0-157.0\",\"\",\"\",\"1-4\",\"5053\",\"40\",\"0\",\"Testing\",\"Stims/Figures/128-C-30-3.bmp\",\"ta:ka:ka\",\"Down\",\"38\",\"1\",\"9\",\"2\",\"P\",\"C\",\"9\"
\"\",\"\",\"approach-retreat\",\"158\",\"2053317\",\"0.0-158.0\",\"\",\"\",\"1-4\",\"5478\",\"39\",\"0\",\"Testing\",\"Stims/Figures/19-J-10-4.bmp\",\"ma:la:na\",\"Left\",\"37\",\"1\",\"10\",\"2\",\"S\",\"C\",\"10\"
\"\",\"\",\"approach-retreat\",\"159\",\"2059622\",\"0.0-159.0\",\"\",\"\",\"1-4\",\"4799\",\"40\",\"0\",\"Testing\",\"Stims/Figures/85-C-20-2.bmp\",\"ta:ka:ka\",\"Down\",\"38\",\"1\",\"11\",\"2\",\"P\",\"C\",\"11\"
\"\",\"\",\"approach-retreat\",\"160\",\"2065654\",\"0.0-160.0\",\"\",\"\",\"1-4\",\"4525\",\"37\",\"1\",\"Testing\",\"Stims/Figures/111-C-30-3.bmp\",\"ta:ka:ka\",\"Right\",\"37\",\"1\",\"12\",\"2\",\"P\",\"C\",\"12\"
\"\",\"\",\"approach-retreat\",\"161\",\"2072406\",\"0.0-161.0\",\"\",\"\",\"1-4\",\"5245\",\"38\",\"1\",\"Testing\",\"Stims/Figures/7-J-10-4.bmp\",\"ma:la:na\",\"Up\",\"38\",\"1\",\"13\",\"2\",\"S\",\"C\",\"13\"
\"\",\"\",\"approach-retreat\",\"162\",\"2079085\",\"0.0-162.0\",\"\",\"\",\"1-4\",\"5173\",\"38\",\"1\",\"Testing\",\"Stims/Figures/7-C-20-4.bmp\",\"ta:ka:ka\",\"Down\",\"38\",\"1\",\"14\",\"2\",\"P\",\"C\",\"14\"
\"\",\"\",\"approach-retreat\",\"163\",\"2085332\",\"0.0-163.0\",\"\",\"\",\"1-4\",\"4741\",\"38\",\"0\",\"Testing\",\"Stims/Figures/57-J-0-1.bmp\",\"ma:la:na\",\"Down\",\"40\",\"1\",\"15\",\"2\",\"S\",\"C\",\"15\"
\"\",\"\",\"approach-retreat\",\"164\",\"2092381\",\"0.0-164.0\",\"\",\"\",\"1-4\",\"5543\",\"37\",\"1\",\"Testing\",\"Stims/Figures/100-J-10-3.bmp\",\"ma:la:na\",\"Left\",\"37\",\"1\",\"16\",\"2\",\"S\",\"C\",\"16\"
\"\",\"\",\"approach-retreat\",\"165\",\"2098517\",\"0.0-165.0\",\"\",\"\",\"1-4\",\"4629\",\"37\",\"1\",\"Testing\",\"Stims/Figures/93-J-0-1.bmp\",\"ma:la:na\",\"Left\",\"37\",\"1\",\"17\",\"2\",\"S\",\"C\",\"17\"
\"\",\"\",\"approach-retreat\",\"166\",\"2104652\",\"0.0-166.0\",\"\",\"\",\"1-4\",\"4629\",\"40\",\"0\",\"Testing\",\"Stims/Figures/118-J-0-2.bmp\",\"ma:la:na\",\"Up\",\"38\",\"1\",\"18\",\"2\",\"S\",\"C\",\"18\"
\"\",\"\",\"approach-retreat\",\"167\",\"2110396\",\"0.0-167.0\",\"\",\"\",\"1-4\",\"4237\",\"40\",\"1\",\"Testing\",\"Stims/Figures/57-C-30-1.bmp\",\"ta:ka:ka\",\"Up\",\"40\",\"1\",\"19\",\"2\",\"P\",\"C\",\"19\"
\"\",\"\",\"approach-retreat\",\"168\",\"2116277\",\"0.0-168.0\",\"\",\"\",\"1-4\",\"4375\",\"37\",\"1\",\"Testing\",\"Stims/Figures/100-C-30-3.bmp\",\"ta:ka:ka\",\"Right\",\"37\",\"1\",\"20\",\"2\",\"P\",\"C\",\"20\"
\"\",\"\",\"approach-retreat\",\"169\",\"2123412\",\"0.0-169.0\",\"\",\"\",\"1-4\",\"5630\",\"39\",\"1\",\"Testing\",\"Stims/Figures/27-J-0-1.bmp\",\"ma:la:na\",\"Right\",\"39\",\"1\",\"21\",\"2\",\"S\",\"C\",\"21\"
\"\",\"\",\"approach-retreat\",\"170\",\"2129412\",\"0.0-170.0\",\"\",\"\",\"1-4\",\"4495\",\"39\",\"0\",\"Testing\",\"Stims/Figures/128-J-10-3.bmp\",\"ma:la:na\",\"Left\",\"37\",\"1\",\"22\",\"2\",\"S\",\"C\",\"22\"
\"\",\"\",\"approach-retreat\",\"171\",\"2136260\",\"0.0-171.0\",\"\",\"\",\"1-4\",\"5342\",\"39\",\"0\",\"Testing\",\"Stims/Figures/94-J-0-2.bmp\",\"ma:la:na\",\"Left\",\"37\",\"1\",\"23\",\"2\",\"S\",\"C\",\"23\"
\"\",\"\",\"approach-retreat\",\"172\",\"2143963\",\"0.0-172.0\",\"\",\"\",\"1-4\",\"6198\",\"39\",\"0\",\"Testing\",\"Stims/Figures/27-C-30-1.bmp\",\"ta:ka:ka\",\"Right\",\"37\",\"1\",\"24\",\"2\",\"P\",\"C\",\"24\"
\"\",\"\",\"approach-retreat\",\"173\",\"2149940\",\"0.0-173.0\",\"\",\"\",\"1-4\",\"4470\",\"40\",\"0\",\"Testing\",\"Stims/Figures/94-J-0-2.bmp\",\"ma:la:na\",\"Up\",\"38\",\"2\",\"1\",\"2\",\"S\",\"C\",\"25\"
\"\",\"\",\"approach-retreat\",\"174\",\"2155908\",\"0.0-174.0\",\"\",\"\",\"1-4\",\"4461\",\"39\",\"1\",\"Testing\",\"Stims/Figures/128-C-30-3.bmp\",\"ta:ka:ka\",\"Left\",\"39\",\"2\",\"2\",\"2\",\"P\",\"C\",\"26\"
\"\",\"\",\"approach-retreat\",\"175\",\"2161609\",\"0.0-175.0\",\"\",\"\",\"1-4\",\"4195\",\"39\",\"1\",\"Testing\",\"Stims/Figures/118-C-20-2.bmp\",\"ta:ka:ka\",\"Left\",\"39\",\"2\",\"3\",\"2\",\"P\",\"C\",\"27\"
\"\",\"\",\"approach-retreat\",\"176\",\"2167560\",\"0.0-176.0\",\"\",\"\",\"1-4\",\"4445\",\"39\",\"1\",\"Testing\",\"Stims/Figures/128-J-10-3.bmp\",\"ma:la:na\",\"Right\",\"39\",\"2\",\"4\",\"2\",\"S\",\"C\",\"28\"
\"\",\"\",\"approach-retreat\",\"177\",\"2173264\",\"0.0-177.0\",\"\",\"\",\"1-4\",\"4197\",\"37\",\"0\",\"Testing\",\"Stims/Figures/93-C-30-1.bmp\",\"ta:ka:ka\",\"Left\",\"39\",\"2\",\"5\",\"2\",\"P\",\"C\",\"29\"
\"\",\"\",\"approach-retreat\",\"178\",\"2179455\",\"0.0-178.0\",\"\",\"\",\"1-4\",\"4685\",\"37\",\"1\",\"Testing\",\"Stims/Figures/74-C-20-4.bmp\",\"ta:ka:ka\",\"Right\",\"37\",\"2\",\"6\",\"2\",\"P\",\"C\",\"30\"
\"\",\"\",\"approach-retreat\",\"179\",\"2186799\",\"0.0-179.0\",\"\",\"\",\"1-4\",\"5838\",\"40\",\"0\",\"Testing\",\"Stims/Figures/94-C-20-2.bmp\",\"ta:ka:ka\",\"Down\",\"38\",\"2\",\"7\",\"2\",\"P\",\"C\",\"31\"
\"\",\"\",\"approach-retreat\",\"180\",\"2192975\",\"0.0-180.0\",\"\",\"\",\"1-4\",\"4670\",\"38\",\"0\",\"Testing\",\"Stims/Figures/74-J-10-4.bmp\",\"ma:la:na\",\"Down\",\"40\",\"2\",\"8\",\"2\",\"S\",\"C\",\"32\"
\"\",\"\",\"approach-retreat\",\"181\",\"2198791\",\"0.0-181.0\",\"\",\"\",\"1-4\",\"4310\",\"37\",\"0\",\"Testing\",\"Stims/Figures/100-J-10-3.bmp\",\"ma:la:na\",\"Right\",\"39\",\"2\",\"9\",\"2\",\"S\",\"C\",\"33\"
\"\",\"\",\"approach-retreat\",\"182\",\"2204975\",\"0.0-182.0\",\"\",\"\",\"1-4\",\"4678\",\"38\",\"0\",\"Testing\",\"Stims/Figures/85-C-20-2.bmp\",\"ta:ka:ka\",\"Up\",\"40\",\"2\",\"10\",\"2\",\"P\",\"C\",\"34\"
\"\",\"\",\"approach-retreat\",\"183\",\"2210896\",\"0.0-183.0\",\"\",\"\",\"1-4\",\"4414\",\"37\",\"1\",\"Testing\",\"Stims/Figures/19-C-20-4.bmp\",\"ta:ka:ka\",\"Right\",\"37\",\"2\",\"11\",\"2\",\"P\",\"C\",\"35\"
\"\",\"\",\"approach-retreat\",\"184\",\"2216568\",\"0.0-184.0\",\"\",\"\",\"1-4\",\"4165\",\"37\",\"1\",\"Testing\",\"Stims/Figures/27-C-30-1.bmp\",\"ta:ka:ka\",\"Right\",\"37\",\"2\",\"12\",\"2\",\"P\",\"C\",\"36\"
\"\",\"\",\"approach-retreat\",\"185\",\"2222405\",\"0.0-185.0\",\"\",\"\",\"1-4\",\"4330\",\"38\",\"0\",\"Testing\",\"Stims/Figures/19-J-10-4.bmp\",\"ma:la:na\",\"Down\",\"40\",\"2\",\"13\",\"2\",\"S\",\"C\",\"37\"
\"\",\"\",\"approach-retreat\",\"186\",\"2228653\",\"0.0-186.0\",\"\",\"\",\"1-4\",\"4741\",\"38\",\"0\",\"Testing\",\"Stims/Figures/7-C-20-4.bmp\",\"ta:ka:ka\",\"Up\",\"40\",\"2\",\"14\",\"2\",\"P\",\"C\",\"38\"
\"\",\"\",\"approach-retreat\",\"187\",\"2236083\",\"0.0-187.0\",\"\",\"\",\"1-4\",\"5924\",\"40\",\"1\",\"Testing\",\"Stims/Figures/85-J-0-2.bmp\",\"ma:la:na\",\"Down\",\"40\",\"2\",\"15\",\"2\",\"S\",\"C\",\"39\"
\"\",\"\",\"approach-retreat\",\"188\",\"2242109\",\"0.0-188.0\",\"\",\"\",\"1-4\",\"4519\",\"39\",\"0\",\"Testing\",\"Stims/Figures/118-J-0-2.bmp\",\"ma:la:na\",\"Left\",\"37\",\"2\",\"16\",\"2\",\"S\",\"C\",\"40\"
\"\",\"\",\"approach-retreat\",\"189\",\"2248164\",\"0.0-189.0\",\"\",\"\",\"1-4\",\"4549\",\"40\",\"0\",\"Testing\",\"Stims/Figures/57-J-0-1.bmp\",\"ma:la:na\",\"Up\",\"38\",\"2\",\"17\",\"2\",\"S\",\"C\",\"41\"
\"\",\"\",\"approach-retreat\",\"190\",\"2254356\",\"0.0-190.0\",\"\",\"\",\"1-4\",\"4685\",\"39\",\"1\",\"Testing\",\"Stims/Figures/93-J-0-1.bmp\",\"ma:la:na\",\"Right\",\"39\",\"2\",\"18\",\"2\",\"S\",\"C\",\"42\"
\"\",\"\",\"approach-retreat\",\"191\",\"2260260\",\"0.0-191.0\",\"\",\"\",\"1-4\",\"4397\",\"38\",\"1\",\"Testing\",\"Stims/Figures/57-C-30-1.bmp\",\"ta:ka:ka\",\"Down\",\"38\",\"2\",\"19\",\"2\",\"P\",\"C\",\"43\"
\"\",\"\",\"approach-retreat\",\"192\",\"2266939\",\"0.0-192.0\",\"\",\"\",\"1-4\",\"5173\",\"39\",\"0\",\"Testing\",\"Stims/Figures/7-J-10-4.bmp\",\"ma:la:na\",\"Left\",\"37\",\"2\",\"20\",\"2\",\"S\",\"C\",\"44\"
\"\",\"\",\"approach-retreat\",\"193\",\"2272612\",\"0.0-193.0\",\"\",\"\",\"1-4\",\"4166\",\"37\",\"1\",\"Testing\",\"Stims/Figures/27-J-0-1.bmp\",\"ma:la:na\",\"Left\",\"37\",\"2\",\"21\",\"2\",\"S\",\"C\",\"45\"
\"\",\"\",\"approach-retreat\",\"194\",\"2278859\",\"0.0-194.0\",\"\",\"\",\"1-4\",\"4749\",\"40\",\"0\",\"Testing\",\"Stims/Figures/100-C-30-3.bmp\",\"ta:ka:ka\",\"Down\",\"38\",\"2\",\"22\",\"2\",\"P\",\"C\",\"46\"
\"\",\"\",\"approach-retreat\",\"195\",\"2285033\",\"0.0-195.0\",\"\",\"\",\"1-4\",\"4669\",\"40\",\"0\",\"Testing\",\"Stims/Figures/111-J-10-3.bmp\",\"ma:la:na\",\"Up\",\"38\",\"2\",\"23\",\"2\",\"S\",\"C\",\"47\"
\"\",\"\",\"approach-retreat\",\"196\",\"2290874\",\"0.0-196.0\",\"\",\"\",\"1-4\",\"4335\",\"40\",\"1\",\"Testing\",\"Stims/Figures/111-C-30-3.bmp\",\"ta:ka:ka\",\"Up\",\"40\",\"2\",\"24\",\"2\",\"P\",\"C\",\"48\"
\"\",\"\",\"approach-retreat\",\"197\",\"2297315\",\"0.0-197.0\",\"\",\"\",\"1-4\",\"4934\",\"40\",\"0\",\"Testing\",\"Stims/Figures/57-J-0-1.bmp\",\"ma:la:na\",\"Up\",\"38\",\"3\",\"1\",\"2\",\"S\",\"C\",\"49\"
\"\",\"\",\"approach-retreat\",\"198\",\"2303434\",\"0.0-198.0\",\"\",\"\",\"1-4\",\"4612\",\"40\",\"1\",\"Testing\",\"Stims/Figures/27-J-0-1.bmp\",\"ma:la:na\",\"Down\",\"40\",\"3\",\"2\",\"2\",\"S\",\"C\",\"50\"
\"\",\"\",\"approach-retreat\",\"199\",\"2310474\",\"0.0-199.0\",\"\",\"\",\"1-4\",\"5533\",\"39\",\"0\",\"Testing\",\"Stims/Figures/128-J-10-3.bmp\",\"ma:la:na\",\"Left\",\"37\",\"3\",\"3\",\"2\",\"S\",\"C\",\"51\"
\"\",\"\",\"approach-retreat\",\"200\",\"2316050\",\"0.0-200.0\",\"\",\"\",\"1-4\",\"4069\",\"40\",\"1\",\"Testing\",\"Stims/Figures/93-C-30-1.bmp\",\"ta:ka:ka\",\"Up\",\"40\",\"3\",\"4\",\"2\",\"P\",\"C\",\"52\"
\"\",\"\",\"approach-retreat\",\"201\",\"2323027\",\"0.0-201.0\",\"\",\"\",\"1-4\",\"5470\",\"39\",\"0\",\"Testing\",\"Stims/Figures/111-C-30-3.bmp\",\"ta:ka:ka\",\"Right\",\"37\",\"3\",\"5\",\"2\",\"P\",\"C\",\"53\"
\"\",\"\",\"approach-retreat\",\"202\",\"2329753\",\"0.0-202.0\",\"\",\"\",\"1-4\",\"5221\",\"37\",\"0\",\"Testing\",\"Stims/Figures/7-C-20-4.bmp\",\"ta:ka:ka\",\"Left\",\"39\",\"3\",\"6\",\"2\",\"P\",\"C\",\"54\"
\"\",\"\",\"approach-retreat\",\"203\",\"2336065\",\"0.0-203.0\",\"\",\"\",\"1-4\",\"4806\",\"37\",\"0\",\"Testing\",\"Stims/Figures/74-C-20-4.bmp\",\"ta:ka:ka\",\"Left\",\"39\",\"3\",\"7\",\"2\",\"P\",\"C\",\"55\"
\"\",\"\",\"approach-retreat\",\"204\",\"2343422\",\"0.0-204.0\",\"\",\"\",\"1-4\",\"5850\",\"37\",\"1\",\"Testing\",\"Stims/Figures/118-C-20-2.bmp\",\"ta:ka:ka\",\"Right\",\"37\",\"3\",\"8\",\"2\",\"P\",\"C\",\"56\"
\"\",\"\",\"approach-retreat\",\"205\",\"2349974\",\"0.0-205.0\",\"\",\"\",\"1-4\",\"5046\",\"38\",\"0\",\"Testing\",\"Stims/Figures/100-J-10-3.bmp\",\"ma:la:na\",\"Down\",\"40\",\"3\",\"9\",\"2\",\"S\",\"C\",\"57\"
\"\",\"\",\"approach-retreat\",\"206\",\"2355885\",\"0.0-206.0\",\"\",\"\",\"1-4\",\"4405\",\"40\",\"1\",\"Testing\",\"Stims/Figures/7-J-10-4.bmp\",\"ma:la:na\",\"Down\",\"40\",\"3\",\"10\",\"2\",\"S\",\"C\",\"58\"
\"\",\"\",\"approach-retreat\",\"207\",\"2361807\",\"0.0-207.0\",\"\",\"\",\"1-4\",\"4415\",\"37\",\"1\",\"Testing\",\"Stims/Figures/128-C-30-3.bmp\",\"ta:ka:ka\",\"Right\",\"37\",\"3\",\"11\",\"2\",\"P\",\"C\",\"59\"
\"\",\"\",\"approach-retreat\",\"208\",\"2369629\",\"0.0-208.0\",\"\",\"\",\"1-4\",\"6316\",\"37\",\"0\",\"Testing\",\"Stims/Figures/19-C-20-4.bmp\",\"ta:ka:ka\",\"Left\",\"39\",\"3\",\"12\",\"2\",\"P\",\"C\",\"60\"
\"\",\"\",\"approach-retreat\",\"209\",\"2375158\",\"0.0-209.0\",\"\",\"\",\"1-4\",\"4022\",\"40\",\"1\",\"Testing\",\"Stims/Figures/57-C-30-1.bmp\",\"ta:ka:ka\",\"Up\",\"40\",\"3\",\"13\",\"2\",\"P\",\"C\",\"61\"
\"\",\"\",\"approach-retreat\",\"210\",\"2381821\",\"0.0-210.0\",\"\",\"\",\"1-4\",\"5158\",\"40\",\"0\",\"Testing\",\"Stims/Figures/118-J-0-2.bmp\",\"ma:la:na\",\"Up\",\"38\",\"3\",\"14\",\"2\",\"S\",\"C\",\"62\"
\"\",\"\",\"approach-retreat\",\"211\",\"2387822\",\"0.0-211.0\",\"\",\"\",\"1-4\",\"4494\",\"39\",\"1\",\"Testing\",\"Stims/Figures/93-J-0-1.bmp\",\"ma:la:na\",\"Right\",\"39\",\"3\",\"15\",\"2\",\"S\",\"C\",\"63\"
\"\",\"\",\"approach-retreat\",\"212\",\"2393461\",\"0.0-212.0\",\"\",\"\",\"1-4\",\"4133\",\"40\",\"0\",\"Testing\",\"Stims/Figures/74-J-10-4.bmp\",\"ma:la:na\",\"Up\",\"38\",\"3\",\"16\",\"2\",\"S\",\"C\",\"64\"
\"\",\"\",\"approach-retreat\",\"213\",\"2400109\",\"0.0-213.0\",\"\",\"\",\"1-4\",\"5142\",\"37\",\"1\",\"Testing\",\"Stims/Figures/94-J-0-2.bmp\",\"ma:la:na\",\"Left\",\"37\",\"3\",\"17\",\"2\",\"S\",\"C\",\"65\"
\"\",\"\",\"approach-retreat\",\"214\",\"2406295\",\"0.0-214.0\",\"\",\"\",\"1-4\",\"4679\",\"37\",\"0\",\"Testing\",\"Stims/Figures/19-J-10-4.bmp\",\"ma:la:na\",\"Right\",\"39\",\"3\",\"18\",\"2\",\"S\",\"C\",\"66\"
\"\",\"\",\"approach-retreat\",\"215\",\"2411847\",\"0.0-215.0\",\"\",\"\",\"1-4\",\"4046\",\"37\",\"0\",\"Testing\",\"Stims/Figures/85-J-0-2.bmp\",\"ma:la:na\",\"Right\",\"39\",\"3\",\"19\",\"2\",\"S\",\"C\",\"67\"
\"\",\"\",\"approach-retreat\",\"216\",\"2416864\",\"0.0-216.0\",\"\",\"\",\"1-4\",\"3510\",\"37\",\"1\",\"Testing\",\"Stims/Figures/111-J-10-3.bmp\",\"ma:la:na\",\"Left\",\"37\",\"3\",\"20\",\"2\",\"S\",\"C\",\"68\"
\"\",\"\",\"approach-retreat\",\"217\",\"2423855\",\"0.0-217.0\",\"\",\"\",\"1-4\",\"5484\",\"38\",\"1\",\"Testing\",\"Stims/Figures/27-C-30-1.bmp\",\"ta:ka:ka\",\"Down\",\"38\",\"3\",\"21\",\"2\",\"P\",\"C\",\"69\"
\"\",\"\",\"approach-retreat\",\"218\",\"2429374\",\"0.0-218.0\",\"\",\"\",\"1-4\",\"4013\",\"38\",\"1\",\"Testing\",\"Stims/Figures/100-C-30-3.bmp\",\"ta:ka:ka\",\"Down\",\"38\",\"3\",\"22\",\"2\",\"P\",\"C\",\"70\"
\"\",\"\",\"approach-retreat\",\"219\",\"2435214\",\"0.0-219.0\",\"\",\"\",\"1-4\",\"4334\",\"40\",\"0\",\"Testing\",\"Stims/Figures/94-C-20-2.bmp\",\"ta:ka:ka\",\"Down\",\"38\",\"3\",\"23\",\"2\",\"P\",\"C\",\"71\"
\"\",\"\",\"approach-retreat\",\"220\",\"2441502\",\"0.0-220.0\",\"\",\"\",\"1-4\",\"4782\",\"40\",\"1\",\"Testing\",\"Stims/Figures/85-C-20-2.bmp\",\"ta:ka:ka\",\"Up\",\"40\",\"3\",\"24\",\"2\",\"P\",\"C\",\"72\"
\"\",\"\",\"approach-retreat\",\"221\",\"2448710\",\"0.0-221.0\",\"\",\"\",\"1-4\",\"5702\",\"40\",\"1\",\"Testing\",\"Stims/Figures/94-J-0-2.bmp\",\"ma:la:na\",\"Down\",\"40\",\"4\",\"1\",\"2\",\"S\",\"C\",\"73\"
\"\",\"\",\"approach-retreat\",\"222\",\"2462647\",\"0.0-222.0\",\"\",\"\",\"1-4\",\"12430\",\"38\",\"0\",\"Testing\",\"Stims/Figures/128-J-10-3.bmp\",\"ma:la:na\",\"Down\",\"40\",\"4\",\"2\",\"2\",\"S\",\"C\",\"74\"
\"\",\"\",\"approach-retreat\",\"223\",\"2469615\",\"0.0-223.0\",\"\",\"\",\"1-4\",\"5459\",\"37\",\"1\",\"Testing\",\"Stims/Figures/128-C-30-3.bmp\",\"ta:ka:ka\",\"Right\",\"37\",\"4\",\"3\",\"2\",\"P\",\"C\",\"75\"
\"\",\"\",\"approach-retreat\",\"224\",\"2475222\",\"0.0-224.0\",\"\",\"\",\"1-4\",\"4100\",\"38\",\"0\",\"Testing\",\"Stims/Figures/93-J-0-1.bmp\",\"ma:la:na\",\"Down\",\"40\",\"4\",\"4\",\"2\",\"S\",\"C\",\"76\"
\"\",\"\",\"approach-retreat\",\"225\",\"2483301\",\"0.0-225.0\",\"\",\"\",\"1-4\",\"6573\",\"38\",\"1\",\"Testing\",\"Stims/Figures/100-J-10-3.bmp\",\"ma:la:na\",\"Up\",\"38\",\"4\",\"5\",\"2\",\"S\",\"C\",\"77\"
\"\",\"\",\"approach-retreat\",\"226\",\"2489421\",\"0.0-226.0\",\"\",\"\",\"1-4\",\"4614\",\"37\",\"1\",\"Testing\",\"Stims/Figures/85-C-20-2.bmp\",\"ta:ka:ka\",\"Right\",\"37\",\"4\",\"6\",\"2\",\"P\",\"C\",\"78\"
\"\",\"\",\"approach-retreat\",\"227\",\"2498159\",\"0.0-227.0\",\"\",\"\",\"1-4\",\"7231\",\"38\",\"0\",\"Testing\",\"Stims/Figures/85-J-0-2.bmp\",\"ma:la:na\",\"Down\",\"40\",\"4\",\"7\",\"2\",\"S\",\"C\",\"79\"
\"\",\"\",\"approach-retreat\",\"228\",\"2508246\",\"0.0-228.0\",\"\",\"\",\"1-4\",\"8581\",\"37\",\"1\",\"Testing\",\"Stims/Figures/74-C-20-4.bmp\",\"ta:ka:ka\",\"Right\",\"37\",\"4\",\"8\",\"2\",\"P\",\"C\",\"80\"
\"\",\"\",\"approach-retreat\",\"229\",\"2515982\",\"0.0-229.0\",\"\",\"\",\"1-4\",\"6230\",\"38\",\"0\",\"Testing\",\"Stims/Figures/100-C-30-3.bmp\",\"ta:ka:ka\",\"Up\",\"40\",\"4\",\"9\",\"2\",\"P\",\"C\",\"81\"
\"\",\"\",\"approach-retreat\",\"230\",\"2521654\",\"0.0-230.0\",\"\",\"\",\"1-4\",\"4165\",\"40\",\"1\",\"Testing\",\"Stims/Figures/118-C-20-2.bmp\",\"ta:ka:ka\",\"Up\",\"40\",\"4\",\"10\",\"2\",\"P\",\"C\",\"82\"
\"\",\"\",\"approach-retreat\",\"231\",\"2534171\",\"0.0-231.0\",\"\",\"\",\"1-4\",\"11011\",\"37\",\"1\",\"Testing\",\"Stims/Figures/27-J-0-1.bmp\",\"ma:la:na\",\"Left\",\"37\",\"4\",\"11\",\"2\",\"S\",\"C\",\"83\"
\"\",\"\",\"approach-retreat\",\"232\",\"2539573\",\"0.0-232.0\",\"\",\"\",\"1-4\",\"3895\",\"38\",\"0\",\"Testing\",\"Stims/Figures/118-J-0-2.bmp\",\"ma:la:na\",\"Down\",\"40\",\"4\",\"12\",\"2\",\"S\",\"C\",\"84\"
\"\",\"\",\"approach-retreat\",\"233\",\"2545581\",\"0.0-233.0\",\"\",\"\",\"1-4\",\"4501\",\"40\",\"1\",\"Testing\",\"Stims/Figures/111-J-10-3.bmp\",\"ma:la:na\",\"Down\",\"40\",\"4\",\"13\",\"2\",\"S\",\"C\",\"85\"
\"\",\"\",\"approach-retreat\",\"234\",\"2551293\",\"0.0-234.0\",\"\",\"\",\"1-4\",\"4206\",\"38\",\"0\",\"Testing\",\"Stims/Figures/111-C-30-3.bmp\",\"ta:ka:ka\",\"Up\",\"40\",\"4\",\"14\",\"2\",\"P\",\"C\",\"86\"
\"\",\"\",\"approach-retreat\",\"235\",\"2557580\",\"0.0-235.0\",\"\",\"\",\"1-4\",\"4782\",\"40\",\"1\",\"Testing\",\"Stims/Figures/7-C-20-4.bmp\",\"ta:ka:ka\",\"Up\",\"40\",\"4\",\"15\",\"2\",\"P\",\"C\",\"87\"
\"\",\"\",\"approach-retreat\",\"236\",\"2566276\",\"0.0-236.0\",\"\",\"\",\"1-4\",\"7189\",\"37\",\"0\",\"Testing\",\"Stims/Figures/27-C-30-1.bmp\",\"ta:ka:ka\",\"Left\",\"39\",\"4\",\"16\",\"2\",\"P\",\"C\",\"88\"
\"\",\"\",\"approach-retreat\",\"237\",\"2571883\",\"0.0-237.0\",\"\",\"\",\"1-4\",\"4101\",\"37\",\"0\",\"Testing\",\"Stims/Figures/94-C-20-2.bmp\",\"ta:ka:ka\",\"Left\",\"39\",\"4\",\"17\",\"2\",\"P\",\"C\",\"89\"
\"\",\"\",\"approach-retreat\",\"238\",\"2578940\",\"0.0-238.0\",\"\",\"\",\"1-4\",\"5550\",\"37\",\"1\",\"Testing\",\"Stims/Figures/93-C-30-1.bmp\",\"ta:ka:ka\",\"Right\",\"37\",\"4\",\"18\",\"2\",\"P\",\"C\",\"90\"
\"\",\"\",\"approach-retreat\",\"239\",\"2595219\",\"0.0-239.0\",\"\",\"\",\"1-4\",\"14773\",\"39\",\"0\",\"Testing\",\"Stims/Figures/57-C-30-1.bmp\",\"ta:ka:ka\",\"Right\",\"37\",\"4\",\"19\",\"2\",\"P\",\"C\",\"91\"
\"\",\"\",\"approach-retreat\",\"240\",\"2607098\",\"0.0-240.0\",\"\",\"\",\"1-4\",\"10373\",\"37\",\"0\",\"Testing\",\"Stims/Figures/19-C-20-4.bmp\",\"ta:ka:ka\",\"Left\",\"39\",\"4\",\"20\",\"2\",\"P\",\"C\",\"92\"
\"\",\"\",\"approach-retreat\",\"241\",\"2613708\",\"0.0-241.0\",\"\",\"\",\"1-4\",\"5103\",\"37\",\"1\",\"Testing\",\"Stims/Figures/7-J-10-4.bmp\",\"ma:la:na\",\"Left\",\"37\",\"4\",\"21\",\"2\",\"S\",\"C\",\"93\"
\"\",\"\",\"approach-retreat\",\"242\",\"2619275\",\"0.0-242.0\",\"\",\"\",\"1-4\",\"4061\",\"38\",\"1\",\"Testing\",\"Stims/Figures/74-J-10-4.bmp\",\"ma:la:na\",\"Up\",\"38\",\"4\",\"22\",\"2\",\"S\",\"C\",\"94\"
\"\",\"\",\"approach-retreat\",\"243\",\"2624916\",\"0.0-243.0\",\"\",\"\",\"1-4\",\"4132\",\"37\",\"1\",\"Testing\",\"Stims/Figures/19-J-10-4.bmp\",\"ma:la:na\",\"Left\",\"37\",\"4\",\"23\",\"2\",\"S\",\"C\",\"95\"
\"\",\"\",\"approach-retreat\",\"244\",\"2630419\",\"0.0-244.0\",\"\",\"\",\"1-4\",\"3997\",\"39\",\"1\",\"Testing\",\"Stims/Figures/57-J-0-1.bmp\",\"ma:la:na\",\"Right\",\"39\",\"4\",\"24\",\"2\",\"S\",\"C\",\"96\"
\"\",\"\",\"survey-text\",\"245\",\"2636475\",\"0.0-245.0\",\"\",\"\",\"1-4\",\"10052\",\"37\",\"0\",\"Testing\",\"Stims/Figures/57-J-0-1.bmp\",\"ma:la:na\",\"Right\",\"39\",\"4\",\"24\",\"2\",\"S\",\"C\",\"\"
