"rt","key_press","trial_type","trial_index","time_elapsed","internal_node_id","view_history","responses","Id","Rt","ResKeyCode","ResCorr","TrialType2","Image","Label","Location","CorrectResponse","Block","BlockTrial","Condition","LabelType","Subcondition","trialNum"
"66914","32","text","0","66917","0.0-0.0-0.0","","","","","","","","","","","","","","","","",""
"263980","","instructions","1","330899","0.0-1.0","[{""page_index"":0,""viewing_time"":263979}]","","","","","","","","","","","","","","","",""
"27991","","survey-multi-choice","2","358929","0.0-2.0","","{""Q0"":""Da"",""Q1"":""Da"",""Q2"":""Da"",""Q3"":""Da"",""Q4"":""Da"",""Q5"":""Da""}","","","","","","","","","","","","","","",""
"","","bio","3","370613","0.0-3.0","","{""age"":""19"",""gender"":""f"",""specify"":""""}","","","","","","","","","","","","","","",""
"","","approach-retreat","4","378221","0.0-4.0","","","3-3","6037","40","0","Training","Stims/Figures/144-J-10-3.bmp","mamana","Up","38","1","1","2","S","C","1"
"","","approach-retreat","5","384855","0.0-5.0","","","3-3","5123","40","0","Training","Stims/Figures/144-C-30-3.bmp","pa:pa:ta","Down","38","1","2","2","P","C","2"
"","","approach-retreat","6","391262","0.0-6.0","","","3-3","4896","38","0","Training","Stims/Figures/118-J-0-2.bmp","mamana","Down","40","1","3","2","S","C","3"
"","","approach-retreat","7","397602","0.0-7.0","","","3-3","4829","40","0","Training","Stims/Figures/86-J-0-1.bmp","mamana","Up","38","1","4","2","S","C","4"
"","","approach-retreat","8","404977","0.0-8.0","","","3-3","5867","39","1","Training","Stims/Figures/86-C-30-1.bmp","pa:pa:ta","Left","39","1","5","2","P","C","5"
"","","approach-retreat","9","410744","0.0-9.0","","","3-3","4256","39","1","Training","Stims/Figures/93-C-30-1.bmp","pa:pa:ta","Left","39","1","6","2","P","C","6"
"","","approach-retreat","10","416438","0.0-10.0","","","3-3","4184","39","1","Training","Stims/Figures/118-C-20-2.bmp","pa:pa:ta","Left","39","1","7","2","P","C","7"
"","","approach-retreat","11","422168","0.0-11.0","","","3-3","4219","37","1","Training","Stims/Figures/102-C-20-4.bmp","pa:pa:ta","Right","37","1","8","2","P","C","8"
"","","approach-retreat","12","428025","0.0-12.0","","","3-3","4346","37","1","Training","Stims/Figures/84-C-20-2.bmp","pa:pa:ta","Right","37","1","9","2","P","C","9"
"","","approach-retreat","13","433675","0.0-13.0","","","3-3","4140","38","0","Training","Stims/Figures/128-J-10-3.bmp","mamana","Down","40","1","10","2","S","C","10"
"","","approach-retreat","14","439660","0.0-14.0","","","3-3","4476","39","1","Training","Stims/Figures/19-J-10-4.bmp","mamana","Right","39","1","11","2","S","C","11"
"","","approach-retreat","15","445686","0.0-15.0","","","3-3","4516","40","1","Training","Stims/Figures/93-J-0-1.bmp","mamana","Down","40","1","12","2","S","C","12"
"","","approach-retreat","16","451930","0.0-16.0","","","3-3","4733","38","1","Training","Stims/Figures/102-J-10-4.bmp","mamana","Up","38","1","13","2","S","C","13"
"","","approach-retreat","17","458013","0.0-17.0","","","3-3","4573","40","1","Training","Stims/Figures/128-C-30-3.bmp","pa:pa:ta","Up","40","1","14","2","P","C","14"
"","","approach-retreat","18","463672","0.0-18.0","","","3-3","4146","37","1","Training","Stims/Figures/19-C-20-4.bmp","pa:pa:ta","Right","37","1","15","2","P","C","15"
"","","approach-retreat","19","470105","0.0-19.0","","","3-3","4924","37","1","Training","Stims/Figures/84-J-0-2.bmp","mamana","Left","37","1","16","2","S","C","16"
"","","approach-retreat","20","476467","0.0-20.0","","","3-3","4853","39","1","Training","Stims/Figures/118-C-20-2.bmp","pa:pa:ta","Left","39","2","1","2","P","C","17"
"","","approach-retreat","21","482255","0.0-21.0","","","3-3","4279","37","1","Training","Stims/Figures/118-J-0-2.bmp","mamana","Left","37","2","2","2","S","C","18"
"","","approach-retreat","22","488265","0.0-22.0","","","3-3","4500","39","1","Training","Stims/Figures/102-J-10-4.bmp","mamana","Right","39","2","3","2","S","C","19"
"","","approach-retreat","23","494155","0.0-23.0","","","3-3","4382","38","1","Training","Stims/Figures/144-J-10-3.bmp","mamana","Up","38","2","4","2","S","C","20"
"","","approach-retreat","24","499953","0.0-24.0","","","3-3","4286","37","1","Training","Stims/Figures/128-C-30-3.bmp","pa:pa:ta","Right","37","2","5","2","P","C","21"
"","","approach-retreat","25","505605","0.0-25.0","","","3-3","4141","37","1","Training","Stims/Figures/19-C-20-4.bmp","pa:pa:ta","Right","37","2","6","2","P","C","22"
"","","approach-retreat","26","511469","0.0-26.0","","","3-3","4355","38","1","Training","Stims/Figures/144-C-30-3.bmp","pa:pa:ta","Down","38","2","7","2","P","C","23"
"","","approach-retreat","27","517649","0.0-27.0","","","3-3","4669","40","1","Training","Stims/Figures/102-C-20-4.bmp","pa:pa:ta","Up","40","2","8","2","P","C","24"
"","","approach-retreat","28","523332","0.0-28.0","","","3-3","4173","39","1","Training","Stims/Figures/93-C-30-1.bmp","pa:pa:ta","Left","39","2","9","2","P","C","25"
"","","approach-retreat","29","529039","0.0-29.0","","","3-3","4197","40","1","Training","Stims/Figures/86-C-30-1.bmp","pa:pa:ta","Up","40","2","10","2","P","C","26"
"","","approach-retreat","30","534745","0.0-30.0","","","3-3","4199","40","1","Training","Stims/Figures/84-J-0-2.bmp","mamana","Down","40","2","11","2","S","C","27"
"","","approach-retreat","31","540323","0.0-31.0","","","3-3","4069","38","1","Training","Stims/Figures/84-C-20-2.bmp","pa:pa:ta","Down","38","2","12","2","P","C","28"
"","","approach-retreat","32","545982","0.0-32.0","","","3-3","4148","37","1","Training","Stims/Figures/93-J-0-1.bmp","mamana","Left","37","2","13","2","S","C","29"
"","","approach-retreat","33","551647","0.0-33.0","","","3-3","4153","39","1","Training","Stims/Figures/128-J-10-3.bmp","mamana","Right","39","2","14","2","S","C","30"
"","","approach-retreat","34","557388","0.0-34.0","","","3-3","4233","38","1","Training","Stims/Figures/19-J-10-4.bmp","mamana","Up","38","2","15","2","S","C","31"
"","","approach-retreat","35","563058","0.0-35.0","","","3-3","4157","40","1","Training","Stims/Figures/86-J-0-1.bmp","mamana","Down","40","2","16","2","S","C","32"
"","","approach-retreat","36","569304","0.0-36.0","","","3-3","4739","40","1","Training","Stims/Figures/84-C-20-2.bmp","pa:pa:ta","Up","40","3","1","2","P","C","33"
"","","approach-retreat","37","574968","0.0-37.0","","","3-3","4152","37","1","Training","Stims/Figures/86-J-0-1.bmp","mamana","Left","37","3","2","2","S","C","34"
"","","approach-retreat","38","580576","0.0-38.0","","","3-3","4097","39","1","Training","Stims/Figures/128-C-30-3.bmp","pa:pa:ta","Left","39","3","3","2","P","C","35"
"","","approach-retreat","39","586330","0.0-39.0","","","3-3","4243","38","1","Training","Stims/Figures/86-C-30-1.bmp","pa:pa:ta","Down","38","3","4","2","P","C","36"
"","","approach-retreat","40","592382","0.0-40.0","","","3-3","4540","37","1","Training","Stims/Figures/102-C-20-4.bmp","pa:pa:ta","Right","37","3","5","2","P","C","37"
"","","approach-retreat","41","597942","0.0-41.0","","","3-3","4049","37","1","Training","Stims/Figures/19-C-20-4.bmp","pa:pa:ta","Right","37","3","6","2","P","C","38"
"","","approach-retreat","42","603546","0.0-42.0","","","3-3","4095","40","1","Training","Stims/Figures/102-J-10-4.bmp","mamana","Down","40","3","7","2","S","C","39"
"","","approach-retreat","43","610387","0.0-43.0","","","3-3","5330","38","1","Training","Stims/Figures/144-J-10-3.bmp","mamana","Up","38","3","8","2","S","C","40"
"","","approach-retreat","44","616022","0.0-44.0","","","3-3","4123","37","1","Training","Stims/Figures/118-C-20-2.bmp","pa:pa:ta","Right","37","3","9","2","P","C","41"
"","","approach-retreat","45","621848","0.0-45.0","","","3-3","4313","38","1","Training","Stims/Figures/93-J-0-1.bmp","mamana","Up","38","3","10","2","S","C","42"
"","","approach-retreat","46","627868","0.0-46.0","","","3-3","4508","40","1","Training","Stims/Figures/118-J-0-2.bmp","mamana","Down","40","3","11","2","S","C","43"
"","","approach-retreat","47","633492","0.0-47.0","","","3-3","4113","39","1","Training","Stims/Figures/144-C-30-3.bmp","pa:pa:ta","Left","39","3","12","2","P","C","44"
"","","approach-retreat","48","639567","0.0-48.0","","","3-3","4565","37","1","Training","Stims/Figures/19-J-10-4.bmp","mamana","Left","37","3","13","2","S","C","45"
"","","approach-retreat","49","645241","0.0-49.0","","","3-3","4163","40","1","Training","Stims/Figures/84-J-0-2.bmp","mamana","Down","40","3","14","2","S","C","46"
"","","approach-retreat","50","651204","0.0-50.0","","","3-3","4451","38","1","Training","Stims/Figures/128-J-10-3.bmp","mamana","Up","38","3","15","2","S","C","47"
"","","approach-retreat","51","657318","0.0-51.0","","","3-3","4602","37","1","Training","Stims/Figures/93-C-30-1.bmp","pa:pa:ta","Right","37","3","16","2","P","C","48"
"","","approach-retreat","52","663213","0.0-52.0","","","3-3","4385","38","1","Training","Stims/Figures/102-C-20-4.bmp","pa:pa:ta","Down","38","4","1","2","P","C","49"
"","","approach-retreat","53","668967","0.0-53.0","","","3-3","4247","37","1","Training","Stims/Figures/144-J-10-3.bmp","mamana","Left","37","4","2","2","S","C","50"
"","","approach-retreat","54","674880","0.0-54.0","","","3-3","4400","38","1","Training","Stims/Figures/102-J-10-4.bmp","mamana","Up","38","4","3","2","S","C","51"
"","","approach-retreat","55","681181","0.0-55.0","","","3-3","4791","40","1","Training","Stims/Figures/84-C-20-2.bmp","pa:pa:ta","Up","40","4","4","2","P","C","52"
"","","approach-retreat","56","687773","0.0-56.0","","","3-3","5082","39","1","Training","Stims/Figures/19-J-10-4.bmp","mamana","Right","39","4","5","2","S","C","53"
"","","approach-retreat","57","693480","0.0-57.0","","","3-3","4196","39","1","Training","Stims/Figures/19-C-20-4.bmp","pa:pa:ta","Left","39","4","6","2","P","C","54"
"","","approach-retreat","58","699257","0.0-58.0","","","3-3","4269","40","1","Training","Stims/Figures/128-J-10-3.bmp","mamana","Down","40","4","7","2","S","C","55"
"","","approach-retreat","59","705177","0.0-59.0","","","3-3","4412","39","1","Training","Stims/Figures/84-J-0-2.bmp","mamana","Right","39","4","8","2","S","C","56"
"","","approach-retreat","60","711195","0.0-60.0","","","3-3","4506","37","1","Training","Stims/Figures/128-C-30-3.bmp","pa:pa:ta","Right","37","4","9","2","P","C","57"
"","","approach-retreat","61","717179","0.0-61.0","","","3-3","4474","40","1","Training","Stims/Figures/93-J-0-1.bmp","mamana","Down","40","4","10","2","S","C","58"
"","","approach-retreat","62","722793","0.0-62.0","","","3-3","4103","37","1","Training","Stims/Figures/86-J-0-1.bmp","mamana","Left","37","4","11","2","S","C","59"
"","","approach-retreat","63","728784","0.0-63.0","","","3-3","4483","39","1","Training","Stims/Figures/118-J-0-2.bmp","mamana","Right","39","4","12","2","S","C","60"
"","","approach-retreat","64","734752","0.0-64.0","","","3-3","4458","40","1","Training","Stims/Figures/144-C-30-3.bmp","pa:pa:ta","Up","40","4","13","2","P","C","61"
"","","approach-retreat","65","740278","0.0-65.0","","","3-3","4019","40","1","Training","Stims/Figures/93-C-30-1.bmp","pa:pa:ta","Up","40","4","14","2","P","C","62"
"","","approach-retreat","66","745927","0.0-66.0","","","3-3","4139","38","1","Training","Stims/Figures/86-C-30-1.bmp","pa:pa:ta","Down","38","4","15","2","P","C","63"
"","","approach-retreat","67","751536","0.0-67.0","","","3-3","4098","39","1","Training","Stims/Figures/118-C-20-2.bmp","pa:pa:ta","Left","39","4","16","2","P","C","64"
"","","approach-retreat","68","757171","0.0-68.0","","","3-3","4124","37","0","Training","Stims/Figures/93-J-0-1.bmp","mamana","Right","39","5","1","2","S","C","65"
"","","approach-retreat","69","762807","0.0-69.0","","","3-3","4127","37","1","Training","Stims/Figures/93-C-30-1.bmp","pa:pa:ta","Right","37","5","2","2","P","C","66"
"","","approach-retreat","70","769827","0.0-70.0","","","3-3","5511","38","1","Training","Stims/Figures/86-J-0-1.bmp","mamana","Up","38","5","3","2","S","C","67"
"","","approach-retreat","71","776708","0.0-71.0","","","3-3","5369","38","1","Training","Stims/Figures/144-J-10-3.bmp","mamana","Up","38","5","4","2","S","C","68"
"","","approach-retreat","72","782503","0.0-72.0","","","3-3","4286","38","1","Training","Stims/Figures/118-C-20-2.bmp","pa:pa:ta","Down","38","5","5","2","P","C","69"
"","","approach-retreat","73","789091","0.0-73.0","","","3-3","5078","38","1","Training","Stims/Figures/19-J-10-4.bmp","mamana","Up","38","5","6","2","S","C","70"
"","","approach-retreat","74","795009","0.0-74.0","","","3-3","4408","37","1","Training","Stims/Figures/84-C-20-2.bmp","pa:pa:ta","Right","37","5","7","2","P","C","71"
"","","approach-retreat","75","800645","0.0-75.0","","","3-3","4125","39","1","Training","Stims/Figures/144-C-30-3.bmp","pa:pa:ta","Left","39","5","8","2","P","C","72"
"","","approach-retreat","76","806811","0.0-76.0","","","3-3","4657","40","1","Training","Stims/Figures/128-J-10-3.bmp","mamana","Down","40","5","9","2","S","C","73"
"","","approach-retreat","77","812725","0.0-77.0","","","3-3","4405","37","1","Training","Stims/Figures/102-J-10-4.bmp","mamana","Left","37","5","10","2","S","C","74"
"","","approach-retreat","78","818409","0.0-78.0","","","3-3","4176","38","1","Training","Stims/Figures/128-C-30-3.bmp","pa:pa:ta","Down","38","5","11","2","P","C","75"
"","","approach-retreat","79","824190","0.0-79.0","","","3-3","4272","39","1","Training","Stims/Figures/118-J-0-2.bmp","mamana","Right","39","5","12","2","S","C","76"
"","","approach-retreat","80","829773","0.0-80.0","","","3-3","4071","39","1","Training","Stims/Figures/19-C-20-4.bmp","pa:pa:ta","Left","39","5","13","2","P","C","77"
"","","approach-retreat","81","835929","0.0-81.0","","","3-3","4644","38","1","Training","Stims/Figures/102-C-20-4.bmp","pa:pa:ta","Down","38","5","14","2","P","C","78"
"","","approach-retreat","82","842059","0.0-82.0","","","3-3","4623","38","1","Training","Stims/Figures/84-J-0-2.bmp","mamana","Up","38","5","15","2","S","C","79"
"","","approach-retreat","83","848274","0.0-83.0","","","3-3","4704","39","1","Training","Stims/Figures/86-C-30-1.bmp","pa:pa:ta","Left","39","5","16","2","P","C","80"
"","","approach-retreat","84","853996","0.0-84.0","","","3-3","4214","37","1","Training","Stims/Figures/86-J-0-1.bmp","mamana","Left","37","6","1","2","S","C","81"
"","","approach-retreat","85","859752","0.0-85.0","","","3-3","4243","40","1","Training","Stims/Figures/86-C-30-1.bmp","pa:pa:ta","Up","40","6","2","2","P","C","82"
"","","approach-retreat","86","865558","0.0-86.0","","","3-3","4295","38","1","Training","Stims/Figures/19-J-10-4.bmp","mamana","Up","38","6","3","2","S","C","83"
"","","approach-retreat","87","871380","0.0-87.0","","","3-3","4314","40","1","Training","Stims/Figures/144-J-10-3.bmp","mamana","Down","40","6","4","2","S","C","84"
"","","approach-retreat","88","877172","0.0-88.0","","","3-3","4284","40","1","Training","Stims/Figures/118-J-0-2.bmp","mamana","Down","40","6","5","2","S","C","85"
"","","approach-retreat","89","882970","0.0-89.0","","","3-3","4287","37","1","Training","Stims/Figures/19-C-20-4.bmp","pa:pa:ta","Right","37","6","6","2","P","C","86"
"","","approach-retreat","90","889257","0.0-90.0","","","3-3","4776","37","1","Training","Stims/Figures/102-J-10-4.bmp","mamana","Left","37","6","7","2","S","C","87"
"","","approach-retreat","91","895434","0.0-91.0","","","3-3","4665","37","1","Training","Stims/Figures/102-C-20-4.bmp","pa:pa:ta","Right","37","6","8","2","P","C","88"
"","","approach-retreat","92","901187","0.0-92.0","","","3-3","4243","38","1","Training","Stims/Figures/128-C-30-3.bmp","pa:pa:ta","Down","38","6","9","2","P","C","89"
"","","approach-retreat","93","907075","0.0-93.0","","","3-3","4378","40","1","Training","Stims/Figures/128-J-10-3.bmp","mamana","Down","40","6","10","2","S","C","90"
"","","approach-retreat","94","913124","0.0-94.0","","","3-3","4538","40","1","Training","Stims/Figures/118-C-20-2.bmp","pa:pa:ta","Up","40","6","11","2","P","C","91"
"","","approach-retreat","95","918775","0.0-95.0","","","3-3","4140","37","1","Training","Stims/Figures/93-J-0-1.bmp","mamana","Left","37","6","12","2","S","C","92"
"","","approach-retreat","96","924554","0.0-96.0","","","3-3","4270","39","1","Training","Stims/Figures/84-C-20-2.bmp","pa:pa:ta","Left","39","6","13","2","P","C","93"
"","","approach-retreat","97","930425","0.0-97.0","","","3-3","4361","37","1","Training","Stims/Figures/144-C-30-3.bmp","pa:pa:ta","Right","37","6","14","2","P","C","94"
"","","approach-retreat","98","936017","0.0-98.0","","","3-3","4080","37","1","Training","Stims/Figures/93-C-30-1.bmp","pa:pa:ta","Right","37","6","15","2","P","C","95"
"","","approach-retreat","99","942098","0.0-99.0","","","3-3","4571","38","1","Training","Stims/Figures/84-J-0-2.bmp","mamana","Up","38","6","16","2","S","C","96"
"","","approach-retreat","100","947979","0.0-100.0","","","3-3","4371","37","1","Training","Stims/Figures/93-C-30-1.bmp","pa:pa:ta","Right","37","7","1","2","P","C","97"
"","","approach-retreat","101","953939","0.0-101.0","","","3-3","4450","40","1","Training","Stims/Figures/19-C-20-4.bmp","pa:pa:ta","Up","40","7","2","2","P","C","98"
"","","approach-retreat","102","959744","0.0-102.0","","","3-3","4293","39","1","Training","Stims/Figures/118-J-0-2.bmp","mamana","Right","39","7","3","2","S","C","99"
"","","approach-retreat","103","965506","0.0-103.0","","","3-3","4252","38","1","Training","Stims/Figures/19-J-10-4.bmp","mamana","Up","38","7","4","2","S","C","100"
"","","approach-retreat","104","971352","0.0-104.0","","","3-3","4336","38","1","Training","Stims/Figures/84-C-20-2.bmp","pa:pa:ta","Down","38","7","5","2","P","C","101"
"","","approach-retreat","105","977305","0.0-105.0","","","3-3","4445","38","1","Training","Stims/Figures/102-J-10-4.bmp","mamana","Up","38","7","6","2","S","C","102"
"","","approach-retreat","106","982915","0.0-106.0","","","3-3","4098","37","1","Training","Stims/Figures/128-C-30-3.bmp","pa:pa:ta","Right","37","7","7","2","P","C","103"
"","","approach-retreat","107","988501","0.0-107.0","","","3-3","4078","39","1","Training","Stims/Figures/102-C-20-4.bmp","pa:pa:ta","Left","39","7","8","2","P","C","104"
"","","approach-retreat","108","994092","0.0-108.0","","","3-3","4081","37","1","Training","Stims/Figures/86-C-30-1.bmp","pa:pa:ta","Right","37","7","9","2","P","C","105"
"","","approach-retreat","109","999770","0.0-109.0","","","3-3","4166","40","0","Training","Stims/Figures/86-J-0-1.bmp","mamana","Up","38","7","10","2","S","C","106"
"","","approach-retreat","110","1005580","0.0-110.0","","","3-3","4304","37","1","Training","Stims/Figures/144-J-10-3.bmp","mamana","Left","37","7","11","2","S","C","107"
"","","approach-retreat","111","1011443","0.0-111.0","","","3-3","4352","40","1","Training","Stims/Figures/128-J-10-3.bmp","mamana","Down","40","7","12","2","S","C","108"
"","","approach-retreat","112","1016983","0.0-112.0","","","3-3","4032","38","1","Training","Stims/Figures/144-C-30-3.bmp","pa:pa:ta","Down","38","7","13","2","P","C","109"
"","","approach-retreat","113","1022560","0.0-113.0","","","3-3","4066","39","1","Training","Stims/Figures/118-C-20-2.bmp","pa:pa:ta","Left","39","7","14","2","P","C","110"
"","","approach-retreat","114","1028369","0.0-114.0","","","3-3","4298","40","1","Training","Stims/Figures/84-J-0-2.bmp","mamana","Down","40","7","15","2","S","C","111"
"","","approach-retreat","115","1033904","0.0-115.0","","","3-3","4024","37","1","Training","Stims/Figures/93-J-0-1.bmp","mamana","Left","37","7","16","2","S","C","112"
"","","approach-retreat","116","1039523","0.0-116.0","","","3-3","4107","39","1","Training","Stims/Figures/86-J-0-1.bmp","mamana","Right","39","8","1","2","S","C","113"
"","","approach-retreat","117","1045194","0.0-117.0","","","3-3","4162","38","1","Training","Stims/Figures/93-J-0-1.bmp","mamana","Up","38","8","2","2","S","C","114"
"","","approach-retreat","118","1050767","0.0-118.0","","","3-3","4064","40","1","Training","Stims/Figures/19-J-10-4.bmp","mamana","Down","40","8","3","2","S","C","115"
"","","approach-retreat","119","1056433","0.0-119.0","","","3-3","4155","37","1","Training","Stims/Figures/86-C-30-1.bmp","pa:pa:ta","Right","37","8","4","2","P","C","116"
"","","approach-retreat","120","1062073","0.0-120.0","","","3-3","4126","37","1","Training","Stims/Figures/102-J-10-4.bmp","mamana","Left","37","8","5","2","S","C","117"
"","","approach-retreat","121","1068438","0.0-121.0","","","3-3","4853","38","1","Training","Stims/Figures/84-J-0-2.bmp","mamana","Up","38","8","6","2","S","C","118"
"","","approach-retreat","122","1074055","0.0-122.0","","","3-3","4107","37","1","Training","Stims/Figures/118-J-0-2.bmp","mamana","Left","37","8","7","2","S","C","119"
"","","approach-retreat","123","1080333","0.0-123.0","","","3-3","4767","40","1","Training","Stims/Figures/118-C-20-2.bmp","pa:pa:ta","Up","40","8","8","2","P","C","120"
"","","approach-retreat","124","1085925","0.0-124.0","","","3-3","4080","39","1","Training","Stims/Figures/102-C-20-4.bmp","pa:pa:ta","Left","39","8","9","2","P","C","121"
"","","approach-retreat","125","1091573","0.0-125.0","","","3-3","4140","40","1","Training","Stims/Figures/128-J-10-3.bmp","mamana","Down","40","8","10","2","S","C","122"
"","","approach-retreat","126","1097447","0.0-126.0","","","3-3","4365","37","1","Training","Stims/Figures/19-C-20-4.bmp","pa:pa:ta","Right","37","8","11","2","P","C","123"
"","","approach-retreat","127","1103011","0.0-127.0","","","3-3","4055","37","1","Training","Stims/Figures/93-C-30-1.bmp","pa:pa:ta","Right","37","8","12","2","P","C","124"
"","","approach-retreat","128","1108887","0.0-128.0","","","3-3","4365","38","1","Training","Stims/Figures/84-C-20-2.bmp","pa:pa:ta","Down","38","8","13","2","P","C","125"
"","","approach-retreat","129","1114473","0.0-129.0","","","3-3","4077","37","1","Training","Stims/Figures/144-J-10-3.bmp","mamana","Left","37","8","14","2","S","C","126"
"","","approach-retreat","130","1120144","0.0-130.0","","","3-3","4160","40","1","Training","Stims/Figures/128-C-30-3.bmp","pa:pa:ta","Up","40","8","15","2","P","C","127"
"","","approach-retreat","131","1125887","0.0-131.0","","","3-3","4232","38","1","Training","Stims/Figures/144-C-30-3.bmp","pa:pa:ta","Down","38","8","16","2","P","C","128"
"","","approach-retreat","132","1131462","0.0-132.0","","","3-3","4066","39","1","Training","Stims/Figures/118-C-20-2.bmp","pa:pa:ta","Left","39","9","1","2","P","C","129"
"","","approach-retreat","133","1137012","0.0-133.0","","","3-3","4040","39","1","Training","Stims/Figures/128-J-10-3.bmp","mamana","Right","39","9","2","2","S","C","130"
"","","approach-retreat","134","1142508","0.0-134.0","","","3-3","3985","37","1","Training","Stims/Figures/102-J-10-4.bmp","mamana","Left","37","9","3","2","S","C","131"
"","","approach-retreat","135","1148436","0.0-135.0","","","3-3","4417","40","1","Training","Stims/Figures/84-C-20-2.bmp","pa:pa:ta","Up","40","9","4","2","P","C","132"
"","","approach-retreat","136","1154486","0.0-136.0","","","3-3","4537","40","1","Training","Stims/Figures/93-C-30-1.bmp","pa:pa:ta","Up","40","9","5","2","P","C","133"
"","","approach-retreat","137","1160563","0.0-137.0","","","3-3","4568","38","1","Training","Stims/Figures/86-C-30-1.bmp","pa:pa:ta","Down","38","9","6","2","P","C","134"
"","","approach-retreat","138","1165999","0.0-138.0","","","3-3","3926","39","1","Training","Stims/Figures/128-C-30-3.bmp","pa:pa:ta","Left","39","9","7","2","P","C","135"
"","","approach-retreat","139","1171666","0.0-139.0","","","3-3","4160","39","1","Training","Stims/Figures/93-J-0-1.bmp","mamana","Right","39","9","8","2","S","C","136"
"","","approach-retreat","140","1177234","0.0-140.0","","","3-3","4058","39","1","Training","Stims/Figures/19-C-20-4.bmp","pa:pa:ta","Left","39","9","9","2","P","C","137"
"","","approach-retreat","141","1182824","0.0-141.0","","","3-3","4082","40","1","Training","Stims/Figures/84-J-0-2.bmp","mamana","Down","40","9","10","2","S","C","138"
"","","approach-retreat","142","1188388","0.0-142.0","","","3-3","4055","39","1","Training","Stims/Figures/86-J-0-1.bmp","mamana","Right","39","9","11","2","S","C","139"
"","","approach-retreat","143","1194207","0.0-143.0","","","3-3","4308","38","1","Training","Stims/Figures/144-J-10-3.bmp","mamana","Up","38","9","12","2","S","C","140"
"","","approach-retreat","144","1199848","0.0-144.0","","","3-3","4132","38","1","Training","Stims/Figures/118-J-0-2.bmp","mamana","Up","38","9","13","2","S","C","141"
"","","approach-retreat","145","1205448","0.0-145.0","","","3-3","4089","37","1","Training","Stims/Figures/144-C-30-3.bmp","pa:pa:ta","Right","37","9","14","2","P","C","142"
"","","approach-retreat","146","1211141","0.0-146.0","","","3-3","4183","40","1","Training","Stims/Figures/19-J-10-4.bmp","mamana","Down","40","9","15","2","S","C","143"
"","","approach-retreat","147","1216736","0.0-147.0","","","3-3","4082","38","1","Training","Stims/Figures/102-C-20-4.bmp","pa:pa:ta","Down","38","9","16","2","P","C","144"
"17078","","instructions","148","1233814","0.0-148.0","[{""page_index"":0,""viewing_time"":17076}]","","","","","","","","","","","","","","","",""
"","","approach-retreat","149","1241081","0.0-149.0","","","3-3","5760","37","1","Testing","Stims/Figures/19-C-20-4.bmp","pa:pa:ta","Right","37","1","1","2","P","C","1"
"","","approach-retreat","150","1246850","0.0-150.0","","","3-3","4262","40","1","Testing","Stims/Figures/93-C-30-1.bmp","pa:pa:ta","Up","40","1","2","2","P","C","2"
"","","approach-retreat","151","1252661","0.0-151.0","","","3-3","4304","38","1","Testing","Stims/Figures/57-C-30-1.bmp","pa:pa:ta","Down","38","1","3","2","P","C","3"
"","","approach-retreat","152","1258386","0.0-152.0","","","3-3","4216","40","1","Testing","Stims/Figures/57-J-0-1.bmp","mamana","Down","40","1","4","2","S","C","4"
"","","approach-retreat","153","1264042","0.0-153.0","","","3-3","4147","37","1","Testing","Stims/Figures/144-C-30-3.bmp","pa:pa:ta","Right","37","1","5","2","P","C","5"
"","","approach-retreat","154","1270123","0.0-154.0","","","3-3","4570","37","1","Testing","Stims/Figures/86-C-30-1.bmp","pa:pa:ta","Right","37","1","6","2","P","C","6"
"","","approach-retreat","155","1275839","0.0-155.0","","","3-3","4206","39","1","Testing","Stims/Figures/118-J-0-2.bmp","mamana","Right","39","1","7","2","S","C","7"
"","","approach-retreat","156","1281569","0.0-156.0","","","3-3","4222","37","1","Testing","Stims/Figures/84-J-0-2.bmp","mamana","Left","37","1","8","2","S","C","8"
"","","approach-retreat","157","1287985","0.0-157.0","","","3-3","4907","40","1","Testing","Stims/Figures/111-J-10-3.bmp","mamana","Down","40","1","9","2","S","C","9"
"","","approach-retreat","158","1293754","0.0-158.0","","","3-3","4259","38","1","Testing","Stims/Figures/85-J-0-2.bmp","mamana","Up","38","1","10","2","S","C","10"
"","","approach-retreat","159","1299388","0.0-159.0","","","3-3","4124","39","1","Testing","Stims/Figures/118-C-20-2.bmp","pa:pa:ta","Left","39","1","11","2","P","C","11"
"","","approach-retreat","160","1305101","0.0-160.0","","","3-3","4206","38","1","Testing","Stims/Figures/93-J-0-1.bmp","mamana","Up","38","1","12","2","S","C","12"
"","","approach-retreat","161","1310822","0.0-161.0","","","3-3","4214","37","0","Testing","Stims/Figures/19-J-10-4.bmp","mamana","Right","39","1","13","2","S","C","13"
"","","approach-retreat","162","1316539","0.0-162.0","","","3-3","4206","40","1","Testing","Stims/Figures/87-J-10-4.bmp","mamana","Down","40","1","14","2","S","C","14"
"","","approach-retreat","163","1322243","0.0-163.0","","","3-3","4195","37","0","Testing","Stims/Figures/87-C-20-4.bmp","pa:pa:ta","Left","39","1","15","2","P","C","15"
"","","approach-retreat","164","1328091","0.0-164.0","","","3-3","4343","40","1","Testing","Stims/Figures/85-C-20-2.bmp","pa:pa:ta","Up","40","1","16","2","P","C","16"
"","","approach-retreat","165","1333685","0.0-165.0","","","3-3","4081","37","1","Testing","Stims/Figures/144-J-10-3.bmp","mamana","Left","37","1","17","2","S","C","17"
"","","approach-retreat","166","1339309","0.0-166.0","","","3-3","4117","40","1","Testing","Stims/Figures/86-J-0-1.bmp","mamana","Down","40","1","18","2","S","C","18"
"","","approach-retreat","167","1344842","0.0-167.0","","","3-3","4020","39","1","Testing","Stims/Figures/102-J-10-4.bmp","mamana","Right","39","1","19","2","S","C","19"
"","","approach-retreat","168","1350423","0.0-168.0","","","3-3","4071","37","1","Testing","Stims/Figures/128-J-10-3.bmp","mamana","Left","37","1","20","2","S","C","20"
"","","approach-retreat","169","1356159","0.0-169.0","","","3-3","4227","38","1","Testing","Stims/Figures/111-C-30-3.bmp","pa:pa:ta","Down","38","1","21","2","P","C","21"
"","","approach-retreat","170","1361794","0.0-170.0","","","3-3","4127","39","1","Testing","Stims/Figures/102-C-20-4.bmp","pa:pa:ta","Left","39","1","22","2","P","C","22"
"","","approach-retreat","171","1368147","0.0-171.0","","","3-3","4844","40","1","Testing","Stims/Figures/128-C-30-3.bmp","pa:pa:ta","Up","40","1","23","2","P","C","23"
"","","approach-retreat","172","1373799","0.0-172.0","","","3-3","4143","40","1","Testing","Stims/Figures/84-C-20-2.bmp","pa:pa:ta","Up","40","1","24","2","P","C","24"
"","","approach-retreat","173","1379769","0.0-173.0","","","3-3","4460","40","1","Testing","Stims/Figures/19-J-10-4.bmp","mamana","Down","40","2","1","2","S","C","25"
"","","approach-retreat","174","1385422","0.0-174.0","","","3-3","4147","39","0","Testing","Stims/Figures/19-C-20-4.bmp","pa:pa:ta","Right","37","2","2","2","P","C","26"
"","","approach-retreat","175","1391018","0.0-175.0","","","3-3","4088","37","1","Testing","Stims/Figures/57-C-30-1.bmp","pa:pa:ta","Right","37","2","3","2","P","C","27"
"","","approach-retreat","176","1396671","0.0-176.0","","","3-3","4143","39","1","Testing","Stims/Figures/111-C-30-3.bmp","pa:pa:ta","Left","39","2","4","2","P","C","28"
"","","approach-retreat","177","1402348","0.0-177.0","","","3-3","4168","39","1","Testing","Stims/Figures/111-J-10-3.bmp","mamana","Right","39","2","5","2","S","C","29"
"","","approach-retreat","178","1408417","0.0-178.0","","","3-3","4559","39","1","Testing","Stims/Figures/102-J-10-4.bmp","mamana","Right","39","2","6","2","S","C","30"
"","","approach-retreat","179","1414197","0.0-179.0","","","3-3","4271","40","1","Testing","Stims/Figures/128-J-10-3.bmp","mamana","Down","40","2","7","2","S","C","31"
"","","approach-retreat","180","1419830","0.0-180.0","","","3-3","4123","37","1","Testing","Stims/Figures/84-J-0-2.bmp","mamana","Left","37","2","8","2","S","C","32"
"","","approach-retreat","181","1425431","0.0-181.0","","","3-3","4091","40","1","Testing","Stims/Figures/86-J-0-1.bmp","mamana","Down","40","2","9","2","S","C","33"
"","","approach-retreat","182","1431148","0.0-182.0","","","3-3","4208","37","1","Testing","Stims/Figures/87-C-20-4.bmp","pa:pa:ta","Right","37","2","10","2","P","C","34"
"","","approach-retreat","183","1437005","0.0-183.0","","","3-3","4346","40","1","Testing","Stims/Figures/85-C-20-2.bmp","pa:pa:ta","Up","40","2","11","2","P","C","35"
"","","approach-retreat","184","1442541","0.0-184.0","","","3-3","4026","39","1","Testing","Stims/Figures/86-C-30-1.bmp","pa:pa:ta","Left","39","2","12","2","P","C","36"
"","","approach-retreat","185","1449134","0.0-185.0","","","3-3","5086","38","1","Testing","Stims/Figures/144-J-10-3.bmp","mamana","Up","38","2","13","2","S","C","37"
"","","approach-retreat","186","1454690","0.0-186.0","","","3-3","4048","39","1","Testing","Stims/Figures/93-C-30-1.bmp","pa:pa:ta","Left","39","2","14","2","P","C","38"
"","","approach-retreat","187","1460588","0.0-187.0","","","3-3","4389","40","1","Testing","Stims/Figures/84-C-20-2.bmp","pa:pa:ta","Up","40","2","15","2","P","C","39"
"","","approach-retreat","188","1466060","0.0-188.0","","","3-3","3964","39","1","Testing","Stims/Figures/102-C-20-4.bmp","pa:pa:ta","Left","39","2","16","2","P","C","40"
"","","approach-retreat","189","1472821","0.0-189.0","","","3-3","5253","38","1","Testing","Stims/Figures/128-C-30-3.bmp","pa:pa:ta","Down","38","2","17","2","P","C","41"
"","","approach-retreat","190","1478394","0.0-190.0","","","3-3","4065","39","1","Testing","Stims/Figures/93-J-0-1.bmp","mamana","Right","39","2","18","2","S","C","42"
"","","approach-retreat","191","1483939","0.0-191.0","","","3-3","4040","38","1","Testing","Stims/Figures/118-C-20-2.bmp","pa:pa:ta","Down","38","2","19","2","P","C","43"
"","","approach-retreat","192","1492093","0.0-192.0","","","3-3","6643","38","1","Testing","Stims/Figures/87-J-10-4.bmp","mamana","Up","38","2","20","2","S","C","44"
"","","approach-retreat","193","1497702","0.0-193.0","","","3-3","4102","37","1","Testing","Stims/Figures/118-J-0-2.bmp","mamana","Left","37","2","21","2","S","C","45"
"","","approach-retreat","194","1504291","0.0-194.0","","","3-3","5083","40","1","Testing","Stims/Figures/57-J-0-1.bmp","mamana","Down","40","2","22","2","S","C","46"
"","","approach-retreat","195","1510011","0.0-195.0","","","3-3","4212","40","1","Testing","Stims/Figures/144-C-30-3.bmp","pa:pa:ta","Up","40","2","23","2","P","C","47"
"","","approach-retreat","196","1515799","0.0-196.0","","","3-3","4279","38","1","Testing","Stims/Figures/85-J-0-2.bmp","mamana","Up","38","2","24","2","S","C","48"
"","","approach-retreat","197","1521301","0.0-197.0","","","3-3","3992","38","1","Testing","Stims/Figures/144-C-30-3.bmp","pa:pa:ta","Down","38","3","1","2","P","C","49"
"","","approach-retreat","198","1526837","0.0-198.0","","","3-3","4029","39","1","Testing","Stims/Figures/93-J-0-1.bmp","mamana","Right","39","3","2","2","S","C","50"
"","","approach-retreat","199","1532505","0.0-199.0","","","3-3","4162","38","1","Testing","Stims/Figures/85-C-20-2.bmp","pa:pa:ta","Down","38","3","3","2","P","C","51"
"","","approach-retreat","200","1538150","0.0-200.0","","","3-3","4135","37","1","Testing","Stims/Figures/144-J-10-3.bmp","mamana","Left","37","3","4","2","S","C","52"
"","","approach-retreat","201","1543710","0.0-201.0","","","3-3","4044","39","1","Testing","Stims/Figures/84-C-20-2.bmp","pa:pa:ta","Left","39","3","5","2","P","C","53"
"","","approach-retreat","202","1549655","0.0-202.0","","","3-3","4438","38","1","Testing","Stims/Figures/19-J-10-4.bmp","mamana","Up","38","3","6","2","S","C","54"
"","","approach-retreat","203","1555672","0.0-203.0","","","3-3","4508","38","1","Testing","Stims/Figures/118-C-20-2.bmp","pa:pa:ta","Down","38","3","7","2","P","C","55"
"","","approach-retreat","204","1561644","0.0-204.0","","","3-3","4462","38","1","Testing","Stims/Figures/57-J-0-1.bmp","mamana","Up","38","3","8","2","S","C","56"
"","","approach-retreat","205","1567549","0.0-205.0","","","3-3","4397","38","1","Testing","Stims/Figures/86-J-0-1.bmp","mamana","Up","38","3","9","2","S","C","57"
"","","approach-retreat","206","1574030","0.0-206.0","","","3-3","4972","37","1","Testing","Stims/Figures/87-J-10-4.bmp","mamana","Left","37","3","10","2","S","C","58"
"","","approach-retreat","207","1579754","0.0-207.0","","","3-3","4217","40","1","Testing","Stims/Figures/85-J-0-2.bmp","mamana","Down","40","3","11","2","S","C","59"
"","","approach-retreat","208","1585435","0.0-208.0","","","3-3","4170","39","1","Testing","Stims/Figures/57-C-30-1.bmp","pa:pa:ta","Left","39","3","12","2","P","C","60"
"","","approach-retreat","209","1591080","0.0-209.0","","","3-3","4135","37","1","Testing","Stims/Figures/86-C-30-1.bmp","pa:pa:ta","Right","37","3","13","2","P","C","61"
"","","approach-retreat","210","1596916","0.0-210.0","","","3-3","4328","38","1","Testing","Stims/Figures/111-J-10-3.bmp","mamana","Up","38","3","14","2","S","C","62"
"","","approach-retreat","211","1602877","0.0-211.0","","","3-3","4455","39","1","Testing","Stims/Figures/118-J-0-2.bmp","mamana","Right","39","3","15","2","S","C","63"
"","","approach-retreat","212","1608577","0.0-212.0","","","3-3","4192","40","1","Testing","Stims/Figures/102-J-10-4.bmp","mamana","Down","40","3","16","2","S","C","64"
"","","approach-retreat","213","1614258","0.0-213.0","","","3-3","4169","39","1","Testing","Stims/Figures/93-C-30-1.bmp","pa:pa:ta","Left","39","3","17","2","P","C","65"
"","","approach-retreat","214","1620462","0.0-214.0","","","3-3","4697","37","1","Testing","Stims/Figures/102-C-20-4.bmp","pa:pa:ta","Right","37","3","18","2","P","C","66"
"","","approach-retreat","215","1626143","0.0-215.0","","","3-3","4172","38","1","Testing","Stims/Figures/128-C-30-3.bmp","pa:pa:ta","Down","38","3","19","2","P","C","67"
"","","approach-retreat","216","1631684","0.0-216.0","","","3-3","4031","39","1","Testing","Stims/Figures/128-J-10-3.bmp","mamana","Right","39","3","20","2","S","C","68"
"","","approach-retreat","217","1637428","0.0-217.0","","","3-3","4235","38","0","Testing","Stims/Figures/19-C-20-4.bmp","pa:pa:ta","Up","40","3","21","2","P","C","69"
"","","approach-retreat","218","1643041","0.0-218.0","","","3-3","4103","39","1","Testing","Stims/Figures/111-C-30-3.bmp","pa:pa:ta","Left","39","3","22","2","P","C","70"
"","","approach-retreat","219","1648618","0.0-219.0","","","3-3","4067","38","0","Testing","Stims/Figures/87-C-20-4.bmp","pa:pa:ta","Up","40","3","23","2","P","C","71"
"","","approach-retreat","220","1654114","0.0-220.0","","","3-3","3987","39","1","Testing","Stims/Figures/84-J-0-2.bmp","mamana","Right","39","3","24","2","S","C","72"
"","","approach-retreat","221","1660003","0.0-221.0","","","3-3","4379","39","0","Testing","Stims/Figures/111-J-10-3.bmp","mamana","Left","37","4","1","2","S","C","73"
"","","approach-retreat","222","1665695","0.0-222.0","","","3-3","4183","40","1","Testing","Stims/Figures/144-J-10-3.bmp","mamana","Down","40","4","2","2","S","C","74"
"","","approach-retreat","223","1671320","0.0-223.0","","","3-3","4114","37","1","Testing","Stims/Figures/111-C-30-3.bmp","pa:pa:ta","Right","37","4","3","2","P","C","75"
"","","approach-retreat","224","1678077","0.0-224.0","","","3-3","5250","39","0","Testing","Stims/Figures/84-C-20-2.bmp","pa:pa:ta","Right","37","4","4","2","P","C","76"
"","","approach-retreat","225","1683573","0.0-225.0","","","3-3","3990","38","1","Testing","Stims/Figures/86-J-0-1.bmp","mamana","Up","38","4","5","2","S","C","77"
"","","approach-retreat","226","1690181","0.0-226.0","","","3-3","5100","37","1","Testing","Stims/Figures/57-C-30-1.bmp","pa:pa:ta","Right","37","4","6","2","P","C","78"
"","","approach-retreat","227","1696314","0.0-227.0","","","3-3","4626","40","1","Testing","Stims/Figures/118-J-0-2.bmp","mamana","Down","40","4","7","2","S","C","79"
"","","approach-retreat","228","1701851","0.0-228.0","","","3-3","4026","39","1","Testing","Stims/Figures/19-J-10-4.bmp","mamana","Right","39","4","8","2","S","C","80"
"","","approach-retreat","229","1707596","0.0-229.0","","","3-3","4238","40","1","Testing","Stims/Figures/102-C-20-4.bmp","pa:pa:ta","Up","40","4","9","2","P","C","81"
"","","approach-retreat","230","1713160","0.0-230.0","","","3-3","4056","40","1","Testing","Stims/Figures/93-C-30-1.bmp","pa:pa:ta","Up","40","4","10","2","P","C","82"
"","","approach-retreat","231","1719133","0.0-231.0","","","3-3","4467","38","1","Testing","Stims/Figures/144-C-30-3.bmp","pa:pa:ta","Down","38","4","11","2","P","C","83"
"","","approach-retreat","232","1725691","0.0-232.0","","","3-3","5043","38","1","Testing","Stims/Figures/57-J-0-1.bmp","mamana","Up","38","4","12","2","S","C","84"
"","","approach-retreat","233","1731449","0.0-233.0","","","3-3","4236","37","1","Testing","Stims/Figures/87-J-10-4.bmp","mamana","Left","37","4","13","2","S","C","85"
"","","approach-retreat","234","1737480","0.0-234.0","","","3-3","4515","38","1","Testing","Stims/Figures/118-C-20-2.bmp","pa:pa:ta","Down","38","4","14","2","P","C","86"
"","","approach-retreat","235","1743184","0.0-235.0","","","3-3","4195","37","1","Testing","Stims/Figures/84-J-0-2.bmp","mamana","Left","37","4","15","2","S","C","87"
"","","approach-retreat","236","1749669","0.0-236.0","","","3-3","4975","40","1","Testing","Stims/Figures/87-C-20-4.bmp","pa:pa:ta","Up","40","4","16","2","P","C","88"
"","","approach-retreat","237","1755518","0.0-237.0","","","3-3","4342","40","1","Testing","Stims/Figures/128-J-10-3.bmp","mamana","Down","40","4","17","2","S","C","89"
"","","approach-retreat","238","1761386","0.0-238.0","","","3-3","4360","39","1","Testing","Stims/Figures/86-C-30-1.bmp","pa:pa:ta","Left","39","4","18","2","P","C","90"
"","","approach-retreat","239","1767151","0.0-239.0","","","3-3","4255","39","1","Testing","Stims/Figures/102-J-10-4.bmp","mamana","Right","39","4","19","2","S","C","91"
"","","approach-retreat","240","1773107","0.0-240.0","","","3-3","4448","39","1","Testing","Stims/Figures/85-C-20-2.bmp","pa:pa:ta","Left","39","4","20","2","P","C","92"
"","","approach-retreat","241","1778924","0.0-241.0","","","3-3","4308","39","1","Testing","Stims/Figures/85-J-0-2.bmp","mamana","Right","39","4","21","2","S","C","93"
"","","approach-retreat","242","1784518","0.0-242.0","","","3-3","4084","38","1","Testing","Stims/Figures/128-C-30-3.bmp","pa:pa:ta","Down","38","4","22","2","P","C","94"
"","","approach-retreat","243","1790279","0.0-243.0","","","3-3","4252","40","1","Testing","Stims/Figures/19-C-20-4.bmp","pa:pa:ta","Up","40","4","23","2","P","C","95"
"","","approach-retreat","244","1795964","0.0-244.0","","","3-3","4175","37","1","Testing","Stims/Figures/93-J-0-1.bmp","mamana","Left","37","4","24","2","S","C","96"
"33236","","survey-text","245","1829206","0.0-245.0","","{""Q0"":""PS180035""}","","","","","","","","","","","","","","",""
