\"rt\",\"key_press\",\"trial_type\",\"trial_index\",\"time_elapsed\",\"internal_node_id\",\"view_history\",\"responses\",\"Id\",\"Rt\",\"ResKeyCode\",\"ResCorr\",\"TrialType2\",\"Image\",\"Label\",\"Location\",\"CorrectResponse\",\"Block\",\"BlockTrial\",\"Condition\",\"LabelType\",\"Subcondition\",\"trialNum\"
\"57254\",\"32\",\"text\",\"0\",\"57260\",\"0.0-0.0-0.0\",\"\",\"\",\"\",\"\",\"\",\"\",\"\",\"\",\"\",\"\",\"\",\"\",\"\",\"\",\"\",\"\",\"\"
\"96124\",\"\",\"instructions\",\"1\",\"153386\",\"0.0-1.0\",\"[{\"\"page_index\"\":0,\"\"viewing_time\"\":96122}]\",\"\",\"\",\"\",\"\",\"\",\"\",\"\",\"\",\"\",\"\",\"\",\"\",\"\",\"\",\"\",\"\"
\"42244\",\"\",\"survey-multi-choice\",\"2\",\"195660\",\"0.0-2.0\",\"\",\"{\"\"Q0\"\":\"\"Da\"\",\"\"Q1\"\":\"\"Da\"\",\"\"Q2\"\":\"\"Da\"\",\"\"Q3\"\":\"\"Da\"\",\"\"Q4\"\":\"\"Da\"\",\"\"Q5\"\":\"\"Da\"\"}\",\"\",\"\",\"\",\"\",\"\",\"\",\"\",\"\",\"\",\"\",\"\",\"\",\"\",\"\",\"\"
\"\",\"\",\"bio\",\"3\",\"201880\",\"0.0-3.0\",\"\",\"{\"\"age\"\":\"\"20\"\",\"\"gender\"\":\"\"m\"\",\"\"specify\"\":\"\"\"\"}\",\"\",\"\",\"\",\"\",\"\",\"\",\"\",\"\",\"\",\"\",\"\",\"\",\"\",\"\",\"\"
\"\",\"\",\"approach-retreat\",\"4\",\"209170\",\"0.0-4.0\",\"\",\"\",\"2-5\",\"5780\",\"38\",\"1\",\"Training\",\"Stims/Figures/118-C-20-2.bmp\",\"pa:pa:ka\",\"Up\",\"38\",\"1\",\"1\",\"7\",\"P\",\"J\",\"1\"
\"\",\"\",\"approach-retreat\",\"5\",\"216622\",\"0.0-5.0\",\"\",\"\",\"2-5\",\"5944\",\"37\",\"1\",\"Training\",\"Stims/Figures/139-C-20-2.bmp\",\"tapa:ta\",\"Left\",\"37\",\"1\",\"2\",\"7\",\"P\",\"J\",\"2\"
\"\",\"\",\"approach-retreat\",\"6\",\"225340\",\"0.0-6.0\",\"\",\"\",\"2-5\",\"7210\",\"38\",\"0\",\"Training\",\"Stims/Figures/128-J-10-3.bmp\",\"na:mana\",\"Up\",\"40\",\"1\",\"3\",\"7\",\"S\",\"J\",\"3\"
\"\",\"\",\"approach-retreat\",\"7\",\"231826\",\"0.0-7.0\",\"\",\"\",\"2-5\",\"4980\",\"40\",\"0\",\"Training\",\"Stims/Figures/74-C-20-4.bmp\",\"ma:mala\",\"Up\",\"38\",\"1\",\"4\",\"7\",\"S\",\"J\",\"4\"
\"\",\"\",\"approach-retreat\",\"8\",\"240100\",\"0.0-8.0\",\"\",\"\",\"2-5\",\"6768\",\"38\",\"0\",\"Training\",\"Stims/Figures/118-J-0-2.bmp\",\"ta:ka:ta\",\"Up\",\"40\",\"1\",\"5\",\"7\",\"P\",\"J\",\"5\"
\"\",\"\",\"approach-retreat\",\"9\",\"248472\",\"0.0-9.0\",\"\",\"\",\"2-5\",\"6868\",\"37\",\"0\",\"Training\",\"Stims/Figures/86-C-30-1.bmp\",\"pa:pata\",\"Right\",\"39\",\"1\",\"6\",\"7\",\"P\",\"J\",\"6\"
\"\",\"\",\"approach-retreat\",\"10\",\"254250\",\"0.0-10.0\",\"\",\"\",\"2-5\",\"4270\",\"37\",\"0\",\"Training\",\"Stims/Figures/86-J-0-1.bmp\",\"pa:kata\",\"Left\",\"39\",\"1\",\"7\",\"7\",\"P\",\"J\",\"7\"
\"\",\"\",\"approach-retreat\",\"11\",\"260618\",\"0.0-11.0\",\"\",\"\",\"2-5\",\"4862\",\"39\",\"0\",\"Training\",\"Stims/Figures/93-J-0-1.bmp\",\"papa:ka\",\"Right\",\"37\",\"1\",\"8\",\"7\",\"P\",\"J\",\"8\"
\"\",\"\",\"approach-retreat\",\"12\",\"266710\",\"0.0-12.0\",\"\",\"\",\"2-5\",\"4586\",\"37\",\"0\",\"Training\",\"Stims/Figures/7-J-10-4.bmp\",\"malala\",\"Left\",\"39\",\"1\",\"9\",\"7\",\"S\",\"J\",\"9\"
\"\",\"\",\"approach-retreat\",\"13\",\"272488\",\"0.0-13.0\",\"\",\"\",\"2-5\",\"4272\",\"37\",\"1\",\"Training\",\"Stims/Figures/74-J-10-4.bmp\",\"mala:la\",\"Right\",\"37\",\"1\",\"10\",\"7\",\"S\",\"J\",\"10\"
\"\",\"\",\"approach-retreat\",\"14\",\"278552\",\"0.0-14.0\",\"\",\"\",\"2-5\",\"4556\",\"38\",\"0\",\"Training\",\"Stims/Figures/93-C-30-1.bmp\",\"pa:pa:ta\",\"Down\",\"40\",\"1\",\"11\",\"7\",\"P\",\"J\",\"11\"
\"\",\"\",\"approach-retreat\",\"15\",\"284550\",\"0.0-15.0\",\"\",\"\",\"2-5\",\"4492\",\"39\",\"0\",\"Training\",\"Stims/Figures/128-C-30-3.bmp\",\"mama:la\",\"Left\",\"37\",\"1\",\"12\",\"7\",\"S\",\"J\",\"12\"
\"\",\"\",\"approach-retreat\",\"16\",\"297060\",\"0.0-16.0\",\"\",\"\",\"2-5\",\"11004\",\"38\",\"0\",\"Training\",\"Stims/Figures/100-C-30-3.bmp\",\"na:mala\",\"Down\",\"40\",\"1\",\"13\",\"7\",\"S\",\"J\",\"13\"
\"\",\"\",\"approach-retreat\",\"17\",\"305722\",\"0.0-17.0\",\"\",\"\",\"2-5\",\"7156\",\"37\",\"0\",\"Training\",\"Stims/Figures/7-C-20-4.bmp\",\"ma:lana\",\"Right\",\"39\",\"1\",\"14\",\"7\",\"S\",\"J\",\"14\"
\"\",\"\",\"approach-retreat\",\"18\",\"314448\",\"0.0-18.0\",\"\",\"\",\"2-5\",\"7224\",\"38\",\"1\",\"Training\",\"Stims/Figures/100-J-10-3.bmp\",\"mamana\",\"Down\",\"38\",\"1\",\"15\",\"7\",\"S\",\"J\",\"15\"
\"\",\"\",\"approach-retreat\",\"19\",\"324068\",\"0.0-19.0\",\"\",\"\",\"2-5\",\"8116\",\"40\",\"0\",\"Training\",\"Stims/Figures/139-J-0-2.bmp\",\"paka:ta\",\"Down\",\"38\",\"1\",\"16\",\"7\",\"P\",\"J\",\"16\"
\"\",\"\",\"approach-retreat\",\"20\",\"329896\",\"0.0-20.0\",\"\",\"\",\"2-5\",\"4322\",\"39\",\"1\",\"Training\",\"Stims/Figures/7-J-10-4.bmp\",\"malala\",\"Left\",\"39\",\"2\",\"1\",\"7\",\"S\",\"J\",\"17\"
\"\",\"\",\"approach-retreat\",\"21\",\"335962\",\"0.0-21.0\",\"\",\"\",\"2-5\",\"4562\",\"40\",\"1\",\"Training\",\"Stims/Figures/86-J-0-1.bmp\",\"pa:kata\",\"Up\",\"40\",\"2\",\"2\",\"7\",\"P\",\"J\",\"18\"
\"\",\"\",\"approach-retreat\",\"22\",\"344002\",\"0.0-22.0\",\"\",\"\",\"2-5\",\"6534\",\"40\",\"0\",\"Training\",\"Stims/Figures/118-C-20-2.bmp\",\"pa:pa:ka\",\"Up\",\"38\",\"2\",\"3\",\"7\",\"P\",\"J\",\"19\"
\"\",\"\",\"approach-retreat\",\"23\",\"353242\",\"0.0-23.0\",\"\",\"\",\"2-5\",\"7736\",\"38\",\"1\",\"Training\",\"Stims/Figures/74-J-10-4.bmp\",\"mala:la\",\"Down\",\"38\",\"2\",\"4\",\"7\",\"S\",\"J\",\"20\"
\"\",\"\",\"approach-retreat\",\"24\",\"359088\",\"0.0-24.0\",\"\",\"\",\"2-5\",\"4336\",\"37\",\"1\",\"Training\",\"Stims/Figures/93-J-0-1.bmp\",\"papa:ka\",\"Right\",\"37\",\"2\",\"5\",\"7\",\"P\",\"J\",\"21\"
\"\",\"\",\"approach-retreat\",\"25\",\"366768\",\"0.0-25.0\",\"\",\"\",\"2-5\",\"6176\",\"38\",\"1\",\"Training\",\"Stims/Figures/118-J-0-2.bmp\",\"ta:ka:ta\",\"Down\",\"38\",\"2\",\"6\",\"7\",\"P\",\"J\",\"22\"
\"\",\"\",\"approach-retreat\",\"26\",\"376230\",\"0.0-26.0\",\"\",\"\",\"2-5\",\"7956\",\"39\",\"0\",\"Training\",\"Stims/Figures/7-C-20-4.bmp\",\"ma:lana\",\"Left\",\"37\",\"2\",\"7\",\"7\",\"S\",\"J\",\"23\"
\"\",\"\",\"approach-retreat\",\"27\",\"382418\",\"0.0-27.0\",\"\",\"\",\"2-5\",\"4684\",\"37\",\"0\",\"Training\",\"Stims/Figures/128-J-10-3.bmp\",\"na:mana\",\"Left\",\"39\",\"2\",\"8\",\"7\",\"S\",\"J\",\"24\"
\"\",\"\",\"approach-retreat\",\"28\",\"388350\",\"0.0-28.0\",\"\",\"\",\"2-5\",\"4430\",\"40\",\"0\",\"Training\",\"Stims/Figures/100-C-30-3.bmp\",\"na:mala\",\"Up\",\"38\",\"2\",\"9\",\"7\",\"S\",\"J\",\"25\"
\"\",\"\",\"approach-retreat\",\"29\",\"398440\",\"0.0-29.0\",\"\",\"\",\"2-5\",\"8584\",\"39\",\"0\",\"Training\",\"Stims/Figures/139-C-20-2.bmp\",\"tapa:ta\",\"Left\",\"37\",\"2\",\"10\",\"7\",\"P\",\"J\",\"26\"
\"\",\"\",\"approach-retreat\",\"30\",\"419624\",\"0.0-30.0\",\"\",\"\",\"2-5\",\"19680\",\"38\",\"0\",\"Training\",\"Stims/Figures/100-J-10-3.bmp\",\"mamana\",\"Up\",\"40\",\"2\",\"11\",\"7\",\"S\",\"J\",\"27\"
\"\",\"\",\"approach-retreat\",\"31\",\"426454\",\"0.0-31.0\",\"\",\"\",\"2-5\",\"5328\",\"39\",\"1\",\"Training\",\"Stims/Figures/86-C-30-1.bmp\",\"pa:pata\",\"Right\",\"39\",\"2\",\"12\",\"7\",\"P\",\"J\",\"28\"
\"\",\"\",\"approach-retreat\",\"32\",\"432884\",\"0.0-32.0\",\"\",\"\",\"2-5\",\"4924\",\"37\",\"1\",\"Training\",\"Stims/Figures/139-J-0-2.bmp\",\"paka:ta\",\"Right\",\"37\",\"2\",\"13\",\"7\",\"P\",\"J\",\"29\"
\"\",\"\",\"approach-retreat\",\"33\",\"444702\",\"0.0-33.0\",\"\",\"\",\"2-5\",\"10314\",\"40\",\"1\",\"Training\",\"Stims/Figures/74-C-20-4.bmp\",\"ma:mala\",\"Down\",\"40\",\"2\",\"14\",\"7\",\"S\",\"J\",\"30\"
\"\",\"\",\"approach-retreat\",\"34\",\"453216\",\"0.0-34.0\",\"\",\"\",\"2-5\",\"7010\",\"40\",\"1\",\"Training\",\"Stims/Figures/93-C-30-1.bmp\",\"pa:pa:ta\",\"Down\",\"40\",\"2\",\"15\",\"7\",\"P\",\"J\",\"31\"
\"\",\"\",\"approach-retreat\",\"35\",\"459570\",\"0.0-35.0\",\"\",\"\",\"2-5\",\"4850\",\"39\",\"1\",\"Training\",\"Stims/Figures/128-C-30-3.bmp\",\"mama:la\",\"Right\",\"39\",\"2\",\"16\",\"7\",\"S\",\"J\",\"32\"
\"\",\"\",\"approach-retreat\",\"36\",\"467256\",\"0.0-36.0\",\"\",\"\",\"2-5\",\"6180\",\"37\",\"0\",\"Training\",\"Stims/Figures/128-C-30-3.bmp\",\"mama:la\",\"Right\",\"39\",\"3\",\"1\",\"7\",\"S\",\"J\",\"33\"
\"\",\"\",\"approach-retreat\",\"37\",\"473148\",\"0.0-37.0\",\"\",\"\",\"2-5\",\"4382\",\"38\",\"1\",\"Training\",\"Stims/Figures/118-C-20-2.bmp\",\"pa:pa:ka\",\"Up\",\"38\",\"3\",\"2\",\"7\",\"P\",\"J\",\"34\"
\"\",\"\",\"approach-retreat\",\"38\",\"478938\",\"0.0-38.0\",\"\",\"\",\"2-5\",\"4284\",\"37\",\"1\",\"Training\",\"Stims/Figures/86-C-30-1.bmp\",\"pa:pata\",\"Left\",\"37\",\"3\",\"3\",\"7\",\"P\",\"J\",\"35\"
\"\",\"\",\"approach-retreat\",\"39\",\"484978\",\"0.0-39.0\",\"\",\"\",\"2-5\",\"4536\",\"39\",\"1\",\"Training\",\"Stims/Figures/139-J-0-2.bmp\",\"paka:ta\",\"Left\",\"39\",\"3\",\"4\",\"7\",\"P\",\"J\",\"36\"
\"\",\"\",\"approach-retreat\",\"40\",\"490936\",\"0.0-40.0\",\"\",\"\",\"2-5\",\"4456\",\"37\",\"1\",\"Training\",\"Stims/Figures/128-J-10-3.bmp\",\"na:mana\",\"Right\",\"37\",\"3\",\"5\",\"7\",\"S\",\"J\",\"37\"
\"\",\"\",\"approach-retreat\",\"41\",\"496654\",\"0.0-41.0\",\"\",\"\",\"2-5\",\"4212\",\"40\",\"1\",\"Training\",\"Stims/Figures/86-J-0-1.bmp\",\"pa:kata\",\"Up\",\"40\",\"3\",\"6\",\"7\",\"P\",\"J\",\"38\"
\"\",\"\",\"approach-retreat\",\"42\",\"502418\",\"0.0-42.0\",\"\",\"\",\"2-5\",\"4260\",\"39\",\"1\",\"Training\",\"Stims/Figures/74-J-10-4.bmp\",\"mala:la\",\"Left\",\"39\",\"3\",\"7\",\"7\",\"S\",\"J\",\"39\"
\"\",\"\",\"approach-retreat\",\"43\",\"508644\",\"0.0-43.0\",\"\",\"\",\"2-5\",\"4720\",\"38\",\"1\",\"Training\",\"Stims/Figures/118-J-0-2.bmp\",\"ta:ka:ta\",\"Down\",\"38\",\"3\",\"8\",\"7\",\"P\",\"J\",\"40\"
\"\",\"\",\"approach-retreat\",\"44\",\"514530\",\"0.0-44.0\",\"\",\"\",\"2-5\",\"4380\",\"39\",\"0\",\"Training\",\"Stims/Figures/93-J-0-1.bmp\",\"papa:ka\",\"Right\",\"37\",\"3\",\"9\",\"7\",\"P\",\"J\",\"41\"
\"\",\"\",\"approach-retreat\",\"45\",\"520526\",\"0.0-45.0\",\"\",\"\",\"2-5\",\"4494\",\"40\",\"1\",\"Training\",\"Stims/Figures/93-C-30-1.bmp\",\"pa:pa:ta\",\"Down\",\"40\",\"3\",\"10\",\"7\",\"P\",\"J\",\"42\"
\"\",\"\",\"approach-retreat\",\"46\",\"526282\",\"0.0-46.0\",\"\",\"\",\"2-5\",\"4250\",\"39\",\"1\",\"Training\",\"Stims/Figures/7-J-10-4.bmp\",\"malala\",\"Left\",\"39\",\"3\",\"11\",\"7\",\"S\",\"J\",\"43\"
\"\",\"\",\"approach-retreat\",\"47\",\"532180\",\"0.0-47.0\",\"\",\"\",\"2-5\",\"4394\",\"40\",\"0\",\"Training\",\"Stims/Figures/139-C-20-2.bmp\",\"tapa:ta\",\"Up\",\"38\",\"3\",\"12\",\"7\",\"P\",\"J\",\"44\"
\"\",\"\",\"approach-retreat\",\"48\",\"538546\",\"0.0-48.0\",\"\",\"\",\"2-5\",\"4862\",\"37\",\"1\",\"Training\",\"Stims/Figures/100-J-10-3.bmp\",\"mamana\",\"Right\",\"37\",\"3\",\"13\",\"7\",\"S\",\"J\",\"45\"
\"\",\"\",\"approach-retreat\",\"49\",\"544380\",\"0.0-49.0\",\"\",\"\",\"2-5\",\"4328\",\"38\",\"0\",\"Training\",\"Stims/Figures/7-C-20-4.bmp\",\"ma:lana\",\"Down\",\"40\",\"3\",\"14\",\"7\",\"S\",\"J\",\"46\"
\"\",\"\",\"approach-retreat\",\"50\",\"558408\",\"0.0-50.0\",\"\",\"\",\"2-5\",\"12524\",\"40\",\"0\",\"Training\",\"Stims/Figures/74-C-20-4.bmp\",\"ma:mala\",\"Up\",\"38\",\"3\",\"15\",\"7\",\"S\",\"J\",\"47\"
\"\",\"\",\"approach-retreat\",\"51\",\"565210\",\"0.0-51.0\",\"\",\"\",\"2-5\",\"5296\",\"38\",\"0\",\"Training\",\"Stims/Figures/100-C-30-3.bmp\",\"na:mala\",\"Down\",\"40\",\"3\",\"16\",\"7\",\"S\",\"J\",\"48\"
\"\",\"\",\"approach-retreat\",\"52\",\"575346\",\"0.0-52.0\",\"\",\"\",\"2-5\",\"8634\",\"39\",\"1\",\"Training\",\"Stims/Figures/118-C-20-2.bmp\",\"pa:pa:ka\",\"Right\",\"39\",\"4\",\"1\",\"7\",\"P\",\"J\",\"49\"
\"\",\"\",\"approach-retreat\",\"53\",\"581808\",\"0.0-53.0\",\"\",\"\",\"2-5\",\"4960\",\"40\",\"1\",\"Training\",\"Stims/Figures/86-C-30-1.bmp\",\"pa:pata\",\"Down\",\"40\",\"4\",\"2\",\"7\",\"P\",\"J\",\"50\"
\"\",\"\",\"approach-retreat\",\"54\",\"588784\",\"0.0-54.0\",\"\",\"\",\"2-5\",\"5470\",\"37\",\"1\",\"Training\",\"Stims/Figures/128-J-10-3.bmp\",\"na:mana\",\"Right\",\"37\",\"4\",\"3\",\"7\",\"S\",\"J\",\"51\"
\"\",\"\",\"approach-retreat\",\"55\",\"594582\",\"0.0-55.0\",\"\",\"\",\"2-5\",\"4292\",\"39\",\"0\",\"Training\",\"Stims/Figures/7-C-20-4.bmp\",\"ma:lana\",\"Left\",\"37\",\"4\",\"4\",\"7\",\"S\",\"J\",\"52\"
\"\",\"\",\"approach-retreat\",\"56\",\"601280\",\"0.0-56.0\",\"\",\"\",\"2-5\",\"5196\",\"37\",\"0\",\"Training\",\"Stims/Figures/74-C-20-4.bmp\",\"ma:mala\",\"Right\",\"39\",\"4\",\"5\",\"7\",\"S\",\"J\",\"53\"
\"\",\"\",\"approach-retreat\",\"57\",\"607930\",\"0.0-57.0\",\"\",\"\",\"2-5\",\"5148\",\"38\",\"1\",\"Training\",\"Stims/Figures/93-C-30-1.bmp\",\"pa:pa:ta\",\"Up\",\"38\",\"4\",\"6\",\"7\",\"P\",\"J\",\"54\"
\"\",\"\",\"approach-retreat\",\"58\",\"613706\",\"0.0-58.0\",\"\",\"\",\"2-5\",\"4272\",\"40\",\"0\",\"Training\",\"Stims/Figures/100-C-30-3.bmp\",\"na:mala\",\"Up\",\"38\",\"4\",\"7\",\"7\",\"S\",\"J\",\"55\"
\"\",\"\",\"approach-retreat\",\"59\",\"620372\",\"0.0-59.0\",\"\",\"\",\"2-5\",\"5164\",\"38\",\"0\",\"Training\",\"Stims/Figures/7-J-10-4.bmp\",\"malala\",\"Up\",\"40\",\"4\",\"8\",\"7\",\"S\",\"J\",\"56\"
\"\",\"\",\"approach-retreat\",\"60\",\"629860\",\"0.0-60.0\",\"\",\"\",\"2-5\",\"7984\",\"39\",\"1\",\"Training\",\"Stims/Figures/100-J-10-3.bmp\",\"mamana\",\"Left\",\"39\",\"4\",\"9\",\"7\",\"S\",\"J\",\"57\"
\"\",\"\",\"approach-retreat\",\"61\",\"636448\",\"0.0-61.0\",\"\",\"\",\"2-5\",\"5084\",\"38\",\"1\",\"Training\",\"Stims/Figures/139-J-0-2.bmp\",\"paka:ta\",\"Down\",\"38\",\"4\",\"10\",\"7\",\"P\",\"J\",\"58\"
\"\",\"\",\"approach-retreat\",\"62\",\"642302\",\"0.0-62.0\",\"\",\"\",\"2-5\",\"4348\",\"38\",\"0\",\"Training\",\"Stims/Figures/139-C-20-2.bmp\",\"tapa:ta\",\"Down\",\"40\",\"4\",\"11\",\"7\",\"P\",\"J\",\"59\"
\"\",\"\",\"approach-retreat\",\"63\",\"647926\",\"0.0-63.0\",\"\",\"\",\"2-5\",\"4120\",\"37\",\"1\",\"Training\",\"Stims/Figures/118-J-0-2.bmp\",\"ta:ka:ta\",\"Right\",\"37\",\"4\",\"12\",\"7\",\"P\",\"J\",\"60\"
\"\",\"\",\"approach-retreat\",\"64\",\"654308\",\"0.0-64.0\",\"\",\"\",\"2-5\",\"4878\",\"37\",\"1\",\"Training\",\"Stims/Figures/128-C-30-3.bmp\",\"mama:la\",\"Left\",\"37\",\"4\",\"13\",\"7\",\"S\",\"J\",\"61\"
\"\",\"\",\"approach-retreat\",\"65\",\"662102\",\"0.0-65.0\",\"\",\"\",\"2-5\",\"6290\",\"38\",\"1\",\"Training\",\"Stims/Figures/74-J-10-4.bmp\",\"mala:la\",\"Down\",\"38\",\"4\",\"14\",\"7\",\"S\",\"J\",\"62\"
\"\",\"\",\"approach-retreat\",\"66\",\"667888\",\"0.0-66.0\",\"\",\"\",\"2-5\",\"4282\",\"37\",\"0\",\"Training\",\"Stims/Figures/93-J-0-1.bmp\",\"papa:ka\",\"Left\",\"39\",\"4\",\"15\",\"7\",\"P\",\"J\",\"63\"
\"\",\"\",\"approach-retreat\",\"67\",\"676814\",\"0.0-67.0\",\"\",\"\",\"2-5\",\"7422\",\"38\",\"0\",\"Training\",\"Stims/Figures/86-J-0-1.bmp\",\"pa:kata\",\"Up\",\"40\",\"4\",\"16\",\"7\",\"P\",\"J\",\"64\"
\"\",\"\",\"approach-retreat\",\"68\",\"687318\",\"0.0-68.0\",\"\",\"\",\"2-5\",\"9000\",\"39\",\"0\",\"Training\",\"Stims/Figures/74-C-20-4.bmp\",\"ma:mala\",\"Left\",\"37\",\"5\",\"1\",\"7\",\"S\",\"J\",\"65\"
\"\",\"\",\"approach-retreat\",\"69\",\"696598\",\"0.0-69.0\",\"\",\"\",\"2-5\",\"7776\",\"37\",\"1\",\"Training\",\"Stims/Figures/86-C-30-1.bmp\",\"pa:pata\",\"Left\",\"37\",\"5\",\"2\",\"7\",\"P\",\"J\",\"66\"
\"\",\"\",\"approach-retreat\",\"70\",\"706982\",\"0.0-70.0\",\"\",\"\",\"2-5\",\"8880\",\"38\",\"1\",\"Training\",\"Stims/Figures/74-J-10-4.bmp\",\"mala:la\",\"Down\",\"38\",\"5\",\"3\",\"7\",\"S\",\"J\",\"67\"
\"\",\"\",\"approach-retreat\",\"71\",\"717792\",\"0.0-71.0\",\"\",\"\",\"2-5\",\"9304\",\"39\",\"1\",\"Training\",\"Stims/Figures/7-C-20-4.bmp\",\"ma:lana\",\"Right\",\"39\",\"5\",\"4\",\"7\",\"S\",\"J\",\"68\"
\"\",\"\",\"approach-retreat\",\"72\",\"728334\",\"0.0-72.0\",\"\",\"\",\"2-5\",\"9036\",\"38\",\"0\",\"Training\",\"Stims/Figures/128-C-30-3.bmp\",\"mama:la\",\"Down\",\"40\",\"5\",\"5\",\"7\",\"S\",\"J\",\"69\"
\"\",\"\",\"approach-retreat\",\"73\",\"734916\",\"0.0-73.0\",\"\",\"\",\"2-5\",\"5078\",\"40\",\"1\",\"Training\",\"Stims/Figures/7-J-10-4.bmp\",\"malala\",\"Up\",\"40\",\"5\",\"6\",\"7\",\"S\",\"J\",\"70\"
\"\",\"\",\"approach-retreat\",\"74\",\"740980\",\"0.0-74.0\",\"\",\"\",\"2-5\",\"4558\",\"38\",\"0\",\"Training\",\"Stims/Figures/93-J-0-1.bmp\",\"papa:ka\",\"Up\",\"40\",\"5\",\"7\",\"7\",\"P\",\"J\",\"71\"
\"\",\"\",\"approach-retreat\",\"75\",\"747864\",\"0.0-75.0\",\"\",\"\",\"2-5\",\"5382\",\"39\",\"0\",\"Training\",\"Stims/Figures/86-J-0-1.bmp\",\"pa:kata\",\"Right\",\"37\",\"5\",\"8\",\"7\",\"P\",\"J\",\"72\"
\"\",\"\",\"approach-retreat\",\"76\",\"757262\",\"0.0-76.0\",\"\",\"\",\"2-5\",\"7894\",\"37\",\"0\",\"Training\",\"Stims/Figures/118-C-20-2.bmp\",\"pa:pa:ka\",\"Right\",\"39\",\"5\",\"9\",\"7\",\"P\",\"J\",\"73\"
\"\",\"\",\"approach-retreat\",\"77\",\"763162\",\"0.0-77.0\",\"\",\"\",\"2-5\",\"4394\",\"38\",\"1\",\"Training\",\"Stims/Figures/128-J-10-3.bmp\",\"na:mana\",\"Down\",\"38\",\"5\",\"10\",\"7\",\"S\",\"J\",\"74\"
\"\",\"\",\"approach-retreat\",\"78\",\"771958\",\"0.0-78.0\",\"\",\"\",\"2-5\",\"7294\",\"37\",\"1\",\"Training\",\"Stims/Figures/139-C-20-2.bmp\",\"tapa:ta\",\"Left\",\"37\",\"5\",\"11\",\"7\",\"P\",\"J\",\"75\"
\"\",\"\",\"approach-retreat\",\"79\",\"780600\",\"0.0-79.0\",\"\",\"\",\"2-5\",\"7136\",\"40\",\"0\",\"Training\",\"Stims/Figures/93-C-30-1.bmp\",\"pa:pa:ta\",\"Up\",\"38\",\"5\",\"12\",\"7\",\"P\",\"J\",\"76\"
\"\",\"\",\"approach-retreat\",\"80\",\"787688\",\"0.0-80.0\",\"\",\"\",\"2-5\",\"5584\",\"37\",\"1\",\"Training\",\"Stims/Figures/100-C-30-3.bmp\",\"na:mala\",\"Left\",\"37\",\"5\",\"13\",\"7\",\"S\",\"J\",\"77\"
\"\",\"\",\"approach-retreat\",\"81\",\"797086\",\"0.0-81.0\",\"\",\"\",\"2-5\",\"7892\",\"38\",\"1\",\"Training\",\"Stims/Figures/100-J-10-3.bmp\",\"mamana\",\"Down\",\"38\",\"5\",\"14\",\"7\",\"S\",\"J\",\"78\"
\"\",\"\",\"approach-retreat\",\"82\",\"805338\",\"0.0-82.0\",\"\",\"\",\"2-5\",\"6748\",\"40\",\"1\",\"Training\",\"Stims/Figures/139-J-0-2.bmp\",\"paka:ta\",\"Up\",\"40\",\"5\",\"15\",\"7\",\"P\",\"J\",\"79\"
\"\",\"\",\"approach-retreat\",\"83\",\"811528\",\"0.0-83.0\",\"\",\"\",\"2-5\",\"4688\",\"39\",\"0\",\"Training\",\"Stims/Figures/118-J-0-2.bmp\",\"ta:ka:ta\",\"Right\",\"37\",\"5\",\"16\",\"7\",\"P\",\"J\",\"80\"
\"\",\"\",\"approach-retreat\",\"84\",\"818610\",\"0.0-84.0\",\"\",\"\",\"2-5\",\"5578\",\"40\",\"0\",\"Training\",\"Stims/Figures/100-J-10-3.bmp\",\"mamana\",\"Down\",\"38\",\"6\",\"1\",\"7\",\"S\",\"J\",\"81\"
\"\",\"\",\"approach-retreat\",\"85\",\"825572\",\"0.0-85.0\",\"\",\"\",\"2-5\",\"5458\",\"37\",\"1\",\"Training\",\"Stims/Figures/118-C-20-2.bmp\",\"pa:pa:ka\",\"Left\",\"37\",\"6\",\"2\",\"7\",\"P\",\"J\",\"82\"
\"\",\"\",\"approach-retreat\",\"86\",\"831846\",\"0.0-86.0\",\"\",\"\",\"2-5\",\"4772\",\"38\",\"1\",\"Training\",\"Stims/Figures/139-C-20-2.bmp\",\"tapa:ta\",\"Up\",\"38\",\"6\",\"3\",\"7\",\"P\",\"J\",\"83\"
\"\",\"\",\"approach-retreat\",\"87\",\"837822\",\"0.0-87.0\",\"\",\"\",\"2-5\",\"4472\",\"39\",\"0\",\"Training\",\"Stims/Figures/93-J-0-1.bmp\",\"papa:ka\",\"Right\",\"37\",\"6\",\"4\",\"7\",\"P\",\"J\",\"84\"
\"\",\"\",\"approach-retreat\",\"88\",\"844132\",\"0.0-88.0\",\"\",\"\",\"2-5\",\"4800\",\"37\",\"1\",\"Training\",\"Stims/Figures/93-C-30-1.bmp\",\"pa:pa:ta\",\"Left\",\"37\",\"6\",\"5\",\"7\",\"P\",\"J\",\"85\"
\"\",\"\",\"approach-retreat\",\"89\",\"851292\",\"0.0-89.0\",\"\",\"\",\"2-5\",\"5652\",\"40\",\"1\",\"Training\",\"Stims/Figures/7-C-20-4.bmp\",\"ma:lana\",\"Down\",\"40\",\"6\",\"6\",\"7\",\"S\",\"J\",\"86\"
\"\",\"\",\"approach-retreat\",\"90\",\"858302\",\"0.0-90.0\",\"\",\"\",\"2-5\",\"5508\",\"37\",\"1\",\"Training\",\"Stims/Figures/74-J-10-4.bmp\",\"mala:la\",\"Right\",\"37\",\"6\",\"7\",\"7\",\"S\",\"J\",\"87\"
\"\",\"\",\"approach-retreat\",\"91\",\"865020\",\"0.0-91.0\",\"\",\"\",\"2-5\",\"5212\",\"38\",\"1\",\"Training\",\"Stims/Figures/86-C-30-1.bmp\",\"pa:pata\",\"Up\",\"38\",\"6\",\"8\",\"7\",\"P\",\"J\",\"88\"
\"\",\"\",\"approach-retreat\",\"92\",\"872888\",\"0.0-92.0\",\"\",\"\",\"2-5\",\"6366\",\"40\",\"0\",\"Training\",\"Stims/Figures/74-C-20-4.bmp\",\"ma:mala\",\"Up\",\"38\",\"6\",\"9\",\"7\",\"S\",\"J\",\"89\"
\"\",\"\",\"approach-retreat\",\"93\",\"880924\",\"0.0-93.0\",\"\",\"\",\"2-5\",\"6530\",\"38\",\"1\",\"Training\",\"Stims/Figures/128-C-30-3.bmp\",\"mama:la\",\"Up\",\"38\",\"6\",\"10\",\"7\",\"S\",\"J\",\"90\"
\"\",\"\",\"approach-retreat\",\"94\",\"887338\",\"0.0-94.0\",\"\",\"\",\"2-5\",\"4910\",\"38\",\"1\",\"Training\",\"Stims/Figures/7-J-10-4.bmp\",\"malala\",\"Down\",\"38\",\"6\",\"11\",\"7\",\"S\",\"J\",\"91\"
\"\",\"\",\"approach-retreat\",\"95\",\"895152\",\"0.0-95.0\",\"\",\"\",\"2-5\",\"6310\",\"40\",\"0\",\"Training\",\"Stims/Figures/139-J-0-2.bmp\",\"paka:ta\",\"Down\",\"38\",\"6\",\"12\",\"7\",\"P\",\"J\",\"92\"
\"\",\"\",\"approach-retreat\",\"96\",\"902432\",\"0.0-96.0\",\"\",\"\",\"2-5\",\"5776\",\"37\",\"1\",\"Training\",\"Stims/Figures/86-J-0-1.bmp\",\"pa:kata\",\"Right\",\"37\",\"6\",\"13\",\"7\",\"P\",\"J\",\"93\"
\"\",\"\",\"approach-retreat\",\"97\",\"909624\",\"0.0-97.0\",\"\",\"\",\"2-5\",\"5688\",\"37\",\"1\",\"Training\",\"Stims/Figures/100-C-30-3.bmp\",\"na:mala\",\"Left\",\"37\",\"6\",\"14\",\"7\",\"S\",\"J\",\"94\"
\"\",\"\",\"approach-retreat\",\"98\",\"916422\",\"0.0-98.0\",\"\",\"\",\"2-5\",\"5294\",\"39\",\"1\",\"Training\",\"Stims/Figures/118-J-0-2.bmp\",\"ta:ka:ta\",\"Left\",\"39\",\"6\",\"15\",\"7\",\"P\",\"J\",\"95\"
\"\",\"\",\"approach-retreat\",\"99\",\"924518\",\"0.0-99.0\",\"\",\"\",\"2-5\",\"6590\",\"37\",\"1\",\"Training\",\"Stims/Figures/128-J-10-3.bmp\",\"na:mana\",\"Right\",\"37\",\"6\",\"16\",\"7\",\"S\",\"J\",\"96\"
\"\",\"\",\"approach-retreat\",\"100\",\"932850\",\"0.0-100.0\",\"\",\"\",\"2-5\",\"6828\",\"38\",\"1\",\"Training\",\"Stims/Figures/100-C-30-3.bmp\",\"na:mala\",\"Up\",\"38\",\"7\",\"1\",\"7\",\"S\",\"J\",\"97\"
\"\",\"\",\"approach-retreat\",\"101\",\"938596\",\"0.0-101.0\",\"\",\"\",\"2-5\",\"4238\",\"37\",\"1\",\"Training\",\"Stims/Figures/118-C-20-2.bmp\",\"pa:pa:ka\",\"Left\",\"37\",\"7\",\"2\",\"7\",\"P\",\"J\",\"98\"
\"\",\"\",\"approach-retreat\",\"102\",\"944496\",\"0.0-102.0\",\"\",\"\",\"2-5\",\"4396\",\"40\",\"1\",\"Training\",\"Stims/Figures/139-J-0-2.bmp\",\"paka:ta\",\"Up\",\"40\",\"7\",\"3\",\"7\",\"P\",\"J\",\"99\"
\"\",\"\",\"approach-retreat\",\"103\",\"951350\",\"0.0-103.0\",\"\",\"\",\"2-5\",\"5348\",\"40\",\"1\",\"Training\",\"Stims/Figures/93-C-30-1.bmp\",\"pa:pa:ta\",\"Down\",\"40\",\"7\",\"4\",\"7\",\"P\",\"J\",\"100\"
\"\",\"\",\"approach-retreat\",\"104\",\"958418\",\"0.0-104.0\",\"\",\"\",\"2-5\",\"5566\",\"39\",\"1\",\"Training\",\"Stims/Figures/118-J-0-2.bmp\",\"ta:ka:ta\",\"Left\",\"39\",\"7\",\"5\",\"7\",\"P\",\"J\",\"101\"
\"\",\"\",\"approach-retreat\",\"105\",\"965026\",\"0.0-105.0\",\"\",\"\",\"2-5\",\"5104\",\"38\",\"1\",\"Training\",\"Stims/Figures/128-J-10-3.bmp\",\"na:mana\",\"Down\",\"38\",\"7\",\"6\",\"7\",\"S\",\"J\",\"102\"
\"\",\"\",\"approach-retreat\",\"106\",\"970504\",\"0.0-106.0\",\"\",\"\",\"2-5\",\"3974\",\"40\",\"0\",\"Training\",\"Stims/Figures/93-J-0-1.bmp\",\"papa:ka\",\"Down\",\"38\",\"7\",\"7\",\"7\",\"P\",\"J\",\"103\"
\"\",\"\",\"approach-retreat\",\"107\",\"978282\",\"0.0-107.0\",\"\",\"\",\"2-5\",\"6274\",\"37\",\"1\",\"Training\",\"Stims/Figures/128-C-30-3.bmp\",\"mama:la\",\"Left\",\"37\",\"7\",\"8\",\"7\",\"S\",\"J\",\"104\"
\"\",\"\",\"approach-retreat\",\"108\",\"984554\",\"0.0-108.0\",\"\",\"\",\"2-5\",\"4768\",\"40\",\"0\",\"Training\",\"Stims/Figures/86-C-30-1.bmp\",\"pa:pata\",\"Up\",\"38\",\"7\",\"9\",\"7\",\"P\",\"J\",\"105\"
\"\",\"\",\"approach-retreat\",\"109\",\"994288\",\"0.0-109.0\",\"\",\"\",\"2-5\",\"8230\",\"37\",\"1\",\"Training\",\"Stims/Figures/7-J-10-4.bmp\",\"malala\",\"Right\",\"37\",\"7\",\"10\",\"7\",\"S\",\"J\",\"106\"
\"\",\"\",\"approach-retreat\",\"110\",\"1001710\",\"0.0-110.0\",\"\",\"\",\"2-5\",\"5918\",\"37\",\"0\",\"Training\",\"Stims/Figures/139-C-20-2.bmp\",\"tapa:ta\",\"Right\",\"39\",\"7\",\"11\",\"7\",\"P\",\"J\",\"107\"
\"\",\"\",\"approach-retreat\",\"111\",\"1011714\",\"0.0-111.0\",\"\",\"\",\"2-5\",\"8500\",\"39\",\"0\",\"Training\",\"Stims/Figures/100-J-10-3.bmp\",\"mamana\",\"Right\",\"37\",\"7\",\"12\",\"7\",\"S\",\"J\",\"108\"
\"\",\"\",\"approach-retreat\",\"112\",\"1018016\",\"0.0-112.0\",\"\",\"\",\"2-5\",\"4800\",\"39\",\"1\",\"Training\",\"Stims/Figures/74-C-20-4.bmp\",\"ma:mala\",\"Right\",\"39\",\"7\",\"13\",\"7\",\"S\",\"J\",\"109\"
\"\",\"\",\"approach-retreat\",\"113\",\"1024890\",\"0.0-113.0\",\"\",\"\",\"2-5\",\"5370\",\"37\",\"1\",\"Training\",\"Stims/Figures/7-C-20-4.bmp\",\"ma:lana\",\"Left\",\"37\",\"7\",\"14\",\"7\",\"S\",\"J\",\"110\"
\"\",\"\",\"approach-retreat\",\"114\",\"1031682\",\"0.0-114.0\",\"\",\"\",\"2-5\",\"5290\",\"40\",\"1\",\"Training\",\"Stims/Figures/74-J-10-4.bmp\",\"mala:la\",\"Up\",\"40\",\"7\",\"15\",\"7\",\"S\",\"J\",\"111\"
\"\",\"\",\"approach-retreat\",\"115\",\"1039198\",\"0.0-115.0\",\"\",\"\",\"2-5\",\"6010\",\"38\",\"1\",\"Training\",\"Stims/Figures/86-J-0-1.bmp\",\"pa:kata\",\"Down\",\"38\",\"7\",\"16\",\"7\",\"P\",\"J\",\"112\"
\"\",\"\",\"approach-retreat\",\"116\",\"1046126\",\"0.0-116.0\",\"\",\"\",\"2-5\",\"5424\",\"39\",\"0\",\"Training\",\"Stims/Figures/139-C-20-2.bmp\",\"tapa:ta\",\"Left\",\"37\",\"8\",\"1\",\"7\",\"P\",\"J\",\"113\"
\"\",\"\",\"approach-retreat\",\"117\",\"1056952\",\"0.0-117.0\",\"\",\"\",\"2-5\",\"9324\",\"38\",\"1\",\"Training\",\"Stims/Figures/100-J-10-3.bmp\",\"mamana\",\"Down\",\"38\",\"8\",\"2\",\"7\",\"S\",\"J\",\"114\"
\"\",\"\",\"approach-retreat\",\"118\",\"1064360\",\"0.0-118.0\",\"\",\"\",\"2-5\",\"5904\",\"39\",\"1\",\"Training\",\"Stims/Figures/86-J-0-1.bmp\",\"pa:kata\",\"Left\",\"39\",\"8\",\"3\",\"7\",\"P\",\"J\",\"115\"
\"\",\"\",\"approach-retreat\",\"119\",\"1071792\",\"0.0-119.0\",\"\",\"\",\"2-5\",\"5928\",\"40\",\"0\",\"Training\",\"Stims/Figures/93-J-0-1.bmp\",\"papa:ka\",\"Down\",\"38\",\"8\",\"4\",\"7\",\"P\",\"J\",\"116\"
\"\",\"\",\"approach-retreat\",\"120\",\"1080010\",\"0.0-120.0\",\"\",\"\",\"2-5\",\"6714\",\"40\",\"1\",\"Training\",\"Stims/Figures/74-J-10-4.bmp\",\"mala:la\",\"Up\",\"40\",\"8\",\"5\",\"7\",\"S\",\"J\",\"117\"
\"\",\"\",\"approach-retreat\",\"121\",\"1089952\",\"0.0-121.0\",\"\",\"\",\"2-5\",\"8440\",\"37\",\"1\",\"Training\",\"Stims/Figures/118-J-0-2.bmp\",\"ta:ka:ta\",\"Right\",\"37\",\"8\",\"6\",\"7\",\"P\",\"J\",\"118\"
\"\",\"\",\"approach-retreat\",\"122\",\"1096638\",\"0.0-122.0\",\"\",\"\",\"2-5\",\"5180\",\"38\",\"1\",\"Training\",\"Stims/Figures/7-J-10-4.bmp\",\"malala\",\"Down\",\"38\",\"8\",\"7\",\"7\",\"S\",\"J\",\"119\"
\"\",\"\",\"approach-retreat\",\"123\",\"1105938\",\"0.0-123.0\",\"\",\"\",\"2-5\",\"7796\",\"40\",\"0\",\"Training\",\"Stims/Figures/128-C-30-3.bmp\",\"mama:la\",\"Up\",\"38\",\"8\",\"8\",\"7\",\"S\",\"J\",\"120\"
\"\",\"\",\"approach-retreat\",\"124\",\"1113238\",\"0.0-124.0\",\"\",\"\",\"2-5\",\"5796\",\"37\",\"1\",\"Training\",\"Stims/Figures/139-J-0-2.bmp\",\"paka:ta\",\"Right\",\"37\",\"8\",\"9\",\"7\",\"P\",\"J\",\"121\"
\"\",\"\",\"approach-retreat\",\"125\",\"1124450\",\"0.0-125.0\",\"\",\"\",\"2-5\",\"9708\",\"37\",\"1\",\"Training\",\"Stims/Figures/93-C-30-1.bmp\",\"pa:pa:ta\",\"Left\",\"37\",\"8\",\"10\",\"7\",\"P\",\"J\",\"122\"
\"\",\"\",\"approach-retreat\",\"126\",\"1137108\",\"0.0-126.0\",\"\",\"\",\"2-5\",\"11152\",\"37\",\"1\",\"Training\",\"Stims/Figures/128-J-10-3.bmp\",\"na:mana\",\"Right\",\"37\",\"8\",\"11\",\"7\",\"S\",\"J\",\"123\"
\"\",\"\",\"approach-retreat\",\"127\",\"1143456\",\"0.0-127.0\",\"\",\"\",\"2-5\",\"4844\",\"38\",\"1\",\"Training\",\"Stims/Figures/118-C-20-2.bmp\",\"pa:pa:ka\",\"Up\",\"38\",\"8\",\"12\",\"7\",\"P\",\"J\",\"124\"
\"\",\"\",\"approach-retreat\",\"128\",\"1150982\",\"0.0-128.0\",\"\",\"\",\"2-5\",\"6022\",\"37\",\"1\",\"Training\",\"Stims/Figures/7-C-20-4.bmp\",\"ma:lana\",\"Left\",\"37\",\"8\",\"13\",\"7\",\"S\",\"J\",\"125\"
\"\",\"\",\"approach-retreat\",\"129\",\"1158666\",\"0.0-129.0\",\"\",\"\",\"2-5\",\"6180\",\"40\",\"1\",\"Training\",\"Stims/Figures/86-C-30-1.bmp\",\"pa:pata\",\"Down\",\"40\",\"8\",\"14\",\"7\",\"P\",\"J\",\"126\"
\"\",\"\",\"approach-retreat\",\"130\",\"1165474\",\"0.0-130.0\",\"\",\"\",\"2-5\",\"5304\",\"40\",\"0\",\"Training\",\"Stims/Figures/74-C-20-4.bmp\",\"ma:mala\",\"Up\",\"38\",\"8\",\"15\",\"7\",\"S\",\"J\",\"127\"
\"\",\"\",\"approach-retreat\",\"131\",\"1175020\",\"0.0-131.0\",\"\",\"\",\"2-5\",\"8042\",\"39\",\"1\",\"Training\",\"Stims/Figures/100-C-30-3.bmp\",\"na:mala\",\"Right\",\"39\",\"8\",\"16\",\"7\",\"S\",\"J\",\"128\"
\"\",\"\",\"approach-retreat\",\"132\",\"1184698\",\"0.0-132.0\",\"\",\"\",\"2-5\",\"8174\",\"38\",\"1\",\"Training\",\"Stims/Figures/118-J-0-2.bmp\",\"ta:ka:ta\",\"Down\",\"38\",\"9\",\"1\",\"7\",\"P\",\"J\",\"129\"
\"\",\"\",\"approach-retreat\",\"133\",\"1193396\",\"0.0-133.0\",\"\",\"\",\"2-5\",\"7196\",\"39\",\"1\",\"Training\",\"Stims/Figures/74-C-20-4.bmp\",\"ma:mala\",\"Right\",\"39\",\"9\",\"2\",\"7\",\"S\",\"J\",\"130\"
\"\",\"\",\"approach-retreat\",\"134\",\"1202652\",\"0.0-134.0\",\"\",\"\",\"2-5\",\"7750\",\"39\",\"1\",\"Training\",\"Stims/Figures/86-J-0-1.bmp\",\"pa:kata\",\"Left\",\"39\",\"9\",\"3\",\"7\",\"P\",\"J\",\"131\"
\"\",\"\",\"approach-retreat\",\"135\",\"1211844\",\"0.0-135.0\",\"\",\"\",\"2-5\",\"7686\",\"37\",\"1\",\"Training\",\"Stims/Figures/139-J-0-2.bmp\",\"paka:ta\",\"Right\",\"37\",\"9\",\"4\",\"7\",\"P\",\"J\",\"132\"
\"\",\"\",\"approach-retreat\",\"136\",\"1217706\",\"0.0-136.0\",\"\",\"\",\"2-5\",\"4360\",\"37\",\"1\",\"Training\",\"Stims/Figures/139-C-20-2.bmp\",\"tapa:ta\",\"Left\",\"37\",\"9\",\"5\",\"7\",\"P\",\"J\",\"133\"
\"\",\"\",\"approach-retreat\",\"137\",\"1227072\",\"0.0-137.0\",\"\",\"\",\"2-5\",\"7862\",\"40\",\"0\",\"Training\",\"Stims/Figures/100-J-10-3.bmp\",\"mamana\",\"Down\",\"38\",\"9\",\"6\",\"7\",\"S\",\"J\",\"134\"
\"\",\"\",\"approach-retreat\",\"138\",\"1235386\",\"0.0-138.0\",\"\",\"\",\"2-5\",\"6812\",\"38\",\"1\",\"Training\",\"Stims/Figures/93-C-30-1.bmp\",\"pa:pa:ta\",\"Up\",\"38\",\"9\",\"7\",\"7\",\"P\",\"J\",\"135\"
\"\",\"\",\"approach-retreat\",\"139\",\"1242314\",\"0.0-139.0\",\"\",\"\",\"2-5\",\"5420\",\"38\",\"1\",\"Training\",\"Stims/Figures/74-J-10-4.bmp\",\"mala:la\",\"Down\",\"38\",\"9\",\"8\",\"7\",\"S\",\"J\",\"136\"
\"\",\"\",\"approach-retreat\",\"140\",\"1249076\",\"0.0-140.0\",\"\",\"\",\"2-5\",\"5254\",\"38\",\"1\",\"Training\",\"Stims/Figures/86-C-30-1.bmp\",\"pa:pata\",\"Up\",\"38\",\"9\",\"9\",\"7\",\"P\",\"J\",\"137\"
\"\",\"\",\"approach-retreat\",\"141\",\"1257580\",\"0.0-141.0\",\"\",\"\",\"2-5\",\"7002\",\"38\",\"1\",\"Training\",\"Stims/Figures/128-C-30-3.bmp\",\"mama:la\",\"Up\",\"38\",\"9\",\"10\",\"7\",\"S\",\"J\",\"138\"
\"\",\"\",\"approach-retreat\",\"142\",\"1264576\",\"0.0-142.0\",\"\",\"\",\"2-5\",\"5490\",\"39\",\"1\",\"Training\",\"Stims/Figures/118-C-20-2.bmp\",\"pa:pa:ka\",\"Right\",\"39\",\"9\",\"11\",\"7\",\"P\",\"J\",\"139\"
\"\",\"\",\"approach-retreat\",\"143\",\"1271602\",\"0.0-143.0\",\"\",\"\",\"2-5\",\"5524\",\"39\",\"1\",\"Training\",\"Stims/Figures/128-J-10-3.bmp\",\"na:mana\",\"Left\",\"39\",\"9\",\"12\",\"7\",\"S\",\"J\",\"140\"
\"\",\"\",\"approach-retreat\",\"144\",\"1277706\",\"0.0-144.0\",\"\",\"\",\"2-5\",\"4600\",\"40\",\"1\",\"Training\",\"Stims/Figures/7-J-10-4.bmp\",\"malala\",\"Up\",\"40\",\"9\",\"13\",\"7\",\"S\",\"J\",\"141\"
\"\",\"\",\"approach-retreat\",\"145\",\"1286402\",\"0.0-145.0\",\"\",\"\",\"2-5\",\"7190\",\"37\",\"1\",\"Training\",\"Stims/Figures/7-C-20-4.bmp\",\"ma:lana\",\"Left\",\"37\",\"9\",\"14\",\"7\",\"S\",\"J\",\"142\"
\"\",\"\",\"approach-retreat\",\"146\",\"1293312\",\"0.0-146.0\",\"\",\"\",\"2-5\",\"5406\",\"39\",\"0\",\"Training\",\"Stims/Figures/93-J-0-1.bmp\",\"papa:ka\",\"Right\",\"37\",\"9\",\"15\",\"7\",\"P\",\"J\",\"143\"
\"\",\"\",\"approach-retreat\",\"147\",\"1300940\",\"0.0-147.0\",\"\",\"\",\"2-5\",\"6126\",\"40\",\"1\",\"Training\",\"Stims/Figures/100-C-30-3.bmp\",\"na:mala\",\"Down\",\"40\",\"9\",\"16\",\"7\",\"S\",\"J\",\"144\"
\"234820\",\"\",\"instructions\",\"148\",\"1535762\",\"0.0-148.0\",\"[{\"\"page_index\"\":0,\"\"viewing_time\"\":234820}]\",\"\",\"\",\"\",\"\",\"\",\"\",\"\",\"\",\"\",\"\",\"\",\"\",\"\",\"\",\"\",\"\"
\"\",\"\",\"approach-retreat\",\"149\",\"1542754\",\"0.0-149.0\",\"\",\"\",\"2-5\",\"5482\",\"37\",\"0\",\"Testing\",\"Stims/Figures/44-J-10-3.bmp\",\"na:lana\",\"Left\",\"39\",\"1\",\"1\",\"7\",\"S\",\"J\",\"1\"
\"\",\"\",\"approach-retreat\",\"150\",\"1550154\",\"0.0-150.0\",\"\",\"\",\"2-5\",\"5896\",\"37\",\"0\",\"Testing\",\"Stims/Figures/7-C-20-4.bmp\",\"ma:lana\",\"Right\",\"39\",\"1\",\"2\",\"7\",\"S\",\"J\",\"2\"
\"\",\"\",\"approach-retreat\",\"151\",\"1557942\",\"0.0-151.0\",\"\",\"\",\"2-5\",\"6282\",\"37\",\"0\",\"Testing\",\"Stims/Figures/44-C-30-3.bmp\",\"na:la:la\",\"Right\",\"39\",\"1\",\"3\",\"7\",\"S\",\"J\",\"3\"
\"\",\"\",\"approach-retreat\",\"152\",\"1564966\",\"0.0-152.0\",\"\",\"\",\"2-5\",\"5520\",\"37\",\"1\",\"Testing\",\"Stims/Figures/71-J-0-1.bmp\",\"pa:kaka\",\"Right\",\"37\",\"1\",\"4\",\"7\",\"P\",\"J\",\"4\"
\"\",\"\",\"approach-retreat\",\"153\",\"1572316\",\"0.0-153.0\",\"\",\"\",\"2-5\",\"5846\",\"38\",\"1\",\"Testing\",\"Stims/Figures/86-C-30-1.bmp\",\"pa:pata\",\"Up\",\"38\",\"1\",\"5\",\"7\",\"P\",\"J\",\"5\"
\"\",\"\",\"approach-retreat\",\"154\",\"1579174\",\"0.0-154.0\",\"\",\"\",\"2-5\",\"5352\",\"39\",\"1\",\"Testing\",\"Stims/Figures/71-C-30-1.bmp\",\"ta:paka\",\"Right\",\"39\",\"1\",\"6\",\"7\",\"P\",\"J\",\"6\"
\"\",\"\",\"approach-retreat\",\"155\",\"1585068\",\"0.0-155.0\",\"\",\"\",\"2-5\",\"4392\",\"39\",\"1\",\"Testing\",\"Stims/Figures/86-J-0-1.bmp\",\"pa:kata\",\"Left\",\"39\",\"1\",\"7\",\"7\",\"P\",\"J\",\"7\"
\"\",\"\",\"approach-retreat\",\"156\",\"1594472\",\"0.0-156.0\",\"\",\"\",\"2-5\",\"7898\",\"40\",\"1\",\"Testing\",\"Stims/Figures/118-C-20-2.bmp\",\"pa:pa:ka\",\"Down\",\"40\",\"1\",\"8\",\"7\",\"P\",\"J\",\"8\"
\"\",\"\",\"approach-retreat\",\"157\",\"1600076\",\"0.0-157.0\",\"\",\"\",\"2-5\",\"4100\",\"40\",\"0\",\"Testing\",\"Stims/Figures/87-J-10-4.bmp\",\"mamala\",\"Down\",\"38\",\"1\",\"9\",\"7\",\"S\",\"J\",\"9\"
\"\",\"\",\"approach-retreat\",\"158\",\"1605714\",\"0.0-158.0\",\"\",\"\",\"2-5\",\"4136\",\"40\",\"0\",\"Testing\",\"Stims/Figures/7-J-10-4.bmp\",\"malala\",\"Down\",\"38\",\"1\",\"10\",\"7\",\"S\",\"J\",\"10\"
\"\",\"\",\"approach-retreat\",\"159\",\"1611372\",\"0.0-159.0\",\"\",\"\",\"2-5\",\"4154\",\"40\",\"0\",\"Testing\",\"Stims/Figures/100-C-30-3.bmp\",\"na:mala\",\"Up\",\"38\",\"1\",\"11\",\"7\",\"S\",\"J\",\"11\"
\"\",\"\",\"approach-retreat\",\"160\",\"1618038\",\"0.0-160.0\",\"\",\"\",\"2-5\",\"5160\",\"39\",\"0\",\"Testing\",\"Stims/Figures/128-J-10-3.bmp\",\"na:mana\",\"Right\",\"37\",\"1\",\"12\",\"7\",\"S\",\"J\",\"12\"
\"\",\"\",\"approach-retreat\",\"161\",\"1623738\",\"0.0-161.0\",\"\",\"\",\"2-5\",\"4194\",\"38\",\"1\",\"Testing\",\"Stims/Figures/94-J-0-2.bmp\",\"ta:pa:ka\",\"Down\",\"38\",\"1\",\"13\",\"7\",\"P\",\"J\",\"13\"
\"\",\"\",\"approach-retreat\",\"162\",\"1630750\",\"0.0-162.0\",\"\",\"\",\"2-5\",\"5510\",\"39\",\"1\",\"Testing\",\"Stims/Figures/139-C-20-2.bmp\",\"tapa:ta\",\"Right\",\"39\",\"1\",\"14\",\"7\",\"P\",\"J\",\"14\"
\"\",\"\",\"approach-retreat\",\"163\",\"1638406\",\"0.0-163.0\",\"\",\"\",\"2-5\",\"6150\",\"37\",\"1\",\"Testing\",\"Stims/Figures/87-C-20-4.bmp\",\"namala\",\"Left\",\"37\",\"1\",\"15\",\"7\",\"S\",\"J\",\"15\"
\"\",\"\",\"approach-retreat\",\"164\",\"1643956\",\"0.0-164.0\",\"\",\"\",\"2-5\",\"4046\",\"39\",\"1\",\"Testing\",\"Stims/Figures/118-J-0-2.bmp\",\"ta:ka:ta\",\"Left\",\"39\",\"1\",\"16\",\"7\",\"P\",\"J\",\"16\"
\"\",\"\",\"approach-retreat\",\"165\",\"1650124\",\"0.0-165.0\",\"\",\"\",\"2-5\",\"4662\",\"40\",\"1\",\"Testing\",\"Stims/Figures/74-C-20-4.bmp\",\"ma:mala\",\"Down\",\"40\",\"1\",\"17\",\"7\",\"S\",\"J\",\"17\"
\"\",\"\",\"approach-retreat\",\"166\",\"1657170\",\"0.0-166.0\",\"\",\"\",\"2-5\",\"5542\",\"40\",\"1\",\"Testing\",\"Stims/Figures/93-J-0-1.bmp\",\"papa:ka\",\"Up\",\"40\",\"1\",\"18\",\"7\",\"P\",\"J\",\"18\"
\"\",\"\",\"approach-retreat\",\"167\",\"1663418\",\"0.0-167.0\",\"\",\"\",\"2-5\",\"4742\",\"40\",\"1\",\"Testing\",\"Stims/Figures/139-J-0-2.bmp\",\"paka:ta\",\"Up\",\"40\",\"1\",\"19\",\"7\",\"P\",\"J\",\"19\"
\"\",\"\",\"approach-retreat\",\"168\",\"1669192\",\"0.0-168.0\",\"\",\"\",\"2-5\",\"4270\",\"38\",\"1\",\"Testing\",\"Stims/Figures/94-C-20-2.bmp\",\"ta:kaka\",\"Up\",\"38\",\"1\",\"20\",\"7\",\"P\",\"J\",\"20\"
\"\",\"\",\"approach-retreat\",\"169\",\"1674966\",\"0.0-169.0\",\"\",\"\",\"2-5\",\"4268\",\"40\",\"1\",\"Testing\",\"Stims/Figures/93-C-30-1.bmp\",\"pa:pa:ta\",\"Down\",\"40\",\"1\",\"21\",\"7\",\"P\",\"J\",\"21\"
\"\",\"\",\"approach-retreat\",\"170\",\"1681210\",\"0.0-170.0\",\"\",\"\",\"2-5\",\"4742\",\"39\",\"1\",\"Testing\",\"Stims/Figures/100-J-10-3.bmp\",\"mamana\",\"Left\",\"39\",\"1\",\"22\",\"7\",\"S\",\"J\",\"22\"
\"\",\"\",\"approach-retreat\",\"171\",\"1687632\",\"0.0-171.0\",\"\",\"\",\"2-5\",\"4918\",\"39\",\"1\",\"Testing\",\"Stims/Figures/74-J-10-4.bmp\",\"mala:la\",\"Left\",\"39\",\"1\",\"23\",\"7\",\"S\",\"J\",\"23\"
\"\",\"\",\"approach-retreat\",\"172\",\"1693350\",\"0.0-172.0\",\"\",\"\",\"2-5\",\"4212\",\"38\",\"1\",\"Testing\",\"Stims/Figures/128-C-30-3.bmp\",\"mama:la\",\"Up\",\"38\",\"1\",\"24\",\"7\",\"S\",\"J\",\"24\"
\"\",\"\",\"approach-retreat\",\"173\",\"1699170\",\"0.0-173.0\",\"\",\"\",\"2-5\",\"4316\",\"39\",\"1\",\"Testing\",\"Stims/Figures/128-C-30-3.bmp\",\"mama:la\",\"Right\",\"39\",\"2\",\"1\",\"7\",\"S\",\"J\",\"25\"
\"\",\"\",\"approach-retreat\",\"174\",\"1706118\",\"0.0-174.0\",\"\",\"\",\"2-5\",\"5444\",\"37\",\"0\",\"Testing\",\"Stims/Figures/87-J-10-4.bmp\",\"mamala\",\"Left\",\"39\",\"2\",\"2\",\"7\",\"S\",\"J\",\"26\"
\"\",\"\",\"approach-retreat\",\"175\",\"1712426\",\"0.0-175.0\",\"\",\"\",\"2-5\",\"4806\",\"38\",\"1\",\"Testing\",\"Stims/Figures/139-J-0-2.bmp\",\"paka:ta\",\"Down\",\"38\",\"2\",\"3\",\"7\",\"P\",\"J\",\"27\"
\"\",\"\",\"approach-retreat\",\"176\",\"1718820\",\"0.0-176.0\",\"\",\"\",\"2-5\",\"4892\",\"39\",\"1\",\"Testing\",\"Stims/Figures/71-J-0-1.bmp\",\"pa:kaka\",\"Left\",\"39\",\"2\",\"4\",\"7\",\"P\",\"J\",\"28\"
\"\",\"\",\"approach-retreat\",\"177\",\"1724632\",\"0.0-177.0\",\"\",\"\",\"2-5\",\"4308\",\"38\",\"1\",\"Testing\",\"Stims/Figures/7-C-20-4.bmp\",\"ma:lana\",\"Up\",\"38\",\"2\",\"5\",\"7\",\"S\",\"J\",\"29\"
\"\",\"\",\"approach-retreat\",\"178\",\"1731164\",\"0.0-178.0\",\"\",\"\",\"2-5\",\"5030\",\"38\",\"0\",\"Testing\",\"Stims/Figures/94-C-20-2.bmp\",\"ta:kaka\",\"Down\",\"40\",\"2\",\"6\",\"7\",\"P\",\"J\",\"30\"
\"\",\"\",\"approach-retreat\",\"179\",\"1739504\",\"0.0-179.0\",\"\",\"\",\"2-5\",\"6836\",\"39\",\"0\",\"Testing\",\"Stims/Figures/44-J-10-3.bmp\",\"na:lana\",\"Right\",\"37\",\"2\",\"7\",\"7\",\"S\",\"J\",\"31\"
\"\",\"\",\"approach-retreat\",\"180\",\"1745572\",\"0.0-180.0\",\"\",\"\",\"2-5\",\"4564\",\"38\",\"1\",\"Testing\",\"Stims/Figures/86-J-0-1.bmp\",\"pa:kata\",\"Down\",\"38\",\"2\",\"8\",\"7\",\"P\",\"J\",\"32\"
\"\",\"\",\"approach-retreat\",\"181\",\"1751348\",\"0.0-181.0\",\"\",\"\",\"2-5\",\"4274\",\"39\",\"1\",\"Testing\",\"Stims/Figures/71-C-30-1.bmp\",\"ta:paka\",\"Right\",\"39\",\"2\",\"9\",\"7\",\"P\",\"J\",\"33\"
\"\",\"\",\"approach-retreat\",\"182\",\"1757082\",\"0.0-182.0\",\"\",\"\",\"2-5\",\"4228\",\"37\",\"0\",\"Testing\",\"Stims/Figures/100-J-10-3.bmp\",\"mamana\",\"Left\",\"39\",\"2\",\"10\",\"7\",\"S\",\"J\",\"34\"
\"\",\"\",\"approach-retreat\",\"183\",\"1764044\",\"0.0-183.0\",\"\",\"\",\"2-5\",\"5458\",\"39\",\"1\",\"Testing\",\"Stims/Figures/118-J-0-2.bmp\",\"ta:ka:ta\",\"Left\",\"39\",\"2\",\"11\",\"7\",\"P\",\"J\",\"35\"
\"\",\"\",\"approach-retreat\",\"184\",\"1769912\",\"0.0-184.0\",\"\",\"\",\"2-5\",\"4364\",\"40\",\"1\",\"Testing\",\"Stims/Figures/44-C-30-3.bmp\",\"na:la:la\",\"Down\",\"40\",\"2\",\"12\",\"7\",\"S\",\"J\",\"36\"
\"\",\"\",\"approach-retreat\",\"185\",\"1781520\",\"0.0-185.0\",\"\",\"\",\"2-5\",\"10102\",\"38\",\"0\",\"Testing\",\"Stims/Figures/94-J-0-2.bmp\",\"ta:pa:ka\",\"Up\",\"40\",\"2\",\"13\",\"7\",\"P\",\"J\",\"37\"
\"\",\"\",\"approach-retreat\",\"186\",\"1791244\",\"0.0-186.0\",\"\",\"\",\"2-5\",\"8218\",\"40\",\"1\",\"Testing\",\"Stims/Figures/86-C-30-1.bmp\",\"pa:pata\",\"Down\",\"40\",\"2\",\"14\",\"7\",\"P\",\"J\",\"38\"
\"\",\"\",\"approach-retreat\",\"187\",\"1797772\",\"0.0-187.0\",\"\",\"\",\"2-5\",\"5022\",\"37\",\"1\",\"Testing\",\"Stims/Figures/74-C-20-4.bmp\",\"ma:mala\",\"Left\",\"37\",\"2\",\"15\",\"7\",\"S\",\"J\",\"39\"
\"\",\"\",\"approach-retreat\",\"188\",\"1803758\",\"0.0-188.0\",\"\",\"\",\"2-5\",\"4482\",\"37\",\"1\",\"Testing\",\"Stims/Figures/93-J-0-1.bmp\",\"papa:ka\",\"Right\",\"37\",\"2\",\"16\",\"7\",\"P\",\"J\",\"40\"
\"\",\"\",\"approach-retreat\",\"189\",\"1809782\",\"0.0-189.0\",\"\",\"\",\"2-5\",\"4522\",\"38\",\"1\",\"Testing\",\"Stims/Figures/100-C-30-3.bmp\",\"na:mala\",\"Up\",\"38\",\"2\",\"17\",\"7\",\"S\",\"J\",\"41\"
\"\",\"\",\"approach-retreat\",\"190\",\"1815968\",\"0.0-190.0\",\"\",\"\",\"2-5\",\"4682\",\"40\",\"1\",\"Testing\",\"Stims/Figures/93-C-30-1.bmp\",\"pa:pa:ta\",\"Down\",\"40\",\"2\",\"18\",\"7\",\"P\",\"J\",\"42\"
\"\",\"\",\"approach-retreat\",\"191\",\"1821810\",\"0.0-191.0\",\"\",\"\",\"2-5\",\"4340\",\"39\",\"1\",\"Testing\",\"Stims/Figures/87-C-20-4.bmp\",\"namala\",\"Right\",\"39\",\"2\",\"19\",\"7\",\"S\",\"J\",\"43\"
\"\",\"\",\"approach-retreat\",\"192\",\"1827940\",\"0.0-192.0\",\"\",\"\",\"2-5\",\"4626\",\"39\",\"1\",\"Testing\",\"Stims/Figures/7-J-10-4.bmp\",\"malala\",\"Left\",\"39\",\"2\",\"20\",\"7\",\"S\",\"J\",\"44\"
\"\",\"\",\"approach-retreat\",\"193\",\"1834888\",\"0.0-193.0\",\"\",\"\",\"2-5\",\"5444\",\"37\",\"1\",\"Testing\",\"Stims/Figures/128-J-10-3.bmp\",\"na:mana\",\"Right\",\"37\",\"2\",\"21\",\"7\",\"S\",\"J\",\"45\"
\"\",\"\",\"approach-retreat\",\"194\",\"1844856\",\"0.0-194.0\",\"\",\"\",\"2-5\",\"8464\",\"38\",\"1\",\"Testing\",\"Stims/Figures/118-C-20-2.bmp\",\"pa:pa:ka\",\"Up\",\"38\",\"2\",\"22\",\"7\",\"P\",\"J\",\"46\"
\"\",\"\",\"approach-retreat\",\"195\",\"1850402\",\"0.0-195.0\",\"\",\"\",\"2-5\",\"4042\",\"40\",\"1\",\"Testing\",\"Stims/Figures/74-J-10-4.bmp\",\"mala:la\",\"Up\",\"40\",\"2\",\"23\",\"7\",\"S\",\"J\",\"47\"
\"\",\"\",\"approach-retreat\",\"196\",\"1856328\",\"0.0-196.0\",\"\",\"\",\"2-5\",\"4424\",\"38\",\"1\",\"Testing\",\"Stims/Figures/139-C-20-2.bmp\",\"tapa:ta\",\"Up\",\"38\",\"2\",\"24\",\"7\",\"P\",\"J\",\"48\"
\"\",\"\",\"approach-retreat\",\"197\",\"1862232\",\"0.0-197.0\",\"\",\"\",\"2-5\",\"4398\",\"40\",\"1\",\"Testing\",\"Stims/Figures/93-J-0-1.bmp\",\"papa:ka\",\"Up\",\"40\",\"3\",\"1\",\"7\",\"P\",\"J\",\"49\"
\"\",\"\",\"approach-retreat\",\"198\",\"1868144\",\"0.0-198.0\",\"\",\"\",\"2-5\",\"4408\",\"39\",\"1\",\"Testing\",\"Stims/Figures/128-J-10-3.bmp\",\"na:mana\",\"Left\",\"39\",\"3\",\"2\",\"7\",\"S\",\"J\",\"50\"
\"\",\"\",\"approach-retreat\",\"199\",\"1874058\",\"0.0-199.0\",\"\",\"\",\"2-5\",\"4408\",\"39\",\"1\",\"Testing\",\"Stims/Figures/100-C-30-3.bmp\",\"na:mala\",\"Right\",\"39\",\"3\",\"3\",\"7\",\"S\",\"J\",\"51\"
\"\",\"\",\"approach-retreat\",\"200\",\"1891244\",\"0.0-200.0\",\"\",\"\",\"2-5\",\"15684\",\"40\",\"1\",\"Testing\",\"Stims/Figures/71-J-0-1.bmp\",\"pa:kaka\",\"Up\",\"40\",\"3\",\"4\",\"7\",\"P\",\"J\",\"52\"
\"\",\"\",\"approach-retreat\",\"201\",\"1898216\",\"0.0-201.0\",\"\",\"\",\"2-5\",\"5466\",\"40\",\"1\",\"Testing\",\"Stims/Figures/71-C-30-1.bmp\",\"ta:paka\",\"Down\",\"40\",\"3\",\"5\",\"7\",\"P\",\"J\",\"53\"
\"\",\"\",\"approach-retreat\",\"202\",\"1907024\",\"0.0-202.0\",\"\",\"\",\"2-5\",\"7302\",\"37\",\"1\",\"Testing\",\"Stims/Figures/94-J-0-2.bmp\",\"ta:pa:ka\",\"Right\",\"37\",\"3\",\"6\",\"7\",\"P\",\"J\",\"54\"
\"\",\"\",\"approach-retreat\",\"203\",\"1915502\",\"0.0-203.0\",\"\",\"\",\"2-5\",\"6972\",\"37\",\"1\",\"Testing\",\"Stims/Figures/139-C-20-2.bmp\",\"tapa:ta\",\"Left\",\"37\",\"3\",\"7\",\"7\",\"P\",\"J\",\"55\"
\"\",\"\",\"approach-retreat\",\"204\",\"1921102\",\"0.0-204.0\",\"\",\"\",\"2-5\",\"4096\",\"39\",\"1\",\"Testing\",\"Stims/Figures/93-C-30-1.bmp\",\"pa:pa:ta\",\"Right\",\"39\",\"3\",\"8\",\"7\",\"P\",\"J\",\"56\"
\"\",\"\",\"approach-retreat\",\"205\",\"1926884\",\"0.0-205.0\",\"\",\"\",\"2-5\",\"4278\",\"39\",\"1\",\"Testing\",\"Stims/Figures/86-J-0-1.bmp\",\"pa:kata\",\"Left\",\"39\",\"3\",\"9\",\"7\",\"P\",\"J\",\"57\"
\"\",\"\",\"approach-retreat\",\"206\",\"1933418\",\"0.0-206.0\",\"\",\"\",\"2-5\",\"5028\",\"38\",\"0\",\"Testing\",\"Stims/Figures/44-J-10-3.bmp\",\"na:lana\",\"Up\",\"40\",\"3\",\"10\",\"7\",\"S\",\"J\",\"58\"
\"\",\"\",\"approach-retreat\",\"207\",\"1939390\",\"0.0-207.0\",\"\",\"\",\"2-5\",\"4468\",\"40\",\"1\",\"Testing\",\"Stims/Figures/7-C-20-4.bmp\",\"ma:lana\",\"Down\",\"40\",\"3\",\"11\",\"7\",\"S\",\"J\",\"59\"
\"\",\"\",\"approach-retreat\",\"208\",\"1946836\",\"0.0-208.0\",\"\",\"\",\"2-5\",\"5942\",\"38\",\"1\",\"Testing\",\"Stims/Figures/74-J-10-4.bmp\",\"mala:la\",\"Down\",\"38\",\"3\",\"12\",\"7\",\"S\",\"J\",\"60\"
\"\",\"\",\"approach-retreat\",\"209\",\"1954240\",\"0.0-209.0\",\"\",\"\",\"2-5\",\"5902\",\"38\",\"1\",\"Testing\",\"Stims/Figures/7-J-10-4.bmp\",\"malala\",\"Down\",\"38\",\"3\",\"13\",\"7\",\"S\",\"J\",\"61\"
\"\",\"\",\"approach-retreat\",\"210\",\"1960142\",\"0.0-210.0\",\"\",\"\",\"2-5\",\"4398\",\"38\",\"0\",\"Testing\",\"Stims/Figures/87-J-10-4.bmp\",\"mamala\",\"Up\",\"40\",\"3\",\"14\",\"7\",\"S\",\"J\",\"62\"
\"\",\"\",\"approach-retreat\",\"211\",\"1968644\",\"0.0-211.0\",\"\",\"\",\"2-5\",\"6996\",\"37\",\"1\",\"Testing\",\"Stims/Figures/139-J-0-2.bmp\",\"paka:ta\",\"Right\",\"37\",\"3\",\"15\",\"7\",\"P\",\"J\",\"63\"
\"\",\"\",\"approach-retreat\",\"212\",\"1978856\",\"0.0-212.0\",\"\",\"\",\"2-5\",\"8708\",\"40\",\"0\",\"Testing\",\"Stims/Figures/74-C-20-4.bmp\",\"ma:mala\",\"Up\",\"38\",\"3\",\"16\",\"7\",\"S\",\"J\",\"64\"
\"\",\"\",\"approach-retreat\",\"213\",\"1985066\",\"0.0-213.0\",\"\",\"\",\"2-5\",\"4706\",\"37\",\"1\",\"Testing\",\"Stims/Figures/44-C-30-3.bmp\",\"na:la:la\",\"Left\",\"37\",\"3\",\"17\",\"7\",\"S\",\"J\",\"65\"
\"\",\"\",\"approach-retreat\",\"214\",\"1991816\",\"0.0-214.0\",\"\",\"\",\"2-5\",\"5246\",\"40\",\"1\",\"Testing\",\"Stims/Figures/118-C-20-2.bmp\",\"pa:pa:ka\",\"Down\",\"40\",\"3\",\"18\",\"7\",\"P\",\"J\",\"66\"
\"\",\"\",\"approach-retreat\",\"215\",\"1997948\",\"0.0-215.0\",\"\",\"\",\"2-5\",\"4630\",\"39\",\"1\",\"Testing\",\"Stims/Figures/94-C-20-2.bmp\",\"ta:kaka\",\"Right\",\"39\",\"3\",\"19\",\"7\",\"P\",\"J\",\"67\"
\"\",\"\",\"approach-retreat\",\"216\",\"2003998\",\"0.0-216.0\",\"\",\"\",\"2-5\",\"4548\",\"40\",\"0\",\"Testing\",\"Stims/Figures/128-C-30-3.bmp\",\"mama:la\",\"Up\",\"38\",\"3\",\"20\",\"7\",\"S\",\"J\",\"68\"
\"\",\"\",\"approach-retreat\",\"217\",\"2009954\",\"0.0-217.0\",\"\",\"\",\"2-5\",\"4452\",\"39\",\"1\",\"Testing\",\"Stims/Figures/118-J-0-2.bmp\",\"ta:ka:ta\",\"Left\",\"39\",\"3\",\"21\",\"7\",\"P\",\"J\",\"69\"
\"\",\"\",\"approach-retreat\",\"218\",\"2020504\",\"0.0-218.0\",\"\",\"\",\"2-5\",\"9046\",\"39\",\"1\",\"Testing\",\"Stims/Figures/87-C-20-4.bmp\",\"namala\",\"Right\",\"39\",\"3\",\"22\",\"7\",\"S\",\"J\",\"70\"
\"\",\"\",\"approach-retreat\",\"219\",\"2026206\",\"0.0-219.0\",\"\",\"\",\"2-5\",\"4200\",\"37\",\"1\",\"Testing\",\"Stims/Figures/86-C-30-1.bmp\",\"pa:pata\",\"Left\",\"37\",\"3\",\"23\",\"7\",\"P\",\"J\",\"71\"
\"\",\"\",\"approach-retreat\",\"220\",\"2033784\",\"0.0-220.0\",\"\",\"\",\"2-5\",\"6072\",\"40\",\"0\",\"Testing\",\"Stims/Figures/100-J-10-3.bmp\",\"mamana\",\"Down\",\"38\",\"3\",\"24\",\"7\",\"S\",\"J\",\"72\"
\"\",\"\",\"approach-retreat\",\"221\",\"2040858\",\"0.0-221.0\",\"\",\"\",\"2-5\",\"5572\",\"39\",\"1\",\"Testing\",\"Stims/Figures/44-J-10-3.bmp\",\"na:lana\",\"Left\",\"39\",\"4\",\"1\",\"7\",\"S\",\"J\",\"73\"
\"\",\"\",\"approach-retreat\",\"222\",\"2046820\",\"0.0-222.0\",\"\",\"\",\"2-5\",\"4460\",\"39\",\"1\",\"Testing\",\"Stims/Figures/71-J-0-1.bmp\",\"pa:kaka\",\"Left\",\"39\",\"4\",\"2\",\"7\",\"P\",\"J\",\"74\"
\"\",\"\",\"approach-retreat\",\"223\",\"2059850\",\"0.0-223.0\",\"\",\"\",\"2-5\",\"11524\",\"38\",\"1\",\"Testing\",\"Stims/Figures/87-C-20-4.bmp\",\"namala\",\"Up\",\"38\",\"4\",\"3\",\"7\",\"S\",\"J\",\"75\"
\"\",\"\",\"approach-retreat\",\"224\",\"2069320\",\"0.0-224.0\",\"\",\"\",\"2-5\",\"7966\",\"38\",\"1\",\"Testing\",\"Stims/Figures/100-J-10-3.bmp\",\"mamana\",\"Down\",\"38\",\"4\",\"4\",\"7\",\"S\",\"J\",\"76\"
\"\",\"\",\"approach-retreat\",\"225\",\"2076966\",\"0.0-225.0\",\"\",\"\",\"2-5\",\"6142\",\"40\",\"1\",\"Testing\",\"Stims/Figures/71-C-30-1.bmp\",\"ta:paka\",\"Down\",\"40\",\"4\",\"5\",\"7\",\"P\",\"J\",\"77\"
\"\",\"\",\"approach-retreat\",\"226\",\"2083586\",\"0.0-226.0\",\"\",\"\",\"2-5\",\"5118\",\"37\",\"1\",\"Testing\",\"Stims/Figures/7-J-10-4.bmp\",\"malala\",\"Right\",\"37\",\"4\",\"6\",\"7\",\"S\",\"J\",\"78\"
\"\",\"\",\"approach-retreat\",\"227\",\"2089626\",\"0.0-227.0\",\"\",\"\",\"2-5\",\"4538\",\"39\",\"1\",\"Testing\",\"Stims/Figures/86-J-0-1.bmp\",\"pa:kata\",\"Left\",\"39\",\"4\",\"7\",\"7\",\"P\",\"J\",\"79\"
\"\",\"\",\"approach-retreat\",\"228\",\"2095688\",\"0.0-228.0\",\"\",\"\",\"2-5\",\"4558\",\"40\",\"1\",\"Testing\",\"Stims/Figures/7-C-20-4.bmp\",\"ma:lana\",\"Down\",\"40\",\"4\",\"8\",\"7\",\"S\",\"J\",\"80\"
\"\",\"\",\"approach-retreat\",\"229\",\"2101416\",\"0.0-229.0\",\"\",\"\",\"2-5\",\"4224\",\"37\",\"1\",\"Testing\",\"Stims/Figures/74-C-20-4.bmp\",\"ma:mala\",\"Left\",\"37\",\"4\",\"9\",\"7\",\"S\",\"J\",\"81\"
\"\",\"\",\"approach-retreat\",\"230\",\"2107226\",\"0.0-230.0\",\"\",\"\",\"2-5\",\"4308\",\"38\",\"1\",\"Testing\",\"Stims/Figures/94-J-0-2.bmp\",\"ta:pa:ka\",\"Down\",\"38\",\"4\",\"10\",\"7\",\"P\",\"J\",\"82\"
\"\",\"\",\"approach-retreat\",\"231\",\"2116374\",\"0.0-231.0\",\"\",\"\",\"2-5\",\"7644\",\"38\",\"1\",\"Testing\",\"Stims/Figures/86-C-30-1.bmp\",\"pa:pata\",\"Up\",\"38\",\"4\",\"11\",\"7\",\"P\",\"J\",\"83\"
\"\",\"\",\"approach-retreat\",\"232\",\"2123640\",\"0.0-232.0\",\"\",\"\",\"2-5\",\"5760\",\"38\",\"1\",\"Testing\",\"Stims/Figures/100-C-30-3.bmp\",\"na:mala\",\"Up\",\"38\",\"4\",\"12\",\"7\",\"S\",\"J\",\"84\"
\"\",\"\",\"approach-retreat\",\"233\",\"2129992\",\"0.0-233.0\",\"\",\"\",\"2-5\",\"4848\",\"40\",\"1\",\"Testing\",\"Stims/Figures/94-C-20-2.bmp\",\"ta:kaka\",\"Down\",\"40\",\"4\",\"13\",\"7\",\"P\",\"J\",\"85\"
\"\",\"\",\"approach-retreat\",\"234\",\"2135720\",\"0.0-234.0\",\"\",\"\",\"2-5\",\"4222\",\"39\",\"1\",\"Testing\",\"Stims/Figures/128-J-10-3.bmp\",\"na:mana\",\"Left\",\"39\",\"4\",\"14\",\"7\",\"S\",\"J\",\"86\"
\"\",\"\",\"approach-retreat\",\"235\",\"2141662\",\"0.0-235.0\",\"\",\"\",\"2-5\",\"4436\",\"40\",\"1\",\"Testing\",\"Stims/Figures/139-C-20-2.bmp\",\"tapa:ta\",\"Down\",\"40\",\"4\",\"15\",\"7\",\"P\",\"J\",\"87\"
\"\",\"\",\"approach-retreat\",\"236\",\"2147468\",\"0.0-236.0\",\"\",\"\",\"2-5\",\"4302\",\"37\",\"1\",\"Testing\",\"Stims/Figures/74-J-10-4.bmp\",\"mala:la\",\"Right\",\"37\",\"4\",\"16\",\"7\",\"S\",\"J\",\"88\"
\"\",\"\",\"approach-retreat\",\"237\",\"2153384\",\"0.0-237.0\",\"\",\"\",\"2-5\",\"4414\",\"39\",\"1\",\"Testing\",\"Stims/Figures/118-J-0-2.bmp\",\"ta:ka:ta\",\"Left\",\"39\",\"4\",\"17\",\"7\",\"P\",\"J\",\"89\"
\"\",\"\",\"approach-retreat\",\"238\",\"2163132\",\"0.0-238.0\",\"\",\"\",\"2-5\",\"8244\",\"40\",\"0\",\"Testing\",\"Stims/Figures/93-C-30-1.bmp\",\"pa:pa:ta\",\"Up\",\"38\",\"4\",\"18\",\"7\",\"P\",\"J\",\"90\"
\"\",\"\",\"approach-retreat\",\"239\",\"2168828\",\"0.0-239.0\",\"\",\"\",\"2-5\",\"4192\",\"39\",\"1\",\"Testing\",\"Stims/Figures/118-C-20-2.bmp\",\"pa:pa:ka\",\"Right\",\"39\",\"4\",\"19\",\"7\",\"P\",\"J\",\"91\"
\"\",\"\",\"approach-retreat\",\"240\",\"2175132\",\"0.0-240.0\",\"\",\"\",\"2-5\",\"4800\",\"39\",\"1\",\"Testing\",\"Stims/Figures/44-C-30-3.bmp\",\"na:la:la\",\"Right\",\"39\",\"4\",\"20\",\"7\",\"S\",\"J\",\"92\"
\"\",\"\",\"approach-retreat\",\"241\",\"2180646\",\"0.0-241.0\",\"\",\"\",\"2-5\",\"4010\",\"40\",\"0\",\"Testing\",\"Stims/Figures/128-C-30-3.bmp\",\"mama:la\",\"Up\",\"38\",\"4\",\"21\",\"7\",\"S\",\"J\",\"93\"
\"\",\"\",\"approach-retreat\",\"242\",\"2186304\",\"0.0-242.0\",\"\",\"\",\"2-5\",\"4154\",\"40\",\"1\",\"Testing\",\"Stims/Figures/93-J-0-1.bmp\",\"papa:ka\",\"Up\",\"40\",\"4\",\"22\",\"7\",\"P\",\"J\",\"94\"
\"\",\"\",\"approach-retreat\",\"243\",\"2192826\",\"0.0-243.0\",\"\",\"\",\"2-5\",\"5020\",\"37\",\"1\",\"Testing\",\"Stims/Figures/139-J-0-2.bmp\",\"paka:ta\",\"Right\",\"37\",\"4\",\"23\",\"7\",\"P\",\"J\",\"95\"
\"\",\"\",\"approach-retreat\",\"244\",\"2198602\",\"0.0-244.0\",\"\",\"\",\"2-5\",\"4272\",\"39\",\"0\",\"Testing\",\"Stims/Figures/87-J-10-4.bmp\",\"mamala\",\"Right\",\"37\",\"4\",\"24\",\"7\",\"S\",\"J\",\"96\"
\"18656\",\"\",\"survey-text\",\"245\",\"2217268\",\"0.0-245.0\",\"\",\"{\"\"Q0\"\":\"\"PS160029\"\"}\",\"\",\"\",\"\",\"\",\"\",\"\",\"\",\"\",\"\",\"\",\"\",\"\",\"\",\"\",\"\"
