\"rt\",\"key_press\",\"trial_type\",\"trial_index\",\"time_elapsed\",\"internal_node_id\",\"view_history\",\"responses\",\"Id\",\"Rt\",\"ResKeyCode\",\"ResCorr\",\"TrialType2\",\"Image\",\"Label\",\"Location\",\"CorrectResponse\",\"Block\",\"BlockTrial\",\"Condition\",\"LabelType\",\"Subcondition\",\"trialNum\"
\"35980\",\"32\",\"text\",\"0\",\"35985\",\"0.0-0.0-0.0\",\"\",\"\",\"\",\"\",\"\",\"\",\"\",\"\",\"\",\"\",\"\",\"\",\"\",\"\",\"\",\"\",\"\"
\"82748\",\"\",\"instructions\",\"1\",\"118736\",\"0.0-1.0\",\"[{\"\"page_index\"\":0,\"\"viewing_time\"\":82747}]\",\"\",\"\",\"\",\"\",\"\",\"\",\"\",\"\",\"\",\"\",\"\",\"\",\"\",\"\",\"\",\"\"
\"25051\",\"\",\"survey-multi-choice\",\"2\",\"143828\",\"0.0-2.0\",\"\",\"{\"\"Q0\"\":\"\"Da\"\",\"\"Q1\"\":\"\"Da\"\",\"\"Q2\"\":\"\"Da\"\",\"\"Q3\"\":\"\"Da\"\",\"\"Q4\"\":\"\"Da\"\",\"\"Q5\"\":\"\"Da\"\"}\",\"\",\"\",\"\",\"\",\"\",\"\",\"\",\"\",\"\",\"\",\"\",\"\",\"\",\"\",\"\"
\"\",\"\",\"bio\",\"3\",\"154234\",\"0.0-3.0\",\"\",\"{\"\"age\"\":\"\"21\"\",\"\"gender\"\":\"\"f\"\",\"\"specify\"\":\"\"\"\"}\",\"\",\"\",\"\",\"\",\"\",\"\",\"\",\"\",\"\",\"\",\"\",\"\",\"\",\"\",\"\"
\"\",\"\",\"approach-retreat\",\"4\",\"162313\",\"0.0-4.0\",\"\",\"\",\"2-1\",\"6568\",\"39\",\"0\",\"Training\",\"Stims/Figures/85-J-0-2.bmp\",\"mamala\",\"Left\",\"37\",\"1\",\"1\",\"2\",\"S\",\"C\",\"1\"
\"\",\"\",\"approach-retreat\",\"5\",\"170445\",\"0.0-5.0\",\"\",\"\",\"2-1\",\"6617\",\"39\",\"1\",\"Training\",\"Stims/Figures/144-C-30-3.bmp\",\"pakata\",\"Left\",\"39\",\"1\",\"2\",\"2\",\"P\",\"C\",\"2\"
\"\",\"\",\"approach-retreat\",\"6\",\"179218\",\"0.0-6.0\",\"\",\"\",\"2-1\",\"7263\",\"40\",\"1\",\"Training\",\"Stims/Figures/84-J-0-2.bmp\",\"mamala\",\"Down\",\"40\",\"1\",\"3\",\"2\",\"S\",\"C\",\"3\"
\"\",\"\",\"approach-retreat\",\"7\",\"185538\",\"0.0-7.0\",\"\",\"\",\"2-1\",\"4811\",\"40\",\"1\",\"Training\",\"Stims/Figures/27-C-30-1.bmp\",\"pakata\",\"Up\",\"40\",\"1\",\"4\",\"2\",\"P\",\"C\",\"4\"
\"\",\"\",\"approach-retreat\",\"8\",\"194035\",\"0.0-8.0\",\"\",\"\",\"2-1\",\"6988\",\"37\",\"1\",\"Training\",\"Stims/Figures/27-J-0-1.bmp\",\"mamala\",\"Left\",\"37\",\"1\",\"5\",\"2\",\"S\",\"C\",\"5\"
\"\",\"\",\"approach-retreat\",\"9\",\"203176\",\"0.0-9.0\",\"\",\"\",\"2-1\",\"7631\",\"38\",\"1\",\"Training\",\"Stims/Figures/74-J-10-4.bmp\",\"mamala\",\"Up\",\"38\",\"1\",\"6\",\"2\",\"S\",\"C\",\"6\"
\"\",\"\",\"approach-retreat\",\"10\",\"209643\",\"0.0-10.0\",\"\",\"\",\"2-1\",\"4958\",\"37\",\"1\",\"Training\",\"Stims/Figures/57-J-0-1.bmp\",\"mamala\",\"Left\",\"37\",\"1\",\"7\",\"2\",\"S\",\"C\",\"7\"
\"\",\"\",\"approach-retreat\",\"11\",\"216869\",\"0.0-11.0\",\"\",\"\",\"2-1\",\"5716\",\"38\",\"1\",\"Training\",\"Stims/Figures/128-J-10-3.bmp\",\"mamala\",\"Up\",\"38\",\"1\",\"8\",\"2\",\"S\",\"C\",\"8\"
\"\",\"\",\"approach-retreat\",\"12\",\"224476\",\"0.0-12.0\",\"\",\"\",\"2-1\",\"6097\",\"38\",\"1\",\"Training\",\"Stims/Figures/85-C-20-2.bmp\",\"pakata\",\"Down\",\"38\",\"1\",\"9\",\"2\",\"P\",\"C\",\"9\"
\"\",\"\",\"approach-retreat\",\"13\",\"230831\",\"0.0-13.0\",\"\",\"\",\"2-1\",\"4846\",\"38\",\"1\",\"Training\",\"Stims/Figures/84-C-20-2.bmp\",\"pakata\",\"Down\",\"38\",\"1\",\"10\",\"2\",\"P\",\"C\",\"10\"
\"\",\"\",\"approach-retreat\",\"14\",\"238415\",\"0.0-14.0\",\"\",\"\",\"2-1\",\"6076\",\"39\",\"1\",\"Training\",\"Stims/Figures/144-J-10-3.bmp\",\"mamala\",\"Right\",\"39\",\"1\",\"11\",\"2\",\"S\",\"C\",\"11\"
\"\",\"\",\"approach-retreat\",\"15\",\"247382\",\"0.0-15.0\",\"\",\"\",\"2-1\",\"7458\",\"39\",\"1\",\"Training\",\"Stims/Figures/102-J-10-4.bmp\",\"mamala\",\"Right\",\"39\",\"1\",\"12\",\"2\",\"S\",\"C\",\"12\"
\"\",\"\",\"approach-retreat\",\"16\",\"253920\",\"0.0-16.0\",\"\",\"\",\"2-1\",\"5029\",\"37\",\"1\",\"Training\",\"Stims/Figures/74-C-20-4.bmp\",\"pakata\",\"Right\",\"37\",\"1\",\"13\",\"2\",\"P\",\"C\",\"13\"
\"\",\"\",\"approach-retreat\",\"17\",\"261597\",\"0.0-17.0\",\"\",\"\",\"2-1\",\"6167\",\"40\",\"1\",\"Training\",\"Stims/Figures/57-C-30-1.bmp\",\"pakata\",\"Up\",\"40\",\"1\",\"14\",\"2\",\"P\",\"C\",\"14\"
\"\",\"\",\"approach-retreat\",\"18\",\"268986\",\"0.0-18.0\",\"\",\"\",\"2-1\",\"5881\",\"38\",\"1\",\"Training\",\"Stims/Figures/102-C-20-4.bmp\",\"pakata\",\"Down\",\"38\",\"1\",\"15\",\"2\",\"P\",\"C\",\"15\"
\"\",\"\",\"approach-retreat\",\"19\",\"275165\",\"0.0-19.0\",\"\",\"\",\"2-1\",\"4669\",\"37\",\"1\",\"Training\",\"Stims/Figures/128-C-30-3.bmp\",\"pakata\",\"Right\",\"37\",\"1\",\"16\",\"2\",\"P\",\"C\",\"16\"
\"\",\"\",\"approach-retreat\",\"20\",\"281004\",\"0.0-20.0\",\"\",\"\",\"2-1\",\"4329\",\"38\",\"1\",\"Training\",\"Stims/Figures/84-C-20-2.bmp\",\"pakata\",\"Down\",\"38\",\"2\",\"1\",\"2\",\"P\",\"C\",\"17\"
\"\",\"\",\"approach-retreat\",\"21\",\"288681\",\"0.0-21.0\",\"\",\"\",\"2-1\",\"6169\",\"40\",\"1\",\"Training\",\"Stims/Figures/74-J-10-4.bmp\",\"mamala\",\"Down\",\"40\",\"2\",\"2\",\"2\",\"S\",\"C\",\"18\"
\"\",\"\",\"approach-retreat\",\"22\",\"295060\",\"0.0-22.0\",\"\",\"\",\"2-1\",\"4869\",\"37\",\"1\",\"Training\",\"Stims/Figures/57-J-0-1.bmp\",\"mamala\",\"Left\",\"37\",\"2\",\"3\",\"2\",\"S\",\"C\",\"19\"
\"\",\"\",\"approach-retreat\",\"23\",\"301845\",\"0.0-23.0\",\"\",\"\",\"2-1\",\"5276\",\"37\",\"1\",\"Training\",\"Stims/Figures/27-J-0-1.bmp\",\"mamala\",\"Left\",\"37\",\"2\",\"4\",\"2\",\"S\",\"C\",\"20\"
\"\",\"\",\"approach-retreat\",\"24\",\"308276\",\"0.0-24.0\",\"\",\"\",\"2-1\",\"4921\",\"37\",\"1\",\"Training\",\"Stims/Figures/74-C-20-4.bmp\",\"pakata\",\"Right\",\"37\",\"2\",\"5\",\"2\",\"P\",\"C\",\"21\"
\"\",\"\",\"approach-retreat\",\"25\",\"314673\",\"0.0-25.0\",\"\",\"\",\"2-1\",\"4887\",\"38\",\"1\",\"Training\",\"Stims/Figures/102-J-10-4.bmp\",\"mamala\",\"Up\",\"38\",\"2\",\"6\",\"2\",\"S\",\"C\",\"22\"
\"\",\"\",\"approach-retreat\",\"26\",\"320786\",\"0.0-26.0\",\"\",\"\",\"2-1\",\"4605\",\"39\",\"1\",\"Training\",\"Stims/Figures/128-C-30-3.bmp\",\"pakata\",\"Left\",\"39\",\"2\",\"7\",\"2\",\"P\",\"C\",\"23\"
\"\",\"\",\"approach-retreat\",\"27\",\"327221\",\"0.0-27.0\",\"\",\"\",\"2-1\",\"4925\",\"38\",\"1\",\"Training\",\"Stims/Figures/85-J-0-2.bmp\",\"mamala\",\"Up\",\"38\",\"2\",\"8\",\"2\",\"S\",\"C\",\"24\"
\"\",\"\",\"approach-retreat\",\"28\",\"333844\",\"0.0-28.0\",\"\",\"\",\"2-1\",\"5113\",\"40\",\"1\",\"Training\",\"Stims/Figures/144-J-10-3.bmp\",\"mamala\",\"Down\",\"40\",\"2\",\"9\",\"2\",\"S\",\"C\",\"25\"
\"\",\"\",\"approach-retreat\",\"29\",\"340337\",\"0.0-29.0\",\"\",\"\",\"2-1\",\"4984\",\"40\",\"1\",\"Training\",\"Stims/Figures/84-J-0-2.bmp\",\"mamala\",\"Down\",\"40\",\"2\",\"10\",\"2\",\"S\",\"C\",\"26\"
\"\",\"\",\"approach-retreat\",\"30\",\"347442\",\"0.0-30.0\",\"\",\"\",\"2-1\",\"5597\",\"37\",\"1\",\"Training\",\"Stims/Figures/102-C-20-4.bmp\",\"pakata\",\"Right\",\"37\",\"2\",\"11\",\"2\",\"P\",\"C\",\"27\"
\"\",\"\",\"approach-retreat\",\"31\",\"353768\",\"0.0-31.0\",\"\",\"\",\"2-1\",\"4816\",\"40\",\"1\",\"Training\",\"Stims/Figures/57-C-30-1.bmp\",\"pakata\",\"Up\",\"40\",\"2\",\"12\",\"2\",\"P\",\"C\",\"28\"
\"\",\"\",\"approach-retreat\",\"32\",\"360488\",\"0.0-32.0\",\"\",\"\",\"2-1\",\"5211\",\"40\",\"1\",\"Training\",\"Stims/Figures/85-C-20-2.bmp\",\"pakata\",\"Up\",\"40\",\"2\",\"13\",\"2\",\"P\",\"C\",\"29\"
\"\",\"\",\"approach-retreat\",\"33\",\"366354\",\"0.0-33.0\",\"\",\"\",\"2-1\",\"4356\",\"39\",\"1\",\"Training\",\"Stims/Figures/144-C-30-3.bmp\",\"pakata\",\"Left\",\"39\",\"2\",\"14\",\"2\",\"P\",\"C\",\"30\"
\"\",\"\",\"approach-retreat\",\"34\",\"373616\",\"0.0-34.0\",\"\",\"\",\"2-1\",\"5754\",\"39\",\"1\",\"Training\",\"Stims/Figures/128-J-10-3.bmp\",\"mamala\",\"Right\",\"39\",\"2\",\"15\",\"2\",\"S\",\"C\",\"31\"
\"\",\"\",\"approach-retreat\",\"35\",\"379516\",\"0.0-35.0\",\"\",\"\",\"2-1\",\"4383\",\"37\",\"1\",\"Training\",\"Stims/Figures/27-C-30-1.bmp\",\"pakata\",\"Right\",\"37\",\"2\",\"16\",\"2\",\"P\",\"C\",\"32\"
\"\",\"\",\"approach-retreat\",\"36\",\"386252\",\"0.0-36.0\",\"\",\"\",\"2-1\",\"5226\",\"39\",\"1\",\"Training\",\"Stims/Figures/85-J-0-2.bmp\",\"mamala\",\"Right\",\"39\",\"3\",\"1\",\"2\",\"S\",\"C\",\"33\"
\"\",\"\",\"approach-retreat\",\"37\",\"393890\",\"0.0-37.0\",\"\",\"\",\"2-1\",\"6129\",\"38\",\"1\",\"Training\",\"Stims/Figures/144-J-10-3.bmp\",\"mamala\",\"Up\",\"38\",\"3\",\"2\",\"2\",\"S\",\"C\",\"34\"
\"\",\"\",\"approach-retreat\",\"38\",\"399703\",\"0.0-38.0\",\"\",\"\",\"2-1\",\"4304\",\"39\",\"1\",\"Training\",\"Stims/Figures/102-C-20-4.bmp\",\"pakata\",\"Left\",\"39\",\"3\",\"3\",\"2\",\"P\",\"C\",\"35\"
\"\",\"\",\"approach-retreat\",\"39\",\"406853\",\"0.0-39.0\",\"\",\"\",\"2-1\",\"5638\",\"40\",\"1\",\"Training\",\"Stims/Figures/57-C-30-1.bmp\",\"pakata\",\"Up\",\"40\",\"3\",\"4\",\"2\",\"P\",\"C\",\"36\"
\"\",\"\",\"approach-retreat\",\"40\",\"415340\",\"0.0-40.0\",\"\",\"\",\"2-1\",\"6978\",\"38\",\"1\",\"Training\",\"Stims/Figures/84-C-20-2.bmp\",\"pakata\",\"Down\",\"38\",\"3\",\"5\",\"2\",\"P\",\"C\",\"37\"
\"\",\"\",\"approach-retreat\",\"41\",\"421252\",\"0.0-41.0\",\"\",\"\",\"2-1\",\"4401\",\"39\",\"0\",\"Training\",\"Stims/Figures/74-J-10-4.bmp\",\"mamala\",\"Left\",\"37\",\"3\",\"6\",\"2\",\"S\",\"C\",\"38\"
\"\",\"\",\"approach-retreat\",\"42\",\"428833\",\"0.0-42.0\",\"\",\"\",\"2-1\",\"6070\",\"40\",\"1\",\"Training\",\"Stims/Figures/102-J-10-4.bmp\",\"mamala\",\"Down\",\"40\",\"3\",\"7\",\"2\",\"S\",\"C\",\"39\"
\"\",\"\",\"approach-retreat\",\"43\",\"436713\",\"0.0-43.0\",\"\",\"\",\"2-1\",\"6370\",\"39\",\"1\",\"Training\",\"Stims/Figures/84-J-0-2.bmp\",\"mamala\",\"Right\",\"39\",\"3\",\"8\",\"2\",\"S\",\"C\",\"40\"
\"\",\"\",\"approach-retreat\",\"44\",\"442896\",\"0.0-44.0\",\"\",\"\",\"2-1\",\"4673\",\"40\",\"1\",\"Training\",\"Stims/Figures/128-C-30-3.bmp\",\"pakata\",\"Up\",\"40\",\"3\",\"9\",\"2\",\"P\",\"C\",\"41\"
\"\",\"\",\"approach-retreat\",\"45\",\"449518\",\"0.0-45.0\",\"\",\"\",\"2-1\",\"5112\",\"37\",\"1\",\"Training\",\"Stims/Figures/128-J-10-3.bmp\",\"mamala\",\"Left\",\"37\",\"3\",\"10\",\"2\",\"S\",\"C\",\"42\"
\"\",\"\",\"approach-retreat\",\"46\",\"455590\",\"0.0-46.0\",\"\",\"\",\"2-1\",\"4564\",\"38\",\"1\",\"Training\",\"Stims/Figures/85-C-20-2.bmp\",\"pakata\",\"Down\",\"38\",\"3\",\"11\",\"2\",\"P\",\"C\",\"43\"
\"\",\"\",\"approach-retreat\",\"47\",\"461846\",\"0.0-47.0\",\"\",\"\",\"2-1\",\"4747\",\"39\",\"1\",\"Training\",\"Stims/Figures/27-J-0-1.bmp\",\"mamala\",\"Right\",\"39\",\"3\",\"12\",\"2\",\"S\",\"C\",\"44\"
\"\",\"\",\"approach-retreat\",\"48\",\"469391\",\"0.0-48.0\",\"\",\"\",\"2-1\",\"6036\",\"39\",\"1\",\"Training\",\"Stims/Figures/144-C-30-3.bmp\",\"pakata\",\"Left\",\"39\",\"3\",\"13\",\"2\",\"P\",\"C\",\"45\"
\"\",\"\",\"approach-retreat\",\"49\",\"476192\",\"0.0-49.0\",\"\",\"\",\"2-1\",\"5295\",\"40\",\"1\",\"Training\",\"Stims/Figures/74-C-20-4.bmp\",\"pakata\",\"Up\",\"40\",\"3\",\"14\",\"2\",\"P\",\"C\",\"46\"
\"\",\"\",\"approach-retreat\",\"50\",\"482711\",\"0.0-50.0\",\"\",\"\",\"2-1\",\"5010\",\"40\",\"1\",\"Training\",\"Stims/Figures/57-J-0-1.bmp\",\"mamala\",\"Down\",\"40\",\"3\",\"15\",\"2\",\"S\",\"C\",\"47\"
\"\",\"\",\"approach-retreat\",\"51\",\"489162\",\"0.0-51.0\",\"\",\"\",\"2-1\",\"4942\",\"37\",\"1\",\"Training\",\"Stims/Figures/27-C-30-1.bmp\",\"pakata\",\"Right\",\"37\",\"3\",\"16\",\"2\",\"P\",\"C\",\"48\"
\"\",\"\",\"approach-retreat\",\"52\",\"495747\",\"0.0-52.0\",\"\",\"\",\"2-1\",\"5075\",\"39\",\"1\",\"Training\",\"Stims/Figures/84-C-20-2.bmp\",\"pakata\",\"Left\",\"39\",\"4\",\"1\",\"2\",\"P\",\"C\",\"49\"
\"\",\"\",\"approach-retreat\",\"53\",\"504479\",\"0.0-53.0\",\"\",\"\",\"2-1\",\"7224\",\"38\",\"1\",\"Training\",\"Stims/Figures/27-J-0-1.bmp\",\"mamala\",\"Up\",\"38\",\"4\",\"2\",\"2\",\"S\",\"C\",\"50\"
\"\",\"\",\"approach-retreat\",\"54\",\"510642\",\"0.0-54.0\",\"\",\"\",\"2-1\",\"4654\",\"37\",\"1\",\"Training\",\"Stims/Figures/27-C-30-1.bmp\",\"pakata\",\"Right\",\"37\",\"4\",\"3\",\"2\",\"P\",\"C\",\"51\"
\"\",\"\",\"approach-retreat\",\"55\",\"519156\",\"0.0-55.0\",\"\",\"\",\"2-1\",\"7006\",\"39\",\"1\",\"Training\",\"Stims/Figures/85-J-0-2.bmp\",\"mamala\",\"Right\",\"39\",\"4\",\"4\",\"2\",\"S\",\"C\",\"52\"
\"\",\"\",\"approach-retreat\",\"56\",\"527011\",\"0.0-56.0\",\"\",\"\",\"2-1\",\"6346\",\"40\",\"1\",\"Training\",\"Stims/Figures/74-C-20-4.bmp\",\"pakata\",\"Up\",\"40\",\"4\",\"5\",\"2\",\"P\",\"C\",\"53\"
\"\",\"\",\"approach-retreat\",\"57\",\"533660\",\"0.0-57.0\",\"\",\"\",\"2-1\",\"5139\",\"37\",\"1\",\"Training\",\"Stims/Figures/57-J-0-1.bmp\",\"mamala\",\"Left\",\"37\",\"4\",\"6\",\"2\",\"S\",\"C\",\"54\"
\"\",\"\",\"approach-retreat\",\"58\",\"541258\",\"0.0-58.0\",\"\",\"\",\"2-1\",\"6090\",\"37\",\"1\",\"Training\",\"Stims/Figures/144-C-30-3.bmp\",\"pakata\",\"Right\",\"37\",\"4\",\"7\",\"2\",\"P\",\"C\",\"55\"
\"\",\"\",\"approach-retreat\",\"59\",\"548284\",\"0.0-59.0\",\"\",\"\",\"2-1\",\"5516\",\"39\",\"1\",\"Training\",\"Stims/Figures/57-C-30-1.bmp\",\"pakata\",\"Left\",\"39\",\"4\",\"8\",\"2\",\"P\",\"C\",\"56\"
\"\",\"\",\"approach-retreat\",\"60\",\"555900\",\"0.0-60.0\",\"\",\"\",\"2-1\",\"6107\",\"38\",\"1\",\"Training\",\"Stims/Figures/102-J-10-4.bmp\",\"mamala\",\"Up\",\"38\",\"4\",\"9\",\"2\",\"S\",\"C\",\"57\"
\"\",\"\",\"approach-retreat\",\"61\",\"562691\",\"0.0-61.0\",\"\",\"\",\"2-1\",\"5281\",\"37\",\"1\",\"Training\",\"Stims/Figures/128-C-30-3.bmp\",\"pakata\",\"Right\",\"37\",\"4\",\"10\",\"2\",\"P\",\"C\",\"58\"
\"\",\"\",\"approach-retreat\",\"62\",\"569115\",\"0.0-62.0\",\"\",\"\",\"2-1\",\"4915\",\"40\",\"1\",\"Training\",\"Stims/Figures/128-J-10-3.bmp\",\"mamala\",\"Down\",\"40\",\"4\",\"11\",\"2\",\"S\",\"C\",\"59\"
\"\",\"\",\"approach-retreat\",\"63\",\"576691\",\"0.0-63.0\",\"\",\"\",\"2-1\",\"6068\",\"40\",\"1\",\"Training\",\"Stims/Figures/144-J-10-3.bmp\",\"mamala\",\"Down\",\"40\",\"4\",\"12\",\"2\",\"S\",\"C\",\"60\"
\"\",\"\",\"approach-retreat\",\"64\",\"583423\",\"0.0-64.0\",\"\",\"\",\"2-1\",\"5223\",\"37\",\"1\",\"Training\",\"Stims/Figures/74-J-10-4.bmp\",\"mamala\",\"Left\",\"37\",\"4\",\"13\",\"2\",\"S\",\"C\",\"61\"
\"\",\"\",\"approach-retreat\",\"65\",\"589591\",\"0.0-65.0\",\"\",\"\",\"2-1\",\"4659\",\"40\",\"1\",\"Training\",\"Stims/Figures/102-C-20-4.bmp\",\"pakata\",\"Up\",\"40\",\"4\",\"14\",\"2\",\"P\",\"C\",\"62\"
\"\",\"\",\"approach-retreat\",\"66\",\"598589\",\"0.0-66.0\",\"\",\"\",\"2-1\",\"7490\",\"40\",\"1\",\"Training\",\"Stims/Figures/84-J-0-2.bmp\",\"mamala\",\"Down\",\"40\",\"4\",\"15\",\"2\",\"S\",\"C\",\"63\"
\"\",\"\",\"approach-retreat\",\"67\",\"604679\",\"0.0-67.0\",\"\",\"\",\"2-1\",\"4581\",\"38\",\"1\",\"Training\",\"Stims/Figures/85-C-20-2.bmp\",\"pakata\",\"Down\",\"38\",\"4\",\"16\",\"2\",\"P\",\"C\",\"64\"
\"\",\"\",\"approach-retreat\",\"68\",\"611173\",\"0.0-68.0\",\"\",\"\",\"2-1\",\"4984\",\"40\",\"1\",\"Training\",\"Stims/Figures/84-J-0-2.bmp\",\"mamala\",\"Down\",\"40\",\"5\",\"1\",\"2\",\"S\",\"C\",\"65\"
\"\",\"\",\"approach-retreat\",\"69\",\"617356\",\"0.0-69.0\",\"\",\"\",\"2-1\",\"4674\",\"40\",\"1\",\"Training\",\"Stims/Figures/74-J-10-4.bmp\",\"mamala\",\"Down\",\"40\",\"5\",\"2\",\"2\",\"S\",\"C\",\"66\"
\"\",\"\",\"approach-retreat\",\"70\",\"624632\",\"0.0-70.0\",\"\",\"\",\"2-1\",\"5767\",\"40\",\"1\",\"Training\",\"Stims/Figures/128-C-30-3.bmp\",\"pakata\",\"Up\",\"40\",\"5\",\"3\",\"2\",\"P\",\"C\",\"67\"
\"\",\"\",\"approach-retreat\",\"71\",\"631902\",\"0.0-71.0\",\"\",\"\",\"2-1\",\"5761\",\"37\",\"1\",\"Training\",\"Stims/Figures/74-C-20-4.bmp\",\"pakata\",\"Right\",\"37\",\"5\",\"4\",\"2\",\"P\",\"C\",\"68\"
\"\",\"\",\"approach-retreat\",\"72\",\"638059\",\"0.0-72.0\",\"\",\"\",\"2-1\",\"4647\",\"37\",\"1\",\"Training\",\"Stims/Figures/84-C-20-2.bmp\",\"pakata\",\"Right\",\"37\",\"5\",\"5\",\"2\",\"P\",\"C\",\"69\"
\"\",\"\",\"approach-retreat\",\"73\",\"644146\",\"0.0-73.0\",\"\",\"\",\"2-1\",\"4578\",\"37\",\"1\",\"Training\",\"Stims/Figures/102-J-10-4.bmp\",\"mamala\",\"Left\",\"37\",\"5\",\"6\",\"2\",\"S\",\"C\",\"70\"
\"\",\"\",\"approach-retreat\",\"74\",\"650578\",\"0.0-74.0\",\"\",\"\",\"2-1\",\"4922\",\"37\",\"1\",\"Training\",\"Stims/Figures/102-C-20-4.bmp\",\"pakata\",\"Right\",\"37\",\"5\",\"7\",\"2\",\"P\",\"C\",\"71\"
\"\",\"\",\"approach-retreat\",\"75\",\"659811\",\"0.0-75.0\",\"\",\"\",\"2-1\",\"7725\",\"39\",\"1\",\"Training\",\"Stims/Figures/57-C-30-1.bmp\",\"pakata\",\"Left\",\"39\",\"5\",\"8\",\"2\",\"P\",\"C\",\"72\"
\"\",\"\",\"approach-retreat\",\"76\",\"666214\",\"0.0-76.0\",\"\",\"\",\"2-1\",\"4893\",\"37\",\"1\",\"Training\",\"Stims/Figures/57-J-0-1.bmp\",\"mamala\",\"Left\",\"37\",\"5\",\"9\",\"2\",\"S\",\"C\",\"73\"
\"\",\"\",\"approach-retreat\",\"77\",\"672157\",\"0.0-77.0\",\"\",\"\",\"2-1\",\"4434\",\"39\",\"1\",\"Training\",\"Stims/Figures/85-J-0-2.bmp\",\"mamala\",\"Right\",\"39\",\"5\",\"10\",\"2\",\"S\",\"C\",\"74\"
\"\",\"\",\"approach-retreat\",\"78\",\"678347\",\"0.0-78.0\",\"\",\"\",\"2-1\",\"4679\",\"38\",\"1\",\"Training\",\"Stims/Figures/144-C-30-3.bmp\",\"pakata\",\"Down\",\"38\",\"5\",\"11\",\"2\",\"P\",\"C\",\"75\"
\"\",\"\",\"approach-retreat\",\"79\",\"685119\",\"0.0-79.0\",\"\",\"\",\"2-1\",\"5262\",\"39\",\"1\",\"Training\",\"Stims/Figures/27-C-30-1.bmp\",\"pakata\",\"Left\",\"39\",\"5\",\"12\",\"2\",\"P\",\"C\",\"76\"
\"\",\"\",\"approach-retreat\",\"80\",\"691390\",\"0.0-80.0\",\"\",\"\",\"2-1\",\"4761\",\"40\",\"1\",\"Training\",\"Stims/Figures/27-J-0-1.bmp\",\"mamala\",\"Down\",\"40\",\"5\",\"13\",\"2\",\"S\",\"C\",\"77\"
\"\",\"\",\"approach-retreat\",\"81\",\"697578\",\"0.0-81.0\",\"\",\"\",\"2-1\",\"4680\",\"38\",\"1\",\"Training\",\"Stims/Figures/128-J-10-3.bmp\",\"mamala\",\"Up\",\"38\",\"5\",\"14\",\"2\",\"S\",\"C\",\"78\"
\"\",\"\",\"approach-retreat\",\"82\",\"704489\",\"0.0-82.0\",\"\",\"\",\"2-1\",\"5402\",\"40\",\"1\",\"Training\",\"Stims/Figures/85-C-20-2.bmp\",\"pakata\",\"Up\",\"40\",\"5\",\"15\",\"2\",\"P\",\"C\",\"79\"
\"\",\"\",\"approach-retreat\",\"83\",\"714308\",\"0.0-83.0\",\"\",\"\",\"2-1\",\"8310\",\"38\",\"1\",\"Training\",\"Stims/Figures/144-J-10-3.bmp\",\"mamala\",\"Up\",\"38\",\"5\",\"16\",\"2\",\"S\",\"C\",\"80\"
\"\",\"\",\"approach-retreat\",\"84\",\"721739\",\"0.0-84.0\",\"\",\"\",\"2-1\",\"5921\",\"38\",\"1\",\"Training\",\"Stims/Figures/102-C-20-4.bmp\",\"pakata\",\"Down\",\"38\",\"6\",\"1\",\"2\",\"P\",\"C\",\"81\"
\"\",\"\",\"approach-retreat\",\"85\",\"729298\",\"0.0-85.0\",\"\",\"\",\"2-1\",\"6049\",\"37\",\"1\",\"Training\",\"Stims/Figures/144-C-30-3.bmp\",\"pakata\",\"Right\",\"37\",\"6\",\"2\",\"2\",\"P\",\"C\",\"82\"
\"\",\"\",\"approach-retreat\",\"86\",\"735971\",\"0.0-86.0\",\"\",\"\",\"2-1\",\"5164\",\"39\",\"1\",\"Training\",\"Stims/Figures/128-C-30-3.bmp\",\"pakata\",\"Left\",\"39\",\"6\",\"3\",\"2\",\"P\",\"C\",\"83\"
\"\",\"\",\"approach-retreat\",\"87\",\"742765\",\"0.0-87.0\",\"\",\"\",\"2-1\",\"5285\",\"40\",\"1\",\"Training\",\"Stims/Figures/74-C-20-4.bmp\",\"pakata\",\"Up\",\"40\",\"6\",\"4\",\"2\",\"P\",\"C\",\"84\"
\"\",\"\",\"approach-retreat\",\"88\",\"749417\",\"0.0-88.0\",\"\",\"\",\"2-1\",\"5144\",\"39\",\"1\",\"Training\",\"Stims/Figures/84-J-0-2.bmp\",\"mamala\",\"Right\",\"39\",\"6\",\"5\",\"2\",\"S\",\"C\",\"85\"
\"\",\"\",\"approach-retreat\",\"89\",\"756160\",\"0.0-89.0\",\"\",\"\",\"2-1\",\"5233\",\"38\",\"1\",\"Training\",\"Stims/Figures/57-J-0-1.bmp\",\"mamala\",\"Up\",\"38\",\"6\",\"6\",\"2\",\"S\",\"C\",\"86\"
\"\",\"\",\"approach-retreat\",\"90\",\"763001\",\"0.0-90.0\",\"\",\"\",\"2-1\",\"5332\",\"37\",\"1\",\"Training\",\"Stims/Figures/102-J-10-4.bmp\",\"mamala\",\"Left\",\"37\",\"6\",\"7\",\"2\",\"S\",\"C\",\"87\"
\"\",\"\",\"approach-retreat\",\"91\",\"770155\",\"0.0-91.0\",\"\",\"\",\"2-1\",\"5646\",\"38\",\"1\",\"Training\",\"Stims/Figures/74-J-10-4.bmp\",\"mamala\",\"Up\",\"38\",\"6\",\"8\",\"2\",\"S\",\"C\",\"88\"
\"\",\"\",\"approach-retreat\",\"92\",\"777683\",\"0.0-92.0\",\"\",\"\",\"2-1\",\"6015\",\"39\",\"1\",\"Training\",\"Stims/Figures/128-J-10-3.bmp\",\"mamala\",\"Right\",\"39\",\"6\",\"9\",\"2\",\"S\",\"C\",\"89\"
\"\",\"\",\"approach-retreat\",\"93\",\"784172\",\"0.0-93.0\",\"\",\"\",\"2-1\",\"4981\",\"40\",\"1\",\"Training\",\"Stims/Figures/27-J-0-1.bmp\",\"mamala\",\"Down\",\"40\",\"6\",\"10\",\"2\",\"S\",\"C\",\"90\"
\"\",\"\",\"approach-retreat\",\"94\",\"790261\",\"0.0-94.0\",\"\",\"\",\"2-1\",\"4580\",\"39\",\"1\",\"Training\",\"Stims/Figures/85-C-20-2.bmp\",\"pakata\",\"Left\",\"39\",\"6\",\"11\",\"2\",\"P\",\"C\",\"91\"
\"\",\"\",\"approach-retreat\",\"95\",\"796440\",\"0.0-95.0\",\"\",\"\",\"2-1\",\"4670\",\"38\",\"1\",\"Training\",\"Stims/Figures/27-C-30-1.bmp\",\"pakata\",\"Down\",\"38\",\"6\",\"12\",\"2\",\"P\",\"C\",\"92\"
\"\",\"\",\"approach-retreat\",\"96\",\"803977\",\"0.0-96.0\",\"\",\"\",\"2-1\",\"6028\",\"38\",\"1\",\"Training\",\"Stims/Figures/85-J-0-2.bmp\",\"mamala\",\"Up\",\"38\",\"6\",\"13\",\"2\",\"S\",\"C\",\"93\"
\"\",\"\",\"approach-retreat\",\"97\",\"810325\",\"0.0-97.0\",\"\",\"\",\"2-1\",\"4839\",\"37\",\"1\",\"Training\",\"Stims/Figures/84-C-20-2.bmp\",\"pakata\",\"Right\",\"37\",\"6\",\"14\",\"2\",\"P\",\"C\",\"94\"
\"\",\"\",\"approach-retreat\",\"98\",\"817250\",\"0.0-98.0\",\"\",\"\",\"2-1\",\"5413\",\"40\",\"1\",\"Training\",\"Stims/Figures/144-J-10-3.bmp\",\"mamala\",\"Down\",\"40\",\"6\",\"15\",\"2\",\"S\",\"C\",\"95\"
\"\",\"\",\"approach-retreat\",\"99\",\"823564\",\"0.0-99.0\",\"\",\"\",\"2-1\",\"4807\",\"39\",\"1\",\"Training\",\"Stims/Figures/57-C-30-1.bmp\",\"pakata\",\"Left\",\"39\",\"6\",\"16\",\"2\",\"P\",\"C\",\"96\"
\"\",\"\",\"approach-retreat\",\"100\",\"829452\",\"0.0-100.0\",\"\",\"\",\"2-1\",\"4382\",\"39\",\"1\",\"Training\",\"Stims/Figures/57-C-30-1.bmp\",\"pakata\",\"Left\",\"39\",\"7\",\"1\",\"2\",\"P\",\"C\",\"97\"
\"\",\"\",\"approach-retreat\",\"101\",\"835665\",\"0.0-101.0\",\"\",\"\",\"2-1\",\"4702\",\"38\",\"1\",\"Training\",\"Stims/Figures/102-J-10-4.bmp\",\"mamala\",\"Up\",\"38\",\"7\",\"2\",\"2\",\"S\",\"C\",\"98\"
\"\",\"\",\"approach-retreat\",\"102\",\"842448\",\"0.0-102.0\",\"\",\"\",\"2-1\",\"5272\",\"39\",\"1\",\"Training\",\"Stims/Figures/144-J-10-3.bmp\",\"mamala\",\"Right\",\"39\",\"7\",\"3\",\"2\",\"S\",\"C\",\"99\"
\"\",\"\",\"approach-retreat\",\"103\",\"849506\",\"0.0-103.0\",\"\",\"\",\"2-1\",\"5549\",\"38\",\"1\",\"Training\",\"Stims/Figures/85-C-20-2.bmp\",\"pakata\",\"Down\",\"38\",\"7\",\"4\",\"2\",\"P\",\"C\",\"100\"
\"\",\"\",\"approach-retreat\",\"104\",\"856353\",\"0.0-104.0\",\"\",\"\",\"2-1\",\"5338\",\"40\",\"1\",\"Training\",\"Stims/Figures/84-C-20-2.bmp\",\"pakata\",\"Up\",\"40\",\"7\",\"5\",\"2\",\"P\",\"C\",\"101\"
\"\",\"\",\"approach-retreat\",\"105\",\"862933\",\"0.0-105.0\",\"\",\"\",\"2-1\",\"5073\",\"39\",\"1\",\"Training\",\"Stims/Figures/27-C-30-1.bmp\",\"pakata\",\"Left\",\"39\",\"7\",\"6\",\"2\",\"P\",\"C\",\"102\"
\"\",\"\",\"approach-retreat\",\"106\",\"869153\",\"0.0-106.0\",\"\",\"\",\"2-1\",\"4712\",\"40\",\"1\",\"Training\",\"Stims/Figures/85-J-0-2.bmp\",\"mamala\",\"Down\",\"40\",\"7\",\"7\",\"2\",\"S\",\"C\",\"103\"
\"\",\"\",\"approach-retreat\",\"107\",\"876320\",\"0.0-107.0\",\"\",\"\",\"2-1\",\"5657\",\"40\",\"1\",\"Training\",\"Stims/Figures/102-C-20-4.bmp\",\"pakata\",\"Up\",\"40\",\"7\",\"8\",\"2\",\"P\",\"C\",\"104\"
\"\",\"\",\"approach-retreat\",\"108\",\"882701\",\"0.0-108.0\",\"\",\"\",\"2-1\",\"4872\",\"38\",\"1\",\"Training\",\"Stims/Figures/74-C-20-4.bmp\",\"pakata\",\"Down\",\"38\",\"7\",\"9\",\"2\",\"P\",\"C\",\"105\"
\"\",\"\",\"approach-retreat\",\"109\",\"890563\",\"0.0-109.0\",\"\",\"\",\"2-1\",\"6354\",\"39\",\"1\",\"Training\",\"Stims/Figures/74-J-10-4.bmp\",\"mamala\",\"Right\",\"39\",\"7\",\"10\",\"2\",\"S\",\"C\",\"106\"
\"\",\"\",\"approach-retreat\",\"110\",\"897211\",\"0.0-110.0\",\"\",\"\",\"2-1\",\"5140\",\"37\",\"1\",\"Training\",\"Stims/Figures/128-J-10-3.bmp\",\"mamala\",\"Left\",\"37\",\"7\",\"11\",\"2\",\"S\",\"C\",\"107\"
\"\",\"\",\"approach-retreat\",\"111\",\"903223\",\"0.0-111.0\",\"\",\"\",\"2-1\",\"4502\",\"39\",\"1\",\"Training\",\"Stims/Figures/84-J-0-2.bmp\",\"mamala\",\"Right\",\"39\",\"7\",\"12\",\"2\",\"S\",\"C\",\"108\"
\"\",\"\",\"approach-retreat\",\"112\",\"909495\",\"0.0-112.0\",\"\",\"\",\"2-1\",\"4763\",\"39\",\"1\",\"Training\",\"Stims/Figures/144-C-30-3.bmp\",\"pakata\",\"Left\",\"39\",\"7\",\"13\",\"2\",\"P\",\"C\",\"109\"
\"\",\"\",\"approach-retreat\",\"113\",\"916969\",\"0.0-113.0\",\"\",\"\",\"2-1\",\"5965\",\"40\",\"1\",\"Training\",\"Stims/Figures/27-J-0-1.bmp\",\"mamala\",\"Down\",\"40\",\"7\",\"14\",\"2\",\"S\",\"C\",\"110\"
\"\",\"\",\"approach-retreat\",\"114\",\"923869\",\"0.0-114.0\",\"\",\"\",\"2-1\",\"5392\",\"40\",\"1\",\"Training\",\"Stims/Figures/128-C-30-3.bmp\",\"pakata\",\"Up\",\"40\",\"7\",\"15\",\"2\",\"P\",\"C\",\"111\"
\"\",\"\",\"approach-retreat\",\"115\",\"930335\",\"0.0-115.0\",\"\",\"\",\"2-1\",\"4958\",\"39\",\"1\",\"Training\",\"Stims/Figures/57-J-0-1.bmp\",\"mamala\",\"Right\",\"39\",\"7\",\"16\",\"2\",\"S\",\"C\",\"112\"
\"\",\"\",\"approach-retreat\",\"116\",\"936535\",\"0.0-116.0\",\"\",\"\",\"2-1\",\"4690\",\"40\",\"1\",\"Training\",\"Stims/Figures/57-J-0-1.bmp\",\"mamala\",\"Down\",\"40\",\"8\",\"1\",\"2\",\"S\",\"C\",\"113\"
\"\",\"\",\"approach-retreat\",\"117\",\"943380\",\"0.0-117.0\",\"\",\"\",\"2-1\",\"5336\",\"37\",\"1\",\"Training\",\"Stims/Figures/102-J-10-4.bmp\",\"mamala\",\"Left\",\"37\",\"8\",\"2\",\"2\",\"S\",\"C\",\"114\"
\"\",\"\",\"approach-retreat\",\"118\",\"949848\",\"0.0-118.0\",\"\",\"\",\"2-1\",\"4959\",\"38\",\"1\",\"Training\",\"Stims/Figures/74-J-10-4.bmp\",\"mamala\",\"Up\",\"38\",\"8\",\"3\",\"2\",\"S\",\"C\",\"115\"
\"\",\"\",\"approach-retreat\",\"119\",\"956658\",\"0.0-119.0\",\"\",\"\",\"2-1\",\"5302\",\"37\",\"1\",\"Training\",\"Stims/Figures/27-J-0-1.bmp\",\"mamala\",\"Left\",\"37\",\"8\",\"4\",\"2\",\"S\",\"C\",\"116\"
\"\",\"\",\"approach-retreat\",\"120\",\"962932\",\"0.0-120.0\",\"\",\"\",\"2-1\",\"4765\",\"38\",\"1\",\"Training\",\"Stims/Figures/128-C-30-3.bmp\",\"pakata\",\"Down\",\"38\",\"8\",\"5\",\"2\",\"P\",\"C\",\"117\"
\"\",\"\",\"approach-retreat\",\"121\",\"972190\",\"0.0-121.0\",\"\",\"\",\"2-1\",\"7751\",\"38\",\"1\",\"Training\",\"Stims/Figures/144-C-30-3.bmp\",\"pakata\",\"Down\",\"38\",\"8\",\"6\",\"2\",\"P\",\"C\",\"118\"
\"\",\"\",\"approach-retreat\",\"122\",\"979048\",\"0.0-122.0\",\"\",\"\",\"2-1\",\"5348\",\"39\",\"1\",\"Training\",\"Stims/Figures/74-C-20-4.bmp\",\"pakata\",\"Left\",\"39\",\"8\",\"7\",\"2\",\"P\",\"C\",\"119\"
\"\",\"\",\"approach-retreat\",\"123\",\"986253\",\"0.0-123.0\",\"\",\"\",\"2-1\",\"5697\",\"38\",\"1\",\"Training\",\"Stims/Figures/85-J-0-2.bmp\",\"mamala\",\"Up\",\"38\",\"8\",\"8\",\"2\",\"S\",\"C\",\"120\"
\"\",\"\",\"approach-retreat\",\"124\",\"1004635\",\"0.0-124.0\",\"\",\"\",\"2-1\",\"16873\",\"37\",\"1\",\"Training\",\"Stims/Figures/27-C-30-1.bmp\",\"pakata\",\"Right\",\"37\",\"8\",\"9\",\"2\",\"P\",\"C\",\"121\"
\"\",\"\",\"approach-retreat\",\"125\",\"1010849\",\"0.0-125.0\",\"\",\"\",\"2-1\",\"4705\",\"39\",\"1\",\"Training\",\"Stims/Figures/84-J-0-2.bmp\",\"mamala\",\"Right\",\"39\",\"8\",\"10\",\"2\",\"S\",\"C\",\"122\"
\"\",\"\",\"approach-retreat\",\"126\",\"1017131\",\"0.0-126.0\",\"\",\"\",\"2-1\",\"4773\",\"39\",\"1\",\"Training\",\"Stims/Figures/128-J-10-3.bmp\",\"mamala\",\"Right\",\"39\",\"8\",\"11\",\"2\",\"S\",\"C\",\"123\"
\"\",\"\",\"approach-retreat\",\"127\",\"1023531\",\"0.0-127.0\",\"\",\"\",\"2-1\",\"4892\",\"38\",\"1\",\"Training\",\"Stims/Figures/102-C-20-4.bmp\",\"pakata\",\"Down\",\"38\",\"8\",\"12\",\"2\",\"P\",\"C\",\"124\"
\"\",\"\",\"approach-retreat\",\"128\",\"1029931\",\"0.0-128.0\",\"\",\"\",\"2-1\",\"4890\",\"39\",\"1\",\"Training\",\"Stims/Figures/144-J-10-3.bmp\",\"mamala\",\"Right\",\"39\",\"8\",\"13\",\"2\",\"S\",\"C\",\"125\"
\"\",\"\",\"approach-retreat\",\"129\",\"1035785\",\"0.0-129.0\",\"\",\"\",\"2-1\",\"4344\",\"39\",\"1\",\"Training\",\"Stims/Figures/84-C-20-2.bmp\",\"pakata\",\"Left\",\"39\",\"8\",\"14\",\"2\",\"P\",\"C\",\"126\"
\"\",\"\",\"approach-retreat\",\"130\",\"1042389\",\"0.0-130.0\",\"\",\"\",\"2-1\",\"5096\",\"40\",\"1\",\"Training\",\"Stims/Figures/85-C-20-2.bmp\",\"pakata\",\"Up\",\"40\",\"8\",\"15\",\"2\",\"P\",\"C\",\"127\"
\"\",\"\",\"approach-retreat\",\"131\",\"1050505\",\"0.0-131.0\",\"\",\"\",\"2-1\",\"6606\",\"40\",\"1\",\"Training\",\"Stims/Figures/57-C-30-1.bmp\",\"pakata\",\"Up\",\"40\",\"8\",\"16\",\"2\",\"P\",\"C\",\"128\"
\"\",\"\",\"approach-retreat\",\"132\",\"1057011\",\"0.0-132.0\",\"\",\"\",\"2-1\",\"4996\",\"39\",\"1\",\"Training\",\"Stims/Figures/57-C-30-1.bmp\",\"pakata\",\"Left\",\"39\",\"9\",\"1\",\"2\",\"P\",\"C\",\"129\"
\"\",\"\",\"approach-retreat\",\"133\",\"1063044\",\"0.0-133.0\",\"\",\"\",\"2-1\",\"4523\",\"37\",\"1\",\"Training\",\"Stims/Figures/102-C-20-4.bmp\",\"pakata\",\"Right\",\"37\",\"9\",\"2\",\"2\",\"P\",\"C\",\"130\"
\"\",\"\",\"approach-retreat\",\"134\",\"1069250\",\"0.0-134.0\",\"\",\"\",\"2-1\",\"4697\",\"38\",\"1\",\"Training\",\"Stims/Figures/84-C-20-2.bmp\",\"pakata\",\"Down\",\"38\",\"9\",\"3\",\"2\",\"P\",\"C\",\"131\"
\"\",\"\",\"approach-retreat\",\"135\",\"1075148\",\"0.0-135.0\",\"\",\"\",\"2-1\",\"4388\",\"39\",\"0\",\"Training\",\"Stims/Figures/27-J-0-1.bmp\",\"mamala\",\"Left\",\"37\",\"9\",\"4\",\"2\",\"S\",\"C\",\"132\"
\"\",\"\",\"approach-retreat\",\"136\",\"1082124\",\"0.0-136.0\",\"\",\"\",\"2-1\",\"5468\",\"39\",\"1\",\"Training\",\"Stims/Figures/85-J-0-2.bmp\",\"mamala\",\"Right\",\"39\",\"9\",\"5\",\"2\",\"S\",\"C\",\"133\"
\"\",\"\",\"approach-retreat\",\"137\",\"1088847\",\"0.0-137.0\",\"\",\"\",\"2-1\",\"5215\",\"39\",\"1\",\"Training\",\"Stims/Figures/102-J-10-4.bmp\",\"mamala\",\"Right\",\"39\",\"9\",\"6\",\"2\",\"S\",\"C\",\"134\"
\"\",\"\",\"approach-retreat\",\"138\",\"1095968\",\"0.0-138.0\",\"\",\"\",\"2-1\",\"5611\",\"37\",\"1\",\"Training\",\"Stims/Figures/74-J-10-4.bmp\",\"mamala\",\"Left\",\"37\",\"9\",\"7\",\"2\",\"S\",\"C\",\"135\"
\"\",\"\",\"approach-retreat\",\"139\",\"1103638\",\"0.0-139.0\",\"\",\"\",\"2-1\",\"6161\",\"40\",\"1\",\"Training\",\"Stims/Figures/85-C-20-2.bmp\",\"pakata\",\"Up\",\"40\",\"9\",\"8\",\"2\",\"P\",\"C\",\"136\"
\"\",\"\",\"approach-retreat\",\"140\",\"1110344\",\"0.0-140.0\",\"\",\"\",\"2-1\",\"5197\",\"38\",\"1\",\"Training\",\"Stims/Figures/144-J-10-3.bmp\",\"mamala\",\"Up\",\"38\",\"9\",\"9\",\"2\",\"S\",\"C\",\"137\"
\"\",\"\",\"approach-retreat\",\"141\",\"1117052\",\"0.0-141.0\",\"\",\"\",\"2-1\",\"5202\",\"37\",\"1\",\"Training\",\"Stims/Figures/57-J-0-1.bmp\",\"mamala\",\"Left\",\"37\",\"9\",\"10\",\"2\",\"S\",\"C\",\"138\"
\"\",\"\",\"approach-retreat\",\"142\",\"1123631\",\"0.0-142.0\",\"\",\"\",\"2-1\",\"5071\",\"40\",\"1\",\"Training\",\"Stims/Figures/128-C-30-3.bmp\",\"pakata\",\"Up\",\"40\",\"9\",\"11\",\"2\",\"P\",\"C\",\"139\"
\"\",\"\",\"approach-retreat\",\"143\",\"1129651\",\"0.0-143.0\",\"\",\"\",\"2-1\",\"4511\",\"37\",\"1\",\"Training\",\"Stims/Figures/74-C-20-4.bmp\",\"pakata\",\"Right\",\"37\",\"9\",\"12\",\"2\",\"P\",\"C\",\"140\"
\"\",\"\",\"approach-retreat\",\"144\",\"1136470\",\"0.0-144.0\",\"\",\"\",\"2-1\",\"5306\",\"38\",\"1\",\"Training\",\"Stims/Figures/144-C-30-3.bmp\",\"pakata\",\"Down\",\"38\",\"9\",\"13\",\"2\",\"P\",\"C\",\"141\"
\"\",\"\",\"approach-retreat\",\"145\",\"1143687\",\"0.0-145.0\",\"\",\"\",\"2-1\",\"5708\",\"40\",\"1\",\"Training\",\"Stims/Figures/27-C-30-1.bmp\",\"pakata\",\"Up\",\"40\",\"9\",\"14\",\"2\",\"P\",\"C\",\"142\"
\"\",\"\",\"approach-retreat\",\"146\",\"1149968\",\"0.0-146.0\",\"\",\"\",\"2-1\",\"4773\",\"40\",\"1\",\"Training\",\"Stims/Figures/84-J-0-2.bmp\",\"mamala\",\"Down\",\"40\",\"9\",\"15\",\"2\",\"S\",\"C\",\"143\"
\"\",\"\",\"approach-retreat\",\"147\",\"1157271\",\"0.0-147.0\",\"\",\"\",\"2-1\",\"5794\",\"40\",\"1\",\"Training\",\"Stims/Figures/128-J-10-3.bmp\",\"mamala\",\"Down\",\"40\",\"9\",\"16\",\"2\",\"S\",\"C\",\"144\"
\"277712\",\"\",\"instructions\",\"148\",\"1434984\",\"0.0-148.0\",\"[{\"\"page_index\"\":0,\"\"viewing_time\"\":277711}]\",\"\",\"\",\"\",\"\",\"\",\"\",\"\",\"\",\"\",\"\",\"\",\"\",\"\",\"\",\"\",\"\"
\"\",\"\",\"approach-retreat\",\"149\",\"1443958\",\"0.0-149.0\",\"\",\"\",\"2-1\",\"7467\",\"40\",\"1\",\"Testing\",\"Stims/Figures/7-C-20-4.bmp\",\"pakata\",\"Up\",\"40\",\"1\",\"1\",\"2\",\"P\",\"C\",\"1\"
\"\",\"\",\"approach-retreat\",\"150\",\"1451707\",\"0.0-150.0\",\"\",\"\",\"2-1\",\"6241\",\"39\",\"1\",\"Testing\",\"Stims/Figures/57-C-30-1.bmp\",\"pakata\",\"Left\",\"39\",\"1\",\"2\",\"2\",\"P\",\"C\",\"2\"
\"\",\"\",\"approach-retreat\",\"151\",\"1458125\",\"0.0-151.0\",\"\",\"\",\"2-1\",\"4909\",\"40\",\"1\",\"Testing\",\"Stims/Figures/85-C-20-2.bmp\",\"pakata\",\"Up\",\"40\",\"1\",\"3\",\"2\",\"P\",\"C\",\"3\"
\"\",\"\",\"approach-retreat\",\"152\",\"1464579\",\"0.0-152.0\",\"\",\"\",\"2-1\",\"4946\",\"38\",\"1\",\"Testing\",\"Stims/Figures/93-J-0-1.bmp\",\"mamala\",\"Up\",\"38\",\"1\",\"4\",\"2\",\"S\",\"C\",\"4\"
\"\",\"\",\"approach-retreat\",\"153\",\"1471109\",\"0.0-153.0\",\"\",\"\",\"2-1\",\"5023\",\"40\",\"1\",\"Testing\",\"Stims/Figures/85-J-0-2.bmp\",\"mamala\",\"Down\",\"40\",\"1\",\"5\",\"2\",\"S\",\"C\",\"5\"
\"\",\"\",\"approach-retreat\",\"154\",\"1477530\",\"0.0-154.0\",\"\",\"\",\"2-1\",\"4912\",\"39\",\"1\",\"Testing\",\"Stims/Figures/74-J-10-4.bmp\",\"mamala\",\"Right\",\"39\",\"1\",\"6\",\"2\",\"S\",\"C\",\"6\"
\"\",\"\",\"approach-retreat\",\"155\",\"1483455\",\"0.0-155.0\",\"\",\"\",\"2-1\",\"4418\",\"38\",\"1\",\"Testing\",\"Stims/Figures/128-C-30-3.bmp\",\"pakata\",\"Down\",\"38\",\"1\",\"7\",\"2\",\"P\",\"C\",\"7\"
\"\",\"\",\"approach-retreat\",\"156\",\"1491471\",\"0.0-156.0\",\"\",\"\",\"2-1\",\"6509\",\"37\",\"1\",\"Testing\",\"Stims/Figures/57-J-0-1.bmp\",\"mamala\",\"Left\",\"37\",\"1\",\"8\",\"2\",\"S\",\"C\",\"8\"
\"\",\"\",\"approach-retreat\",\"157\",\"1503342\",\"0.0-157.0\",\"\",\"\",\"2-1\",\"10364\",\"39\",\"1\",\"Testing\",\"Stims/Figures/102-J-10-4.bmp\",\"mamala\",\"Right\",\"39\",\"1\",\"9\",\"2\",\"S\",\"C\",\"9\"
\"\",\"\",\"approach-retreat\",\"158\",\"1509310\",\"0.0-158.0\",\"\",\"\",\"2-1\",\"4460\",\"38\",\"1\",\"Testing\",\"Stims/Figures/84-C-20-2.bmp\",\"pakata\",\"Down\",\"38\",\"1\",\"10\",\"2\",\"P\",\"C\",\"10\"
\"\",\"\",\"approach-retreat\",\"159\",\"1515889\",\"0.0-159.0\",\"\",\"\",\"2-1\",\"5068\",\"38\",\"1\",\"Testing\",\"Stims/Figures/100-C-30-3.bmp\",\"pakata\",\"Down\",\"38\",\"1\",\"11\",\"2\",\"P\",\"C\",\"11\"
\"\",\"\",\"approach-retreat\",\"160\",\"1524365\",\"0.0-160.0\",\"\",\"\",\"2-1\",\"6967\",\"40\",\"1\",\"Testing\",\"Stims/Figures/102-C-20-4.bmp\",\"pakata\",\"Up\",\"40\",\"1\",\"12\",\"2\",\"P\",\"C\",\"12\"
\"\",\"\",\"approach-retreat\",\"161\",\"1532597\",\"0.0-161.0\",\"\",\"\",\"2-1\",\"6724\",\"38\",\"1\",\"Testing\",\"Stims/Figures/144-J-10-3.bmp\",\"mamala\",\"Up\",\"38\",\"1\",\"13\",\"2\",\"S\",\"C\",\"13\"
\"\",\"\",\"approach-retreat\",\"162\",\"1538963\",\"0.0-162.0\",\"\",\"\",\"2-1\",\"4859\",\"39\",\"1\",\"Testing\",\"Stims/Figures/94-C-20-2.bmp\",\"pakata\",\"Left\",\"39\",\"1\",\"14\",\"2\",\"P\",\"C\",\"14\"
\"\",\"\",\"approach-retreat\",\"163\",\"1545299\",\"0.0-163.0\",\"\",\"\",\"2-1\",\"4827\",\"37\",\"1\",\"Testing\",\"Stims/Figures/84-J-0-2.bmp\",\"mamala\",\"Left\",\"37\",\"1\",\"15\",\"2\",\"S\",\"C\",\"15\"
\"\",\"\",\"approach-retreat\",\"164\",\"1563605\",\"0.0-164.0\",\"\",\"\",\"2-1\",\"16800\",\"37\",\"1\",\"Testing\",\"Stims/Figures/7-J-10-4.bmp\",\"mamala\",\"Left\",\"37\",\"1\",\"16\",\"2\",\"S\",\"C\",\"16\"
\"\",\"\",\"approach-retreat\",\"165\",\"1570955\",\"0.0-165.0\",\"\",\"\",\"2-1\",\"5837\",\"40\",\"1\",\"Testing\",\"Stims/Figures/27-C-30-1.bmp\",\"pakata\",\"Up\",\"40\",\"1\",\"17\",\"2\",\"P\",\"C\",\"17\"
\"\",\"\",\"approach-retreat\",\"166\",\"1577602\",\"0.0-166.0\",\"\",\"\",\"2-1\",\"5139\",\"39\",\"1\",\"Testing\",\"Stims/Figures/94-J-0-2.bmp\",\"mamala\",\"Right\",\"39\",\"1\",\"18\",\"2\",\"S\",\"C\",\"18\"
\"\",\"\",\"approach-retreat\",\"167\",\"1583692\",\"0.0-167.0\",\"\",\"\",\"2-1\",\"4575\",\"37\",\"1\",\"Testing\",\"Stims/Figures/144-C-30-3.bmp\",\"pakata\",\"Right\",\"37\",\"1\",\"19\",\"2\",\"P\",\"C\",\"19\"
\"\",\"\",\"approach-retreat\",\"168\",\"1591398\",\"0.0-168.0\",\"\",\"\",\"2-1\",\"6199\",\"40\",\"1\",\"Testing\",\"Stims/Figures/100-J-10-3.bmp\",\"mamala\",\"Down\",\"40\",\"1\",\"20\",\"2\",\"S\",\"C\",\"20\"
\"\",\"\",\"approach-retreat\",\"169\",\"1599272\",\"0.0-169.0\",\"\",\"\",\"2-1\",\"6367\",\"39\",\"1\",\"Testing\",\"Stims/Figures/128-J-10-3.bmp\",\"mamala\",\"Right\",\"39\",\"1\",\"21\",\"2\",\"S\",\"C\",\"21\"
\"\",\"\",\"approach-retreat\",\"170\",\"1605458\",\"0.0-170.0\",\"\",\"\",\"2-1\",\"4677\",\"37\",\"1\",\"Testing\",\"Stims/Figures/74-C-20-4.bmp\",\"pakata\",\"Right\",\"37\",\"1\",\"22\",\"2\",\"P\",\"C\",\"22\"
\"\",\"\",\"approach-retreat\",\"171\",\"1611731\",\"0.0-171.0\",\"\",\"\",\"2-1\",\"4766\",\"37\",\"1\",\"Testing\",\"Stims/Figures/27-J-0-1.bmp\",\"mamala\",\"Left\",\"37\",\"1\",\"23\",\"2\",\"S\",\"C\",\"23\"
\"\",\"\",\"approach-retreat\",\"172\",\"1617707\",\"0.0-172.0\",\"\",\"\",\"2-1\",\"4470\",\"38\",\"1\",\"Testing\",\"Stims/Figures/93-C-30-1.bmp\",\"pakata\",\"Down\",\"38\",\"1\",\"24\",\"2\",\"P\",\"C\",\"24\"
\"\",\"\",\"approach-retreat\",\"173\",\"1623759\",\"0.0-173.0\",\"\",\"\",\"2-1\",\"4543\",\"40\",\"1\",\"Testing\",\"Stims/Figures/27-C-30-1.bmp\",\"pakata\",\"Up\",\"40\",\"2\",\"1\",\"2\",\"P\",\"C\",\"25\"
\"\",\"\",\"approach-retreat\",\"174\",\"1630273\",\"0.0-174.0\",\"\",\"\",\"2-1\",\"5007\",\"38\",\"1\",\"Testing\",\"Stims/Figures/74-J-10-4.bmp\",\"mamala\",\"Up\",\"38\",\"2\",\"2\",\"2\",\"S\",\"C\",\"26\"
\"\",\"\",\"approach-retreat\",\"175\",\"1644097\",\"0.0-175.0\",\"\",\"\",\"2-1\",\"12316\",\"37\",\"1\",\"Testing\",\"Stims/Figures/74-C-20-4.bmp\",\"pakata\",\"Right\",\"37\",\"2\",\"3\",\"2\",\"P\",\"C\",\"27\"
\"\",\"\",\"approach-retreat\",\"176\",\"1651992\",\"0.0-176.0\",\"\",\"\",\"2-1\",\"6388\",\"37\",\"1\",\"Testing\",\"Stims/Figures/84-J-0-2.bmp\",\"mamala\",\"Left\",\"37\",\"2\",\"4\",\"2\",\"S\",\"C\",\"28\"
\"\",\"\",\"approach-retreat\",\"177\",\"1657883\",\"0.0-177.0\",\"\",\"\",\"2-1\",\"4383\",\"37\",\"1\",\"Testing\",\"Stims/Figures/85-C-20-2.bmp\",\"pakata\",\"Right\",\"37\",\"2\",\"5\",\"2\",\"P\",\"C\",\"29\"
\"\",\"\",\"approach-retreat\",\"178\",\"1663781\",\"0.0-178.0\",\"\",\"\",\"2-1\",\"4391\",\"40\",\"1\",\"Testing\",\"Stims/Figures/102-C-20-4.bmp\",\"pakata\",\"Up\",\"40\",\"2\",\"6\",\"2\",\"P\",\"C\",\"30\"
\"\",\"\",\"approach-retreat\",\"179\",\"1669774\",\"0.0-179.0\",\"\",\"\",\"2-1\",\"4485\",\"37\",\"1\",\"Testing\",\"Stims/Figures/27-J-0-1.bmp\",\"mamala\",\"Left\",\"37\",\"2\",\"7\",\"2\",\"S\",\"C\",\"31\"
\"\",\"\",\"approach-retreat\",\"180\",\"1678111\",\"0.0-180.0\",\"\",\"\",\"2-1\",\"6830\",\"37\",\"1\",\"Testing\",\"Stims/Figures/128-J-10-3.bmp\",\"mamala\",\"Left\",\"37\",\"2\",\"8\",\"2\",\"S\",\"C\",\"32\"
\"\",\"\",\"approach-retreat\",\"181\",\"1684156\",\"0.0-181.0\",\"\",\"\",\"2-1\",\"4539\",\"38\",\"0\",\"Testing\",\"Stims/Figures/102-J-10-4.bmp\",\"mamala\",\"Down\",\"40\",\"2\",\"9\",\"2\",\"S\",\"C\",\"33\"
\"\",\"\",\"approach-retreat\",\"182\",\"1691940\",\"0.0-182.0\",\"\",\"\",\"2-1\",\"6277\",\"38\",\"1\",\"Testing\",\"Stims/Figures/100-J-10-3.bmp\",\"mamala\",\"Up\",\"38\",\"2\",\"10\",\"2\",\"S\",\"C\",\"34\"
\"\",\"\",\"approach-retreat\",\"183\",\"1702003\",\"0.0-183.0\",\"\",\"\",\"2-1\",\"8556\",\"38\",\"1\",\"Testing\",\"Stims/Figures/94-C-20-2.bmp\",\"pakata\",\"Down\",\"38\",\"2\",\"11\",\"2\",\"P\",\"C\",\"35\"
\"\",\"\",\"approach-retreat\",\"184\",\"1708217\",\"0.0-184.0\",\"\",\"\",\"2-1\",\"4707\",\"37\",\"1\",\"Testing\",\"Stims/Figures/93-C-30-1.bmp\",\"pakata\",\"Right\",\"37\",\"2\",\"12\",\"2\",\"P\",\"C\",\"36\"
\"\",\"\",\"approach-retreat\",\"185\",\"1714953\",\"0.0-185.0\",\"\",\"\",\"2-1\",\"5229\",\"38\",\"1\",\"Testing\",\"Stims/Figures/57-C-30-1.bmp\",\"pakata\",\"Down\",\"38\",\"2\",\"13\",\"2\",\"P\",\"C\",\"37\"
\"\",\"\",\"approach-retreat\",\"186\",\"1722636\",\"0.0-186.0\",\"\",\"\",\"2-1\",\"6175\",\"37\",\"1\",\"Testing\",\"Stims/Figures/7-C-20-4.bmp\",\"pakata\",\"Right\",\"37\",\"2\",\"14\",\"2\",\"P\",\"C\",\"38\"
\"\",\"\",\"approach-retreat\",\"187\",\"1729449\",\"0.0-187.0\",\"\",\"\",\"2-1\",\"5304\",\"40\",\"1\",\"Testing\",\"Stims/Figures/144-J-10-3.bmp\",\"mamala\",\"Down\",\"40\",\"2\",\"15\",\"2\",\"S\",\"C\",\"39\"
\"\",\"\",\"approach-retreat\",\"188\",\"1737867\",\"0.0-188.0\",\"\",\"\",\"2-1\",\"6912\",\"38\",\"1\",\"Testing\",\"Stims/Figures/93-J-0-1.bmp\",\"mamala\",\"Up\",\"38\",\"2\",\"16\",\"2\",\"S\",\"C\",\"40\"
\"\",\"\",\"approach-retreat\",\"189\",\"1747117\",\"0.0-189.0\",\"\",\"\",\"2-1\",\"7742\",\"39\",\"1\",\"Testing\",\"Stims/Figures/144-C-30-3.bmp\",\"pakata\",\"Left\",\"39\",\"2\",\"17\",\"2\",\"P\",\"C\",\"41\"
\"\",\"\",\"approach-retreat\",\"190\",\"1752708\",\"0.0-190.0\",\"\",\"\",\"2-1\",\"4084\",\"37\",\"1\",\"Testing\",\"Stims/Figures/7-J-10-4.bmp\",\"mamala\",\"Left\",\"37\",\"2\",\"18\",\"2\",\"S\",\"C\",\"42\"
\"\",\"\",\"approach-retreat\",\"191\",\"1759258\",\"0.0-191.0\",\"\",\"\",\"2-1\",\"5044\",\"40\",\"1\",\"Testing\",\"Stims/Figures/94-J-0-2.bmp\",\"mamala\",\"Down\",\"40\",\"2\",\"19\",\"2\",\"S\",\"C\",\"43\"
\"\",\"\",\"approach-retreat\",\"192\",\"1765675\",\"0.0-192.0\",\"\",\"\",\"2-1\",\"4911\",\"39\",\"1\",\"Testing\",\"Stims/Figures/85-J-0-2.bmp\",\"mamala\",\"Right\",\"39\",\"2\",\"20\",\"2\",\"S\",\"C\",\"44\"
\"\",\"\",\"approach-retreat\",\"193\",\"1773032\",\"0.0-193.0\",\"\",\"\",\"2-1\",\"5850\",\"40\",\"1\",\"Testing\",\"Stims/Figures/128-C-30-3.bmp\",\"pakata\",\"Up\",\"40\",\"2\",\"21\",\"2\",\"P\",\"C\",\"45\"
\"\",\"\",\"approach-retreat\",\"194\",\"1779319\",\"0.0-194.0\",\"\",\"\",\"2-1\",\"4780\",\"37\",\"1\",\"Testing\",\"Stims/Figures/100-C-30-3.bmp\",\"pakata\",\"Right\",\"37\",\"2\",\"22\",\"2\",\"P\",\"C\",\"46\"
\"\",\"\",\"approach-retreat\",\"195\",\"1786289\",\"0.0-195.0\",\"\",\"\",\"2-1\",\"5460\",\"38\",\"1\",\"Testing\",\"Stims/Figures/84-C-20-2.bmp\",\"pakata\",\"Down\",\"38\",\"2\",\"23\",\"2\",\"P\",\"C\",\"47\"
\"\",\"\",\"approach-retreat\",\"196\",\"1793006\",\"0.0-196.0\",\"\",\"\",\"2-1\",\"5209\",\"37\",\"1\",\"Testing\",\"Stims/Figures/57-J-0-1.bmp\",\"mamala\",\"Left\",\"37\",\"2\",\"24\",\"2\",\"S\",\"C\",\"48\"
\"\",\"\",\"approach-retreat\",\"197\",\"1799188\",\"0.0-197.0\",\"\",\"\",\"2-1\",\"4676\",\"37\",\"1\",\"Testing\",\"Stims/Figures/27-C-30-1.bmp\",\"pakata\",\"Right\",\"37\",\"3\",\"1\",\"2\",\"P\",\"C\",\"49\"
\"\",\"\",\"approach-retreat\",\"198\",\"1805283\",\"0.0-198.0\",\"\",\"\",\"2-1\",\"4586\",\"38\",\"1\",\"Testing\",\"Stims/Figures/7-C-20-4.bmp\",\"pakata\",\"Down\",\"38\",\"3\",\"2\",\"2\",\"P\",\"C\",\"50\"
\"\",\"\",\"approach-retreat\",\"199\",\"1811633\",\"0.0-199.0\",\"\",\"\",\"2-1\",\"4843\",\"39\",\"1\",\"Testing\",\"Stims/Figures/144-C-30-3.bmp\",\"pakata\",\"Left\",\"39\",\"3\",\"3\",\"2\",\"P\",\"C\",\"51\"
\"\",\"\",\"approach-retreat\",\"200\",\"1817434\",\"0.0-200.0\",\"\",\"\",\"2-1\",\"4293\",\"38\",\"1\",\"Testing\",\"Stims/Figures/128-C-30-3.bmp\",\"pakata\",\"Down\",\"38\",\"3\",\"4\",\"2\",\"P\",\"C\",\"52\"
\"\",\"\",\"approach-retreat\",\"201\",\"1824212\",\"0.0-201.0\",\"\",\"\",\"2-1\",\"5272\",\"39\",\"1\",\"Testing\",\"Stims/Figures/84-C-20-2.bmp\",\"pakata\",\"Left\",\"39\",\"3\",\"5\",\"2\",\"P\",\"C\",\"53\"
\"\",\"\",\"approach-retreat\",\"202\",\"1830112\",\"0.0-202.0\",\"\",\"\",\"2-1\",\"4391\",\"37\",\"1\",\"Testing\",\"Stims/Figures/93-C-30-1.bmp\",\"pakata\",\"Right\",\"37\",\"3\",\"6\",\"2\",\"P\",\"C\",\"54\"
\"\",\"\",\"approach-retreat\",\"203\",\"1836321\",\"0.0-203.0\",\"\",\"\",\"2-1\",\"4702\",\"38\",\"1\",\"Testing\",\"Stims/Figures/102-C-20-4.bmp\",\"pakata\",\"Down\",\"38\",\"3\",\"7\",\"2\",\"P\",\"C\",\"55\"
\"\",\"\",\"approach-retreat\",\"204\",\"1842665\",\"0.0-204.0\",\"\",\"\",\"2-1\",\"4833\",\"40\",\"1\",\"Testing\",\"Stims/Figures/94-C-20-2.bmp\",\"pakata\",\"Up\",\"40\",\"3\",\"8\",\"2\",\"P\",\"C\",\"56\"
\"\",\"\",\"approach-retreat\",\"205\",\"1849049\",\"0.0-205.0\",\"\",\"\",\"2-1\",\"4876\",\"40\",\"1\",\"Testing\",\"Stims/Figures/94-J-0-2.bmp\",\"mamala\",\"Down\",\"40\",\"3\",\"9\",\"2\",\"S\",\"C\",\"57\"
\"\",\"\",\"approach-retreat\",\"206\",\"1855443\",\"0.0-206.0\",\"\",\"\",\"2-1\",\"4888\",\"40\",\"1\",\"Testing\",\"Stims/Figures/74-J-10-4.bmp\",\"mamala\",\"Down\",\"40\",\"3\",\"10\",\"2\",\"S\",\"C\",\"58\"
\"\",\"\",\"approach-retreat\",\"207\",\"1862237\",\"0.0-207.0\",\"\",\"\",\"2-1\",\"5288\",\"40\",\"1\",\"Testing\",\"Stims/Figures/57-J-0-1.bmp\",\"mamala\",\"Down\",\"40\",\"3\",\"11\",\"2\",\"S\",\"C\",\"59\"
\"\",\"\",\"approach-retreat\",\"208\",\"1869022\",\"0.0-208.0\",\"\",\"\",\"2-1\",\"5280\",\"38\",\"1\",\"Testing\",\"Stims/Figures/85-J-0-2.bmp\",\"mamala\",\"Up\",\"38\",\"3\",\"12\",\"2\",\"S\",\"C\",\"60\"
\"\",\"\",\"approach-retreat\",\"209\",\"1879172\",\"0.0-209.0\",\"\",\"\",\"2-1\",\"8644\",\"38\",\"1\",\"Testing\",\"Stims/Figures/7-J-10-4.bmp\",\"mamala\",\"Up\",\"38\",\"3\",\"13\",\"2\",\"S\",\"C\",\"61\"
\"\",\"\",\"approach-retreat\",\"210\",\"1886569\",\"0.0-210.0\",\"\",\"\",\"2-1\",\"5888\",\"39\",\"1\",\"Testing\",\"Stims/Figures/74-C-20-4.bmp\",\"pakata\",\"Left\",\"39\",\"3\",\"14\",\"2\",\"P\",\"C\",\"62\"
\"\",\"\",\"approach-retreat\",\"211\",\"1893361\",\"0.0-211.0\",\"\",\"\",\"2-1\",\"5284\",\"37\",\"1\",\"Testing\",\"Stims/Figures/85-C-20-2.bmp\",\"pakata\",\"Right\",\"37\",\"3\",\"15\",\"2\",\"P\",\"C\",\"63\"
\"\",\"\",\"approach-retreat\",\"212\",\"1900476\",\"0.0-212.0\",\"\",\"\",\"2-1\",\"5610\",\"39\",\"1\",\"Testing\",\"Stims/Figures/144-J-10-3.bmp\",\"mamala\",\"Right\",\"39\",\"3\",\"16\",\"2\",\"S\",\"C\",\"64\"
\"\",\"\",\"approach-retreat\",\"213\",\"1913408\",\"0.0-213.0\",\"\",\"\",\"2-1\",\"11422\",\"38\",\"1\",\"Testing\",\"Stims/Figures/100-J-10-3.bmp\",\"mamala\",\"Up\",\"38\",\"3\",\"17\",\"2\",\"S\",\"C\",\"65\"
\"\",\"\",\"approach-retreat\",\"214\",\"1919352\",\"0.0-214.0\",\"\",\"\",\"2-1\",\"4435\",\"37\",\"1\",\"Testing\",\"Stims/Figures/57-C-30-1.bmp\",\"pakata\",\"Right\",\"37\",\"3\",\"18\",\"2\",\"P\",\"C\",\"66\"
\"\",\"\",\"approach-retreat\",\"215\",\"1926079\",\"0.0-215.0\",\"\",\"\",\"2-1\",\"5221\",\"37\",\"1\",\"Testing\",\"Stims/Figures/93-J-0-1.bmp\",\"mamala\",\"Left\",\"37\",\"3\",\"19\",\"2\",\"S\",\"C\",\"67\"
\"\",\"\",\"approach-retreat\",\"216\",\"1932742\",\"0.0-216.0\",\"\",\"\",\"2-1\",\"5153\",\"37\",\"1\",\"Testing\",\"Stims/Figures/84-J-0-2.bmp\",\"mamala\",\"Left\",\"37\",\"3\",\"20\",\"2\",\"S\",\"C\",\"68\"
\"\",\"\",\"approach-retreat\",\"217\",\"1939658\",\"0.0-217.0\",\"\",\"\",\"2-1\",\"5407\",\"37\",\"0\",\"Testing\",\"Stims/Figures/128-J-10-3.bmp\",\"mamala\",\"Right\",\"39\",\"3\",\"21\",\"2\",\"S\",\"C\",\"69\"
\"\",\"\",\"approach-retreat\",\"218\",\"1950766\",\"0.0-218.0\",\"\",\"\",\"2-1\",\"9599\",\"40\",\"1\",\"Testing\",\"Stims/Figures/100-C-30-3.bmp\",\"pakata\",\"Up\",\"40\",\"3\",\"22\",\"2\",\"P\",\"C\",\"70\"
\"\",\"\",\"approach-retreat\",\"219\",\"1958011\",\"0.0-219.0\",\"\",\"\",\"2-1\",\"5736\",\"38\",\"1\",\"Testing\",\"Stims/Figures/27-J-0-1.bmp\",\"mamala\",\"Up\",\"38\",\"3\",\"23\",\"2\",\"S\",\"C\",\"71\"
\"\",\"\",\"approach-retreat\",\"220\",\"1965965\",\"0.0-220.0\",\"\",\"\",\"2-1\",\"6446\",\"39\",\"0\",\"Testing\",\"Stims/Figures/102-J-10-4.bmp\",\"mamala\",\"Left\",\"37\",\"3\",\"24\",\"2\",\"S\",\"C\",\"72\"
\"\",\"\",\"approach-retreat\",\"221\",\"1973451\",\"0.0-221.0\",\"\",\"\",\"2-1\",\"5976\",\"40\",\"0\",\"Testing\",\"Stims/Figures/100-J-10-3.bmp\",\"mamala\",\"Up\",\"38\",\"4\",\"1\",\"2\",\"S\",\"C\",\"73\"
\"\",\"\",\"approach-retreat\",\"222\",\"1982901\",\"0.0-222.0\",\"\",\"\",\"2-1\",\"7938\",\"37\",\"1\",\"Testing\",\"Stims/Figures/94-J-0-2.bmp\",\"mamala\",\"Left\",\"37\",\"4\",\"2\",\"2\",\"S\",\"C\",\"74\"
\"\",\"\",\"approach-retreat\",\"223\",\"1989175\",\"0.0-223.0\",\"\",\"\",\"2-1\",\"4766\",\"37\",\"1\",\"Testing\",\"Stims/Figures/144-C-30-3.bmp\",\"pakata\",\"Right\",\"37\",\"4\",\"3\",\"2\",\"P\",\"C\",\"75\"
\"\",\"\",\"approach-retreat\",\"224\",\"1995952\",\"0.0-224.0\",\"\",\"\",\"2-1\",\"5269\",\"40\",\"1\",\"Testing\",\"Stims/Figures/93-C-30-1.bmp\",\"pakata\",\"Up\",\"40\",\"4\",\"4\",\"2\",\"P\",\"C\",\"76\"
\"\",\"\",\"approach-retreat\",\"225\",\"2001872\",\"0.0-225.0\",\"\",\"\",\"2-1\",\"4411\",\"39\",\"1\",\"Testing\",\"Stims/Figures/100-C-30-3.bmp\",\"pakata\",\"Left\",\"39\",\"4\",\"5\",\"2\",\"P\",\"C\",\"77\"
\"\",\"\",\"approach-retreat\",\"226\",\"2007930\",\"0.0-226.0\",\"\",\"\",\"2-1\",\"4549\",\"39\",\"1\",\"Testing\",\"Stims/Figures/144-J-10-3.bmp\",\"mamala\",\"Right\",\"39\",\"4\",\"6\",\"2\",\"S\",\"C\",\"78\"
\"\",\"\",\"approach-retreat\",\"227\",\"2013831\",\"0.0-227.0\",\"\",\"\",\"2-1\",\"4392\",\"37\",\"1\",\"Testing\",\"Stims/Figures/128-C-30-3.bmp\",\"pakata\",\"Right\",\"37\",\"4\",\"7\",\"2\",\"P\",\"C\",\"79\"
\"\",\"\",\"approach-retreat\",\"228\",\"2020214\",\"0.0-228.0\",\"\",\"\",\"2-1\",\"4873\",\"39\",\"1\",\"Testing\",\"Stims/Figures/27-C-30-1.bmp\",\"pakata\",\"Left\",\"39\",\"4\",\"8\",\"2\",\"P\",\"C\",\"80\"
\"\",\"\",\"approach-retreat\",\"229\",\"2026282\",\"0.0-229.0\",\"\",\"\",\"2-1\",\"4559\",\"37\",\"1\",\"Testing\",\"Stims/Figures/85-J-0-2.bmp\",\"mamala\",\"Left\",\"37\",\"4\",\"9\",\"2\",\"S\",\"C\",\"81\"
\"\",\"\",\"approach-retreat\",\"230\",\"2034398\",\"0.0-230.0\",\"\",\"\",\"2-1\",\"6607\",\"40\",\"1\",\"Testing\",\"Stims/Figures/102-J-10-4.bmp\",\"mamala\",\"Down\",\"40\",\"4\",\"10\",\"2\",\"S\",\"C\",\"82\"
\"\",\"\",\"approach-retreat\",\"231\",\"2040540\",\"0.0-231.0\",\"\",\"\",\"2-1\",\"4633\",\"38\",\"0\",\"Testing\",\"Stims/Figures/102-C-20-4.bmp\",\"pakata\",\"Up\",\"40\",\"4\",\"11\",\"2\",\"P\",\"C\",\"83\"
\"\",\"\",\"approach-retreat\",\"232\",\"2046716\",\"0.0-232.0\",\"\",\"\",\"2-1\",\"4667\",\"40\",\"1\",\"Testing\",\"Stims/Figures/57-J-0-1.bmp\",\"mamala\",\"Down\",\"40\",\"4\",\"12\",\"2\",\"S\",\"C\",\"84\"
\"\",\"\",\"approach-retreat\",\"233\",\"2056484\",\"0.0-233.0\",\"\",\"\",\"2-1\",\"8260\",\"39\",\"1\",\"Testing\",\"Stims/Figures/93-J-0-1.bmp\",\"mamala\",\"Right\",\"39\",\"4\",\"13\",\"2\",\"S\",\"C\",\"85\"
\"\",\"\",\"approach-retreat\",\"234\",\"2064380\",\"0.0-234.0\",\"\",\"\",\"2-1\",\"6388\",\"38\",\"0\",\"Testing\",\"Stims/Figures/74-J-10-4.bmp\",\"mamala\",\"Down\",\"40\",\"4\",\"14\",\"2\",\"S\",\"C\",\"86\"
\"\",\"\",\"approach-retreat\",\"235\",\"2070290\",\"0.0-235.0\",\"\",\"\",\"2-1\",\"4402\",\"37\",\"1\",\"Testing\",\"Stims/Figures/7-C-20-4.bmp\",\"pakata\",\"Right\",\"37\",\"4\",\"15\",\"2\",\"P\",\"C\",\"87\"
\"\",\"\",\"approach-retreat\",\"236\",\"2076046\",\"0.0-236.0\",\"\",\"\",\"2-1\",\"4249\",\"39\",\"1\",\"Testing\",\"Stims/Figures/85-C-20-2.bmp\",\"pakata\",\"Left\",\"39\",\"4\",\"16\",\"2\",\"P\",\"C\",\"88\"
\"\",\"\",\"approach-retreat\",\"237\",\"2084718\",\"0.0-237.0\",\"\",\"\",\"2-1\",\"7166\",\"38\",\"0\",\"Testing\",\"Stims/Figures/128-J-10-3.bmp\",\"mamala\",\"Down\",\"40\",\"4\",\"17\",\"2\",\"S\",\"C\",\"89\"
\"\",\"\",\"approach-retreat\",\"238\",\"2090676\",\"0.0-238.0\",\"\",\"\",\"2-1\",\"4450\",\"40\",\"1\",\"Testing\",\"Stims/Figures/74-C-20-4.bmp\",\"pakata\",\"Up\",\"40\",\"4\",\"18\",\"2\",\"P\",\"C\",\"90\"
\"\",\"\",\"approach-retreat\",\"239\",\"2099445\",\"0.0-239.0\",\"\",\"\",\"2-1\",\"7261\",\"38\",\"1\",\"Testing\",\"Stims/Figures/84-C-20-2.bmp\",\"pakata\",\"Down\",\"38\",\"4\",\"19\",\"2\",\"P\",\"C\",\"91\"
\"\",\"\",\"approach-retreat\",\"240\",\"2106346\",\"0.0-240.0\",\"\",\"\",\"2-1\",\"5394\",\"38\",\"1\",\"Testing\",\"Stims/Figures/84-J-0-2.bmp\",\"mamala\",\"Up\",\"38\",\"4\",\"20\",\"2\",\"S\",\"C\",\"92\"
\"\",\"\",\"approach-retreat\",\"241\",\"2112851\",\"0.0-241.0\",\"\",\"\",\"2-1\",\"5002\",\"38\",\"1\",\"Testing\",\"Stims/Figures/57-C-30-1.bmp\",\"pakata\",\"Down\",\"38\",\"4\",\"21\",\"2\",\"P\",\"C\",\"93\"
\"\",\"\",\"approach-retreat\",\"242\",\"2118867\",\"0.0-242.0\",\"\",\"\",\"2-1\",\"4509\",\"37\",\"0\",\"Testing\",\"Stims/Figures/7-J-10-4.bmp\",\"mamala\",\"Right\",\"39\",\"4\",\"22\",\"2\",\"S\",\"C\",\"94\"
\"\",\"\",\"approach-retreat\",\"243\",\"2125159\",\"0.0-243.0\",\"\",\"\",\"2-1\",\"4785\",\"38\",\"1\",\"Testing\",\"Stims/Figures/27-J-0-1.bmp\",\"mamala\",\"Up\",\"38\",\"4\",\"23\",\"2\",\"S\",\"C\",\"95\"
\"\",\"\",\"approach-retreat\",\"244\",\"2131785\",\"0.0-244.0\",\"\",\"\",\"2-1\",\"5115\",\"39\",\"1\",\"Testing\",\"Stims/Figures/94-C-20-2.bmp\",\"pakata\",\"Left\",\"39\",\"4\",\"24\",\"2\",\"P\",\"C\",\"96\"
\"26489\",\"\",\"survey-text\",\"245\",\"2158281\",\"0.0-245.0\",\"\",\"{\"\"Q0\"\":\"\"PS160073\"\"}\",\"\",\"\",\"\",\"\",\"\",\"\",\"\",\"\",\"\",\"\",\"\",\"\",\"\",\"\",\"\"
