\"rt\",\"key_press\",\"trial_type\",\"trial_index\",\"time_elapsed\",\"internal_node_id\",\"view_history\",\"responses\",\"Id\",\"Rt\",\"ResKeyCode\",\"ResCorr\",\"TrialType2\",\"Image\",\"Label\",\"Location\",\"CorrectResponse\",\"Block\",\"BlockTrial\",\"Condition\",\"LabelType\",\"Subcondition\",\"trialNum\"
\"105269\",\"32\",\"text\",\"0\",\"105273\",\"0.0-0.0-0.0\",\"\",\"\",\"\",\"\",\"\",\"\",\"\",\"\",\"\",\"\",\"\",\"\",\"\",\"\",\"\",\"\",\"\"
\"161160\",\"\",\"instructions\",\"1\",\"266435\",\"0.0-1.0\",\"[{\"\"page_index\"\":0,\"\"viewing_time\"\":161158}]\",\"\",\"\",\"\",\"\",\"\",\"\",\"\",\"\",\"\",\"\",\"\",\"\",\"\",\"\",\"\",\"\"
\"22514\",\"\",\"survey-multi-choice\",\"2\",\"288988\",\"0.0-2.0\",\"\",\"{\"\"Q0\"\":\"\"Da\"\",\"\"Q1\"\":\"\"Da\"\",\"\"Q2\"\":\"\"Da\"\",\"\"Q3\"\":\"\"Da\"\",\"\"Q4\"\":\"\"Da\"\",\"\"Q5\"\":\"\"Da\"\"}\",\"\",\"\",\"\",\"\",\"\",\"\",\"\",\"\",\"\",\"\",\"\",\"\",\"\",\"\",\"\"
\"\",\"\",\"bio\",\"3\",\"299675\",\"0.0-3.0\",\"\",\"{\"\"age\"\":\"\"24\"\",\"\"gender\"\":\"\"f\"\",\"\"specify\"\":\"\"\"\"}\",\"\",\"\",\"\",\"\",\"\",\"\",\"\",\"\",\"\",\"\",\"\",\"\",\"\",\"\",\"\"
\"\",\"\",\"approach-retreat\",\"4\",\"331810\",\"0.0-4.0\",\"\",\"\",\"2-4\",\"30627\",\"39\",\"0\",\"Training\",\"Stims/Figures/85-C-20-2.bmp\",\"pakata\",\"Right\",\"37\",\"1\",\"1\",\"2\",\"P\",\"C\",\"1\"
\"\",\"\",\"approach-retreat\",\"5\",\"345040\",\"0.0-5.0\",\"\",\"\",\"2-4\",\"11718\",\"38\",\"1\",\"Training\",\"Stims/Figures/57-C-30-1.bmp\",\"pakata\",\"Down\",\"38\",\"1\",\"2\",\"2\",\"P\",\"C\",\"2\"
\"\",\"\",\"approach-retreat\",\"6\",\"363353\",\"0.0-6.0\",\"\",\"\",\"2-4\",\"16805\",\"38\",\"1\",\"Training\",\"Stims/Figures/102-J-10-4.bmp\",\"mamala\",\"Up\",\"38\",\"1\",\"3\",\"2\",\"S\",\"C\",\"3\"
\"\",\"\",\"approach-retreat\",\"7\",\"372417\",\"0.0-7.0\",\"\",\"\",\"2-4\",\"7553\",\"38\",\"1\",\"Training\",\"Stims/Figures/27-J-0-1.bmp\",\"mamala\",\"Up\",\"38\",\"1\",\"4\",\"2\",\"S\",\"C\",\"4\"
\"\",\"\",\"approach-retreat\",\"8\",\"379804\",\"0.0-8.0\",\"\",\"\",\"2-4\",\"5874\",\"37\",\"1\",\"Training\",\"Stims/Figures/57-J-0-1.bmp\",\"mamala\",\"Left\",\"37\",\"1\",\"5\",\"2\",\"S\",\"C\",\"5\"
\"\",\"\",\"approach-retreat\",\"9\",\"386231\",\"0.0-9.0\",\"\",\"\",\"2-4\",\"4917\",\"40\",\"1\",\"Training\",\"Stims/Figures/144-J-10-3.bmp\",\"mamala\",\"Down\",\"40\",\"1\",\"6\",\"2\",\"S\",\"C\",\"6\"
\"\",\"\",\"approach-retreat\",\"10\",\"392168\",\"0.0-10.0\",\"\",\"\",\"2-4\",\"4426\",\"40\",\"1\",\"Training\",\"Stims/Figures/128-J-10-3.bmp\",\"mamala\",\"Down\",\"40\",\"1\",\"7\",\"2\",\"S\",\"C\",\"7\"
\"\",\"\",\"approach-retreat\",\"11\",\"402053\",\"0.0-11.0\",\"\",\"\",\"2-4\",\"8375\",\"40\",\"1\",\"Training\",\"Stims/Figures/102-C-20-4.bmp\",\"pakata\",\"Up\",\"40\",\"1\",\"8\",\"2\",\"P\",\"C\",\"8\"
\"\",\"\",\"approach-retreat\",\"12\",\"409851\",\"0.0-12.0\",\"\",\"\",\"2-4\",\"6291\",\"37\",\"1\",\"Training\",\"Stims/Figures/74-J-10-4.bmp\",\"mamala\",\"Left\",\"37\",\"1\",\"9\",\"2\",\"S\",\"C\",\"9\"
\"\",\"\",\"approach-retreat\",\"13\",\"421337\",\"0.0-13.0\",\"\",\"\",\"2-4\",\"9977\",\"37\",\"1\",\"Training\",\"Stims/Figures/27-C-30-1.bmp\",\"pakata\",\"Right\",\"37\",\"1\",\"10\",\"2\",\"P\",\"C\",\"10\"
\"\",\"\",\"approach-retreat\",\"14\",\"437186\",\"0.0-14.0\",\"\",\"\",\"2-4\",\"14342\",\"37\",\"1\",\"Training\",\"Stims/Figures/85-J-0-2.bmp\",\"mamala\",\"Left\",\"37\",\"1\",\"11\",\"2\",\"S\",\"C\",\"11\"
\"\",\"\",\"approach-retreat\",\"15\",\"443767\",\"0.0-15.0\",\"\",\"\",\"2-4\",\"5072\",\"38\",\"1\",\"Training\",\"Stims/Figures/84-C-20-2.bmp\",\"pakata\",\"Down\",\"38\",\"1\",\"12\",\"2\",\"P\",\"C\",\"12\"
\"\",\"\",\"approach-retreat\",\"16\",\"449518\",\"0.0-16.0\",\"\",\"\",\"2-4\",\"4242\",\"39\",\"1\",\"Training\",\"Stims/Figures/144-C-30-3.bmp\",\"pakata\",\"Left\",\"39\",\"1\",\"13\",\"2\",\"P\",\"C\",\"13\"
\"\",\"\",\"approach-retreat\",\"17\",\"455305\",\"0.0-17.0\",\"\",\"\",\"2-4\",\"4276\",\"39\",\"1\",\"Training\",\"Stims/Figures/84-J-0-2.bmp\",\"mamala\",\"Right\",\"39\",\"1\",\"14\",\"2\",\"S\",\"C\",\"14\"
\"\",\"\",\"approach-retreat\",\"18\",\"461191\",\"0.0-18.0\",\"\",\"\",\"2-4\",\"4378\",\"37\",\"1\",\"Training\",\"Stims/Figures/128-C-30-3.bmp\",\"pakata\",\"Right\",\"37\",\"1\",\"15\",\"2\",\"P\",\"C\",\"15\"
\"\",\"\",\"approach-retreat\",\"19\",\"466840\",\"0.0-19.0\",\"\",\"\",\"2-4\",\"4140\",\"40\",\"1\",\"Training\",\"Stims/Figures/74-C-20-4.bmp\",\"pakata\",\"Up\",\"40\",\"1\",\"16\",\"2\",\"P\",\"C\",\"16\"
\"\",\"\",\"approach-retreat\",\"20\",\"472701\",\"0.0-20.0\",\"\",\"\",\"2-4\",\"4351\",\"39\",\"1\",\"Training\",\"Stims/Figures/74-J-10-4.bmp\",\"mamala\",\"Right\",\"39\",\"2\",\"1\",\"2\",\"S\",\"C\",\"17\"
\"\",\"\",\"approach-retreat\",\"21\",\"478409\",\"0.0-21.0\",\"\",\"\",\"2-4\",\"4199\",\"38\",\"1\",\"Training\",\"Stims/Figures/102-J-10-4.bmp\",\"mamala\",\"Up\",\"38\",\"2\",\"2\",\"2\",\"S\",\"C\",\"18\"
\"\",\"\",\"approach-retreat\",\"22\",\"484045\",\"0.0-22.0\",\"\",\"\",\"2-4\",\"4128\",\"39\",\"1\",\"Training\",\"Stims/Figures/74-C-20-4.bmp\",\"pakata\",\"Left\",\"39\",\"2\",\"3\",\"2\",\"P\",\"C\",\"19\"
\"\",\"\",\"approach-retreat\",\"23\",\"489631\",\"0.0-23.0\",\"\",\"\",\"2-4\",\"4076\",\"40\",\"1\",\"Training\",\"Stims/Figures/144-C-30-3.bmp\",\"pakata\",\"Up\",\"40\",\"2\",\"4\",\"2\",\"P\",\"C\",\"20\"
\"\",\"\",\"approach-retreat\",\"24\",\"495364\",\"0.0-24.0\",\"\",\"\",\"2-4\",\"4223\",\"40\",\"1\",\"Training\",\"Stims/Figures/57-J-0-1.bmp\",\"mamala\",\"Down\",\"40\",\"2\",\"5\",\"2\",\"S\",\"C\",\"21\"
\"\",\"\",\"approach-retreat\",\"25\",\"500934\",\"0.0-25.0\",\"\",\"\",\"2-4\",\"4060\",\"37\",\"1\",\"Training\",\"Stims/Figures/85-J-0-2.bmp\",\"mamala\",\"Left\",\"37\",\"2\",\"6\",\"2\",\"S\",\"C\",\"22\"
\"\",\"\",\"approach-retreat\",\"26\",\"507698\",\"0.0-26.0\",\"\",\"\",\"2-4\",\"5256\",\"39\",\"1\",\"Training\",\"Stims/Figures/27-C-30-1.bmp\",\"pakata\",\"Left\",\"39\",\"2\",\"7\",\"2\",\"P\",\"C\",\"23\"
\"\",\"\",\"approach-retreat\",\"27\",\"514041\",\"0.0-27.0\",\"\",\"\",\"2-4\",\"4834\",\"40\",\"1\",\"Training\",\"Stims/Figures/128-J-10-3.bmp\",\"mamala\",\"Down\",\"40\",\"2\",\"8\",\"2\",\"S\",\"C\",\"24\"
\"\",\"\",\"approach-retreat\",\"28\",\"519738\",\"0.0-28.0\",\"\",\"\",\"2-4\",\"4187\",\"40\",\"1\",\"Training\",\"Stims/Figures/84-C-20-2.bmp\",\"pakata\",\"Up\",\"40\",\"2\",\"9\",\"2\",\"P\",\"C\",\"25\"
\"\",\"\",\"approach-retreat\",\"29\",\"525328\",\"0.0-29.0\",\"\",\"\",\"2-4\",\"4082\",\"37\",\"1\",\"Training\",\"Stims/Figures/85-C-20-2.bmp\",\"pakata\",\"Right\",\"37\",\"2\",\"10\",\"2\",\"P\",\"C\",\"26\"
\"\",\"\",\"approach-retreat\",\"30\",\"531048\",\"0.0-30.0\",\"\",\"\",\"2-4\",\"4210\",\"40\",\"1\",\"Training\",\"Stims/Figures/84-J-0-2.bmp\",\"mamala\",\"Down\",\"40\",\"2\",\"11\",\"2\",\"S\",\"C\",\"27\"
\"\",\"\",\"approach-retreat\",\"31\",\"537066\",\"0.0-31.0\",\"\",\"\",\"2-4\",\"4509\",\"37\",\"1\",\"Training\",\"Stims/Figures/144-J-10-3.bmp\",\"mamala\",\"Left\",\"37\",\"2\",\"12\",\"2\",\"S\",\"C\",\"28\"
\"\",\"\",\"approach-retreat\",\"32\",\"542738\",\"0.0-32.0\",\"\",\"\",\"2-4\",\"4162\",\"37\",\"1\",\"Training\",\"Stims/Figures/128-C-30-3.bmp\",\"pakata\",\"Right\",\"37\",\"2\",\"13\",\"2\",\"P\",\"C\",\"29\"
\"\",\"\",\"approach-retreat\",\"33\",\"548334\",\"0.0-33.0\",\"\",\"\",\"2-4\",\"4088\",\"37\",\"1\",\"Training\",\"Stims/Figures/102-C-20-4.bmp\",\"pakata\",\"Right\",\"37\",\"2\",\"14\",\"2\",\"P\",\"C\",\"30\"
\"\",\"\",\"approach-retreat\",\"34\",\"553916\",\"0.0-34.0\",\"\",\"\",\"2-4\",\"4073\",\"38\",\"1\",\"Training\",\"Stims/Figures/27-J-0-1.bmp\",\"mamala\",\"Up\",\"38\",\"2\",\"15\",\"2\",\"S\",\"C\",\"31\"
\"\",\"\",\"approach-retreat\",\"35\",\"560681\",\"0.0-35.0\",\"\",\"\",\"2-4\",\"5260\",\"38\",\"1\",\"Training\",\"Stims/Figures/57-C-30-1.bmp\",\"pakata\",\"Down\",\"38\",\"2\",\"16\",\"2\",\"P\",\"C\",\"32\"
\"\",\"\",\"approach-retreat\",\"36\",\"567842\",\"0.0-36.0\",\"\",\"\",\"2-4\",\"5653\",\"40\",\"1\",\"Training\",\"Stims/Figures/27-J-0-1.bmp\",\"mamala\",\"Down\",\"40\",\"3\",\"1\",\"2\",\"S\",\"C\",\"33\"
\"\",\"\",\"approach-retreat\",\"37\",\"573402\",\"0.0-37.0\",\"\",\"\",\"2-4\",\"4050\",\"40\",\"1\",\"Training\",\"Stims/Figures/27-C-30-1.bmp\",\"pakata\",\"Up\",\"40\",\"3\",\"2\",\"2\",\"P\",\"C\",\"34\"
\"\",\"\",\"approach-retreat\",\"38\",\"579233\",\"0.0-38.0\",\"\",\"\",\"2-4\",\"4320\",\"40\",\"1\",\"Training\",\"Stims/Figures/144-J-10-3.bmp\",\"mamala\",\"Down\",\"40\",\"3\",\"3\",\"2\",\"S\",\"C\",\"35\"
\"\",\"\",\"approach-retreat\",\"39\",\"585023\",\"0.0-39.0\",\"\",\"\",\"2-4\",\"4280\",\"37\",\"1\",\"Training\",\"Stims/Figures/128-C-30-3.bmp\",\"pakata\",\"Right\",\"37\",\"3\",\"4\",\"2\",\"P\",\"C\",\"36\"
\"\",\"\",\"approach-retreat\",\"40\",\"591560\",\"0.0-40.0\",\"\",\"\",\"2-4\",\"5027\",\"40\",\"1\",\"Training\",\"Stims/Figures/102-J-10-4.bmp\",\"mamala\",\"Down\",\"40\",\"3\",\"5\",\"2\",\"S\",\"C\",\"37\"
\"\",\"\",\"approach-retreat\",\"41\",\"598290\",\"0.0-41.0\",\"\",\"\",\"2-4\",\"5219\",\"39\",\"1\",\"Training\",\"Stims/Figures/144-C-30-3.bmp\",\"pakata\",\"Left\",\"39\",\"3\",\"6\",\"2\",\"P\",\"C\",\"38\"
\"\",\"\",\"approach-retreat\",\"42\",\"604394\",\"0.0-42.0\",\"\",\"\",\"2-4\",\"4594\",\"39\",\"1\",\"Training\",\"Stims/Figures/57-C-30-1.bmp\",\"pakata\",\"Left\",\"39\",\"3\",\"7\",\"2\",\"P\",\"C\",\"39\"
\"\",\"\",\"approach-retreat\",\"43\",\"614038\",\"0.0-43.0\",\"\",\"\",\"2-4\",\"8134\",\"39\",\"1\",\"Training\",\"Stims/Figures/128-J-10-3.bmp\",\"mamala\",\"Right\",\"39\",\"3\",\"8\",\"2\",\"S\",\"C\",\"40\"
\"\",\"\",\"approach-retreat\",\"44\",\"621547\",\"0.0-44.0\",\"\",\"\",\"2-4\",\"6000\",\"38\",\"1\",\"Training\",\"Stims/Figures/85-J-0-2.bmp\",\"mamala\",\"Up\",\"38\",\"3\",\"9\",\"2\",\"S\",\"C\",\"41\"
\"\",\"\",\"approach-retreat\",\"45\",\"627927\",\"0.0-45.0\",\"\",\"\",\"2-4\",\"4868\",\"40\",\"1\",\"Training\",\"Stims/Figures/74-J-10-4.bmp\",\"mamala\",\"Down\",\"40\",\"3\",\"10\",\"2\",\"S\",\"C\",\"42\"
\"\",\"\",\"approach-retreat\",\"46\",\"633923\",\"0.0-46.0\",\"\",\"\",\"2-4\",\"4488\",\"37\",\"1\",\"Training\",\"Stims/Figures/84-J-0-2.bmp\",\"mamala\",\"Left\",\"37\",\"3\",\"11\",\"2\",\"S\",\"C\",\"43\"
\"\",\"\",\"approach-retreat\",\"47\",\"640498\",\"0.0-47.0\",\"\",\"\",\"2-4\",\"5065\",\"37\",\"1\",\"Training\",\"Stims/Figures/74-C-20-4.bmp\",\"pakata\",\"Right\",\"37\",\"3\",\"12\",\"2\",\"P\",\"C\",\"44\"
\"\",\"\",\"approach-retreat\",\"48\",\"646225\",\"0.0-48.0\",\"\",\"\",\"2-4\",\"4219\",\"39\",\"1\",\"Training\",\"Stims/Figures/84-C-20-2.bmp\",\"pakata\",\"Left\",\"39\",\"3\",\"13\",\"2\",\"P\",\"C\",\"45\"
\"\",\"\",\"approach-retreat\",\"49\",\"652608\",\"0.0-49.0\",\"\",\"\",\"2-4\",\"4874\",\"38\",\"1\",\"Training\",\"Stims/Figures/57-J-0-1.bmp\",\"mamala\",\"Up\",\"38\",\"3\",\"14\",\"2\",\"S\",\"C\",\"46\"
\"\",\"\",\"approach-retreat\",\"50\",\"659401\",\"0.0-50.0\",\"\",\"\",\"2-4\",\"5285\",\"37\",\"1\",\"Training\",\"Stims/Figures/102-C-20-4.bmp\",\"pakata\",\"Right\",\"37\",\"3\",\"15\",\"2\",\"P\",\"C\",\"47\"
\"\",\"\",\"approach-retreat\",\"51\",\"665355\",\"0.0-51.0\",\"\",\"\",\"2-4\",\"4445\",\"40\",\"1\",\"Training\",\"Stims/Figures/85-C-20-2.bmp\",\"pakata\",\"Up\",\"40\",\"3\",\"16\",\"2\",\"P\",\"C\",\"48\"
\"\",\"\",\"approach-retreat\",\"52\",\"673532\",\"0.0-52.0\",\"\",\"\",\"2-4\",\"6667\",\"37\",\"1\",\"Training\",\"Stims/Figures/128-J-10-3.bmp\",\"mamala\",\"Left\",\"37\",\"4\",\"1\",\"2\",\"S\",\"C\",\"49\"
\"\",\"\",\"approach-retreat\",\"53\",\"679468\",\"0.0-53.0\",\"\",\"\",\"2-4\",\"4426\",\"39\",\"1\",\"Training\",\"Stims/Figures/84-J-0-2.bmp\",\"mamala\",\"Right\",\"39\",\"4\",\"2\",\"2\",\"S\",\"C\",\"50\"
\"\",\"\",\"approach-retreat\",\"54\",\"685288\",\"0.0-54.0\",\"\",\"\",\"2-4\",\"4311\",\"38\",\"1\",\"Training\",\"Stims/Figures/74-C-20-4.bmp\",\"pakata\",\"Down\",\"38\",\"4\",\"3\",\"2\",\"P\",\"C\",\"51\"
\"\",\"\",\"approach-retreat\",\"55\",\"691084\",\"0.0-55.0\",\"\",\"\",\"2-4\",\"4286\",\"39\",\"1\",\"Training\",\"Stims/Figures/128-C-30-3.bmp\",\"pakata\",\"Left\",\"39\",\"4\",\"4\",\"2\",\"P\",\"C\",\"52\"
\"\",\"\",\"approach-retreat\",\"56\",\"697290\",\"0.0-56.0\",\"\",\"\",\"2-4\",\"4697\",\"40\",\"1\",\"Training\",\"Stims/Figures/144-J-10-3.bmp\",\"mamala\",\"Down\",\"40\",\"4\",\"5\",\"2\",\"S\",\"C\",\"53\"
\"\",\"\",\"approach-retreat\",\"57\",\"705058\",\"0.0-57.0\",\"\",\"\",\"2-4\",\"6258\",\"38\",\"1\",\"Training\",\"Stims/Figures/27-J-0-1.bmp\",\"mamala\",\"Up\",\"38\",\"4\",\"6\",\"2\",\"S\",\"C\",\"54\"
\"\",\"\",\"approach-retreat\",\"58\",\"712868\",\"0.0-58.0\",\"\",\"\",\"2-4\",\"6300\",\"39\",\"1\",\"Training\",\"Stims/Figures/102-J-10-4.bmp\",\"mamala\",\"Right\",\"39\",\"4\",\"7\",\"2\",\"S\",\"C\",\"55\"
\"\",\"\",\"approach-retreat\",\"59\",\"720679\",\"0.0-59.0\",\"\",\"\",\"2-4\",\"6302\",\"38\",\"1\",\"Training\",\"Stims/Figures/84-C-20-2.bmp\",\"pakata\",\"Down\",\"38\",\"4\",\"8\",\"2\",\"P\",\"C\",\"56\"
\"\",\"\",\"approach-retreat\",\"60\",\"726437\",\"0.0-60.0\",\"\",\"\",\"2-4\",\"4251\",\"39\",\"1\",\"Training\",\"Stims/Figures/27-C-30-1.bmp\",\"pakata\",\"Left\",\"39\",\"4\",\"9\",\"2\",\"P\",\"C\",\"57\"
\"\",\"\",\"approach-retreat\",\"61\",\"732299\",\"0.0-61.0\",\"\",\"\",\"2-4\",\"4352\",\"39\",\"1\",\"Training\",\"Stims/Figures/85-C-20-2.bmp\",\"pakata\",\"Left\",\"39\",\"4\",\"10\",\"2\",\"P\",\"C\",\"58\"
\"\",\"\",\"approach-retreat\",\"62\",\"738254\",\"0.0-62.0\",\"\",\"\",\"2-4\",\"4445\",\"40\",\"1\",\"Training\",\"Stims/Figures/85-J-0-2.bmp\",\"mamala\",\"Down\",\"40\",\"4\",\"11\",\"2\",\"S\",\"C\",\"59\"
\"\",\"\",\"approach-retreat\",\"63\",\"745887\",\"0.0-63.0\",\"\",\"\",\"2-4\",\"6123\",\"39\",\"1\",\"Training\",\"Stims/Figures/74-J-10-4.bmp\",\"mamala\",\"Right\",\"39\",\"4\",\"12\",\"2\",\"S\",\"C\",\"60\"
\"\",\"\",\"approach-retreat\",\"64\",\"751546\",\"0.0-64.0\",\"\",\"\",\"2-4\",\"4150\",\"37\",\"1\",\"Training\",\"Stims/Figures/57-C-30-1.bmp\",\"pakata\",\"Right\",\"37\",\"4\",\"13\",\"2\",\"P\",\"C\",\"61\"
\"\",\"\",\"approach-retreat\",\"65\",\"759670\",\"0.0-65.0\",\"\",\"\",\"2-4\",\"6616\",\"40\",\"1\",\"Training\",\"Stims/Figures/102-C-20-4.bmp\",\"pakata\",\"Up\",\"40\",\"4\",\"14\",\"2\",\"P\",\"C\",\"62\"
\"\",\"\",\"approach-retreat\",\"66\",\"765244\",\"0.0-66.0\",\"\",\"\",\"2-4\",\"4064\",\"40\",\"1\",\"Training\",\"Stims/Figures/144-C-30-3.bmp\",\"pakata\",\"Up\",\"40\",\"4\",\"15\",\"2\",\"P\",\"C\",\"63\"
\"\",\"\",\"approach-retreat\",\"67\",\"771080\",\"0.0-67.0\",\"\",\"\",\"2-4\",\"4328\",\"38\",\"1\",\"Training\",\"Stims/Figures/57-J-0-1.bmp\",\"mamala\",\"Up\",\"38\",\"4\",\"16\",\"2\",\"S\",\"C\",\"64\"
\"\",\"\",\"approach-retreat\",\"68\",\"777885\",\"0.0-68.0\",\"\",\"\",\"2-4\",\"5295\",\"37\",\"1\",\"Training\",\"Stims/Figures/128-J-10-3.bmp\",\"mamala\",\"Left\",\"37\",\"5\",\"1\",\"2\",\"S\",\"C\",\"65\"
\"\",\"\",\"approach-retreat\",\"69\",\"783680\",\"0.0-69.0\",\"\",\"\",\"2-4\",\"4288\",\"39\",\"1\",\"Training\",\"Stims/Figures/85-J-0-2.bmp\",\"mamala\",\"Right\",\"39\",\"5\",\"2\",\"2\",\"S\",\"C\",\"66\"
\"\",\"\",\"approach-retreat\",\"70\",\"789338\",\"0.0-70.0\",\"\",\"\",\"2-4\",\"4149\",\"40\",\"1\",\"Training\",\"Stims/Figures/74-C-20-4.bmp\",\"pakata\",\"Up\",\"40\",\"5\",\"3\",\"2\",\"P\",\"C\",\"67\"
\"\",\"\",\"approach-retreat\",\"71\",\"796148\",\"0.0-71.0\",\"\",\"\",\"2-4\",\"5301\",\"39\",\"1\",\"Training\",\"Stims/Figures/74-J-10-4.bmp\",\"mamala\",\"Right\",\"39\",\"5\",\"4\",\"2\",\"S\",\"C\",\"68\"
\"\",\"\",\"approach-retreat\",\"72\",\"803229\",\"0.0-72.0\",\"\",\"\",\"2-4\",\"5571\",\"38\",\"1\",\"Training\",\"Stims/Figures/144-C-30-3.bmp\",\"pakata\",\"Down\",\"38\",\"5\",\"5\",\"2\",\"P\",\"C\",\"69\"
\"\",\"\",\"approach-retreat\",\"73\",\"808817\",\"0.0-73.0\",\"\",\"\",\"2-4\",\"4078\",\"37\",\"1\",\"Training\",\"Stims/Figures/102-C-20-4.bmp\",\"pakata\",\"Right\",\"37\",\"5\",\"6\",\"2\",\"P\",\"C\",\"70\"
\"\",\"\",\"approach-retreat\",\"74\",\"814695\",\"0.0-74.0\",\"\",\"\",\"2-4\",\"4367\",\"40\",\"1\",\"Training\",\"Stims/Figures/27-C-30-1.bmp\",\"pakata\",\"Up\",\"40\",\"5\",\"7\",\"2\",\"P\",\"C\",\"71\"
\"\",\"\",\"approach-retreat\",\"75\",\"820688\",\"0.0-75.0\",\"\",\"\",\"2-4\",\"4483\",\"40\",\"1\",\"Training\",\"Stims/Figures/102-J-10-4.bmp\",\"mamala\",\"Down\",\"40\",\"5\",\"8\",\"2\",\"S\",\"C\",\"72\"
\"\",\"\",\"approach-retreat\",\"76\",\"826967\",\"0.0-76.0\",\"\",\"\",\"2-4\",\"4770\",\"38\",\"1\",\"Training\",\"Stims/Figures/84-J-0-2.bmp\",\"mamala\",\"Up\",\"38\",\"5\",\"9\",\"2\",\"S\",\"C\",\"73\"
\"\",\"\",\"approach-retreat\",\"77\",\"832863\",\"0.0-77.0\",\"\",\"\",\"2-4\",\"4387\",\"39\",\"1\",\"Training\",\"Stims/Figures/128-C-30-3.bmp\",\"pakata\",\"Left\",\"39\",\"5\",\"10\",\"2\",\"P\",\"C\",\"74\"
\"\",\"\",\"approach-retreat\",\"78\",\"839500\",\"0.0-78.0\",\"\",\"\",\"2-4\",\"5128\",\"38\",\"1\",\"Training\",\"Stims/Figures/84-C-20-2.bmp\",\"pakata\",\"Down\",\"38\",\"5\",\"11\",\"2\",\"P\",\"C\",\"75\"
\"\",\"\",\"approach-retreat\",\"79\",\"845941\",\"0.0-79.0\",\"\",\"\",\"2-4\",\"4933\",\"37\",\"1\",\"Training\",\"Stims/Figures/57-J-0-1.bmp\",\"mamala\",\"Left\",\"37\",\"5\",\"12\",\"2\",\"S\",\"C\",\"76\"
\"\",\"\",\"approach-retreat\",\"80\",\"851758\",\"0.0-80.0\",\"\",\"\",\"2-4\",\"4307\",\"38\",\"1\",\"Training\",\"Stims/Figures/144-J-10-3.bmp\",\"mamala\",\"Up\",\"38\",\"5\",\"13\",\"2\",\"S\",\"C\",\"77\"
\"\",\"\",\"approach-retreat\",\"81\",\"859788\",\"0.0-81.0\",\"\",\"\",\"2-4\",\"6520\",\"37\",\"1\",\"Training\",\"Stims/Figures/85-C-20-2.bmp\",\"pakata\",\"Right\",\"37\",\"5\",\"14\",\"2\",\"P\",\"C\",\"78\"
\"\",\"\",\"approach-retreat\",\"82\",\"865511\",\"0.0-82.0\",\"\",\"\",\"2-4\",\"4212\",\"38\",\"1\",\"Training\",\"Stims/Figures/57-C-30-1.bmp\",\"pakata\",\"Down\",\"38\",\"5\",\"15\",\"2\",\"P\",\"C\",\"79\"
\"\",\"\",\"approach-retreat\",\"83\",\"874591\",\"0.0-83.0\",\"\",\"\",\"2-4\",\"7571\",\"37\",\"1\",\"Training\",\"Stims/Figures/27-J-0-1.bmp\",\"mamala\",\"Left\",\"37\",\"5\",\"16\",\"2\",\"S\",\"C\",\"80\"
\"\",\"\",\"approach-retreat\",\"84\",\"880145\",\"0.0-84.0\",\"\",\"\",\"2-4\",\"4043\",\"39\",\"1\",\"Training\",\"Stims/Figures/128-C-30-3.bmp\",\"pakata\",\"Left\",\"39\",\"6\",\"1\",\"2\",\"P\",\"C\",\"81\"
\"\",\"\",\"approach-retreat\",\"85\",\"885777\",\"0.0-85.0\",\"\",\"\",\"2-4\",\"4124\",\"38\",\"1\",\"Training\",\"Stims/Figures/128-J-10-3.bmp\",\"mamala\",\"Up\",\"38\",\"6\",\"2\",\"2\",\"S\",\"C\",\"82\"
\"\",\"\",\"approach-retreat\",\"86\",\"891389\",\"0.0-86.0\",\"\",\"\",\"2-4\",\"4102\",\"39\",\"1\",\"Training\",\"Stims/Figures/102-J-10-4.bmp\",\"mamala\",\"Right\",\"39\",\"6\",\"3\",\"2\",\"S\",\"C\",\"83\"
\"\",\"\",\"approach-retreat\",\"87\",\"896997\",\"0.0-87.0\",\"\",\"\",\"2-4\",\"4099\",\"39\",\"1\",\"Training\",\"Stims/Figures/144-J-10-3.bmp\",\"mamala\",\"Right\",\"39\",\"6\",\"4\",\"2\",\"S\",\"C\",\"84\"
\"\",\"\",\"approach-retreat\",\"88\",\"902646\",\"0.0-88.0\",\"\",\"\",\"2-4\",\"4140\",\"40\",\"1\",\"Training\",\"Stims/Figures/57-J-0-1.bmp\",\"mamala\",\"Down\",\"40\",\"6\",\"5\",\"2\",\"S\",\"C\",\"85\"
\"\",\"\",\"approach-retreat\",\"89\",\"908206\",\"0.0-89.0\",\"\",\"\",\"2-4\",\"4049\",\"37\",\"1\",\"Training\",\"Stims/Figures/74-J-10-4.bmp\",\"mamala\",\"Left\",\"37\",\"6\",\"6\",\"2\",\"S\",\"C\",\"86\"
\"\",\"\",\"approach-retreat\",\"90\",\"913874\",\"0.0-90.0\",\"\",\"\",\"2-4\",\"4159\",\"39\",\"1\",\"Training\",\"Stims/Figures/84-J-0-2.bmp\",\"mamala\",\"Right\",\"39\",\"6\",\"7\",\"2\",\"S\",\"C\",\"87\"
\"\",\"\",\"approach-retreat\",\"91\",\"919584\",\"0.0-91.0\",\"\",\"\",\"2-4\",\"4199\",\"37\",\"1\",\"Training\",\"Stims/Figures/144-C-30-3.bmp\",\"pakata\",\"Right\",\"37\",\"6\",\"8\",\"2\",\"P\",\"C\",\"88\"
\"\",\"\",\"approach-retreat\",\"92\",\"925425\",\"0.0-92.0\",\"\",\"\",\"2-4\",\"4333\",\"40\",\"1\",\"Training\",\"Stims/Figures/27-C-30-1.bmp\",\"pakata\",\"Up\",\"40\",\"6\",\"9\",\"2\",\"P\",\"C\",\"89\"
\"\",\"\",\"approach-retreat\",\"93\",\"931218\",\"0.0-93.0\",\"\",\"\",\"2-4\",\"4285\",\"38\",\"1\",\"Training\",\"Stims/Figures/27-J-0-1.bmp\",\"mamala\",\"Up\",\"38\",\"6\",\"10\",\"2\",\"S\",\"C\",\"90\"
\"\",\"\",\"approach-retreat\",\"94\",\"937070\",\"0.0-94.0\",\"\",\"\",\"2-4\",\"4343\",\"38\",\"1\",\"Training\",\"Stims/Figures/85-C-20-2.bmp\",\"pakata\",\"Down\",\"38\",\"6\",\"11\",\"2\",\"P\",\"C\",\"91\"
\"\",\"\",\"approach-retreat\",\"95\",\"943049\",\"0.0-95.0\",\"\",\"\",\"2-4\",\"4470\",\"40\",\"1\",\"Training\",\"Stims/Figures/102-C-20-4.bmp\",\"pakata\",\"Up\",\"40\",\"6\",\"12\",\"2\",\"P\",\"C\",\"92\"
\"\",\"\",\"approach-retreat\",\"96\",\"948573\",\"0.0-96.0\",\"\",\"\",\"2-4\",\"4014\",\"39\",\"1\",\"Training\",\"Stims/Figures/84-C-20-2.bmp\",\"pakata\",\"Left\",\"39\",\"6\",\"13\",\"2\",\"P\",\"C\",\"93\"
\"\",\"\",\"approach-retreat\",\"97\",\"954481\",\"0.0-97.0\",\"\",\"\",\"2-4\",\"4399\",\"37\",\"1\",\"Training\",\"Stims/Figures/85-J-0-2.bmp\",\"mamala\",\"Left\",\"37\",\"6\",\"14\",\"2\",\"S\",\"C\",\"94\"
\"\",\"\",\"approach-retreat\",\"98\",\"960042\",\"0.0-98.0\",\"\",\"\",\"2-4\",\"4052\",\"38\",\"1\",\"Training\",\"Stims/Figures/57-C-30-1.bmp\",\"pakata\",\"Down\",\"38\",\"6\",\"15\",\"2\",\"P\",\"C\",\"95\"
\"\",\"\",\"approach-retreat\",\"99\",\"965743\",\"0.0-99.0\",\"\",\"\",\"2-4\",\"4193\",\"38\",\"1\",\"Training\",\"Stims/Figures/74-C-20-4.bmp\",\"pakata\",\"Down\",\"38\",\"6\",\"16\",\"2\",\"P\",\"C\",\"96\"
\"\",\"\",\"approach-retreat\",\"100\",\"971579\",\"0.0-100.0\",\"\",\"\",\"2-4\",\"4327\",\"38\",\"1\",\"Training\",\"Stims/Figures/102-J-10-4.bmp\",\"mamala\",\"Up\",\"38\",\"7\",\"1\",\"2\",\"S\",\"C\",\"97\"
\"\",\"\",\"approach-retreat\",\"101\",\"977135\",\"0.0-101.0\",\"\",\"\",\"2-4\",\"4047\",\"38\",\"1\",\"Training\",\"Stims/Figures/144-C-30-3.bmp\",\"pakata\",\"Down\",\"38\",\"7\",\"2\",\"2\",\"P\",\"C\",\"98\"
\"\",\"\",\"approach-retreat\",\"102\",\"982952\",\"0.0-102.0\",\"\",\"\",\"2-4\",\"4309\",\"40\",\"1\",\"Training\",\"Stims/Figures/128-C-30-3.bmp\",\"pakata\",\"Up\",\"40\",\"7\",\"3\",\"2\",\"P\",\"C\",\"99\"
\"\",\"\",\"approach-retreat\",\"103\",\"989281\",\"0.0-103.0\",\"\",\"\",\"2-4\",\"4820\",\"37\",\"1\",\"Training\",\"Stims/Figures/102-C-20-4.bmp\",\"pakata\",\"Right\",\"37\",\"7\",\"4\",\"2\",\"P\",\"C\",\"100\"
\"\",\"\",\"approach-retreat\",\"104\",\"996207\",\"0.0-104.0\",\"\",\"\",\"2-4\",\"5417\",\"39\",\"1\",\"Training\",\"Stims/Figures/57-J-0-1.bmp\",\"mamala\",\"Right\",\"39\",\"7\",\"5\",\"2\",\"S\",\"C\",\"101\"
\"\",\"\",\"approach-retreat\",\"105\",\"1002090\",\"0.0-105.0\",\"\",\"\",\"2-4\",\"4374\",\"39\",\"1\",\"Training\",\"Stims/Figures/27-C-30-1.bmp\",\"pakata\",\"Left\",\"39\",\"7\",\"6\",\"2\",\"P\",\"C\",\"102\"
\"\",\"\",\"approach-retreat\",\"106\",\"1007780\",\"0.0-106.0\",\"\",\"\",\"2-4\",\"4181\",\"37\",\"1\",\"Training\",\"Stims/Figures/85-J-0-2.bmp\",\"mamala\",\"Left\",\"37\",\"7\",\"7\",\"2\",\"S\",\"C\",\"103\"
\"\",\"\",\"approach-retreat\",\"107\",\"1015342\",\"0.0-107.0\",\"\",\"\",\"2-4\",\"6053\",\"37\",\"1\",\"Training\",\"Stims/Figures/144-J-10-3.bmp\",\"mamala\",\"Left\",\"37\",\"7\",\"8\",\"2\",\"S\",\"C\",\"104\"
\"\",\"\",\"approach-retreat\",\"108\",\"1021124\",\"0.0-108.0\",\"\",\"\",\"2-4\",\"4274\",\"38\",\"1\",\"Training\",\"Stims/Figures/84-J-0-2.bmp\",\"mamala\",\"Up\",\"38\",\"7\",\"9\",\"2\",\"S\",\"C\",\"105\"
\"\",\"\",\"approach-retreat\",\"109\",\"1027224\",\"0.0-109.0\",\"\",\"\",\"2-4\",\"4590\",\"38\",\"1\",\"Training\",\"Stims/Figures/74-C-20-4.bmp\",\"pakata\",\"Down\",\"38\",\"7\",\"10\",\"2\",\"P\",\"C\",\"106\"
\"\",\"\",\"approach-retreat\",\"110\",\"1034294\",\"0.0-110.0\",\"\",\"\",\"2-4\",\"5563\",\"40\",\"1\",\"Training\",\"Stims/Figures/74-J-10-4.bmp\",\"mamala\",\"Down\",\"40\",\"7\",\"11\",\"2\",\"S\",\"C\",\"107\"
\"\",\"\",\"approach-retreat\",\"111\",\"1039876\",\"0.0-111.0\",\"\",\"\",\"2-4\",\"4073\",\"40\",\"1\",\"Training\",\"Stims/Figures/128-J-10-3.bmp\",\"mamala\",\"Down\",\"40\",\"7\",\"12\",\"2\",\"S\",\"C\",\"108\"
\"\",\"\",\"approach-retreat\",\"112\",\"1047786\",\"0.0-112.0\",\"\",\"\",\"2-4\",\"6401\",\"39\",\"1\",\"Training\",\"Stims/Figures/57-C-30-1.bmp\",\"pakata\",\"Left\",\"39\",\"7\",\"13\",\"2\",\"P\",\"C\",\"109\"
\"\",\"\",\"approach-retreat\",\"113\",\"1053698\",\"0.0-113.0\",\"\",\"\",\"2-4\",\"4404\",\"40\",\"1\",\"Training\",\"Stims/Figures/85-C-20-2.bmp\",\"pakata\",\"Up\",\"40\",\"7\",\"14\",\"2\",\"P\",\"C\",\"110\"
\"\",\"\",\"approach-retreat\",\"114\",\"1059441\",\"0.0-114.0\",\"\",\"\",\"2-4\",\"4233\",\"39\",\"1\",\"Training\",\"Stims/Figures/27-J-0-1.bmp\",\"mamala\",\"Right\",\"39\",\"7\",\"15\",\"2\",\"S\",\"C\",\"111\"
\"\",\"\",\"approach-retreat\",\"115\",\"1064937\",\"0.0-115.0\",\"\",\"\",\"2-4\",\"3985\",\"37\",\"1\",\"Training\",\"Stims/Figures/84-C-20-2.bmp\",\"pakata\",\"Right\",\"37\",\"7\",\"16\",\"2\",\"P\",\"C\",\"112\"
\"\",\"\",\"approach-retreat\",\"116\",\"1071953\",\"0.0-116.0\",\"\",\"\",\"2-4\",\"5506\",\"40\",\"1\",\"Training\",\"Stims/Figures/144-J-10-3.bmp\",\"mamala\",\"Down\",\"40\",\"8\",\"1\",\"2\",\"S\",\"C\",\"113\"
\"\",\"\",\"approach-retreat\",\"117\",\"1078883\",\"0.0-117.0\",\"\",\"\",\"2-4\",\"5421\",\"39\",\"1\",\"Training\",\"Stims/Figures/102-C-20-4.bmp\",\"pakata\",\"Left\",\"39\",\"8\",\"2\",\"2\",\"P\",\"C\",\"114\"
\"\",\"\",\"approach-retreat\",\"118\",\"1085458\",\"0.0-118.0\",\"\",\"\",\"2-4\",\"5066\",\"40\",\"1\",\"Training\",\"Stims/Figures/102-J-10-4.bmp\",\"mamala\",\"Down\",\"40\",\"8\",\"3\",\"2\",\"S\",\"C\",\"115\"
\"\",\"\",\"approach-retreat\",\"119\",\"1091489\",\"0.0-119.0\",\"\",\"\",\"2-4\",\"4522\",\"40\",\"1\",\"Training\",\"Stims/Figures/57-J-0-1.bmp\",\"mamala\",\"Down\",\"40\",\"8\",\"4\",\"2\",\"S\",\"C\",\"116\"
\"\",\"\",\"approach-retreat\",\"120\",\"1097902\",\"0.0-120.0\",\"\",\"\",\"2-4\",\"4904\",\"38\",\"1\",\"Training\",\"Stims/Figures/27-J-0-1.bmp\",\"mamala\",\"Up\",\"38\",\"8\",\"5\",\"2\",\"S\",\"C\",\"117\"
\"\",\"\",\"approach-retreat\",\"121\",\"1103458\",\"0.0-121.0\",\"\",\"\",\"2-4\",\"4046\",\"39\",\"1\",\"Training\",\"Stims/Figures/128-C-30-3.bmp\",\"pakata\",\"Left\",\"39\",\"8\",\"6\",\"2\",\"P\",\"C\",\"118\"
\"\",\"\",\"approach-retreat\",\"122\",\"1109501\",\"0.0-122.0\",\"\",\"\",\"2-4\",\"4534\",\"39\",\"1\",\"Training\",\"Stims/Figures/85-J-0-2.bmp\",\"mamala\",\"Right\",\"39\",\"8\",\"7\",\"2\",\"S\",\"C\",\"119\"
\"\",\"\",\"approach-retreat\",\"123\",\"1115079\",\"0.0-123.0\",\"\",\"\",\"2-4\",\"4069\",\"39\",\"1\",\"Training\",\"Stims/Figures/144-C-30-3.bmp\",\"pakata\",\"Left\",\"39\",\"8\",\"8\",\"2\",\"P\",\"C\",\"120\"
\"\",\"\",\"approach-retreat\",\"124\",\"1121899\",\"0.0-124.0\",\"\",\"\",\"2-4\",\"5309\",\"40\",\"1\",\"Training\",\"Stims/Figures/84-J-0-2.bmp\",\"mamala\",\"Down\",\"40\",\"8\",\"9\",\"2\",\"S\",\"C\",\"121\"
\"\",\"\",\"approach-retreat\",\"125\",\"1127431\",\"0.0-125.0\",\"\",\"\",\"2-4\",\"4024\",\"40\",\"1\",\"Training\",\"Stims/Figures/57-C-30-1.bmp\",\"pakata\",\"Up\",\"40\",\"8\",\"10\",\"2\",\"P\",\"C\",\"122\"
\"\",\"\",\"approach-retreat\",\"126\",\"1132860\",\"0.0-126.0\",\"\",\"\",\"2-4\",\"3918\",\"37\",\"1\",\"Training\",\"Stims/Figures/85-C-20-2.bmp\",\"pakata\",\"Right\",\"37\",\"8\",\"11\",\"2\",\"P\",\"C\",\"123\"
\"\",\"\",\"approach-retreat\",\"127\",\"1138668\",\"0.0-127.0\",\"\",\"\",\"2-4\",\"4299\",\"40\",\"1\",\"Training\",\"Stims/Figures/84-C-20-2.bmp\",\"pakata\",\"Up\",\"40\",\"8\",\"12\",\"2\",\"P\",\"C\",\"124\"
\"\",\"\",\"approach-retreat\",\"128\",\"1147843\",\"0.0-128.0\",\"\",\"\",\"2-4\",\"7665\",\"39\",\"1\",\"Training\",\"Stims/Figures/74-J-10-4.bmp\",\"mamala\",\"Right\",\"39\",\"8\",\"13\",\"2\",\"S\",\"C\",\"125\"
\"\",\"\",\"approach-retreat\",\"129\",\"1155258\",\"0.0-129.0\",\"\",\"\",\"2-4\",\"5906\",\"39\",\"1\",\"Training\",\"Stims/Figures/74-C-20-4.bmp\",\"pakata\",\"Left\",\"39\",\"8\",\"14\",\"2\",\"P\",\"C\",\"126\"
\"\",\"\",\"approach-retreat\",\"130\",\"1160908\",\"0.0-130.0\",\"\",\"\",\"2-4\",\"4141\",\"38\",\"1\",\"Training\",\"Stims/Figures/128-J-10-3.bmp\",\"mamala\",\"Up\",\"38\",\"8\",\"15\",\"2\",\"S\",\"C\",\"127\"
\"\",\"\",\"approach-retreat\",\"131\",\"1166417\",\"0.0-131.0\",\"\",\"\",\"2-4\",\"4001\",\"37\",\"1\",\"Training\",\"Stims/Figures/27-C-30-1.bmp\",\"pakata\",\"Right\",\"37\",\"8\",\"16\",\"2\",\"P\",\"C\",\"128\"
\"\",\"\",\"approach-retreat\",\"132\",\"1171942\",\"0.0-132.0\",\"\",\"\",\"2-4\",\"4015\",\"39\",\"1\",\"Training\",\"Stims/Figures/57-C-30-1.bmp\",\"pakata\",\"Left\",\"39\",\"9\",\"1\",\"2\",\"P\",\"C\",\"129\"
\"\",\"\",\"approach-retreat\",\"133\",\"1177506\",\"0.0-133.0\",\"\",\"\",\"2-4\",\"4055\",\"39\",\"1\",\"Training\",\"Stims/Figures/102-C-20-4.bmp\",\"pakata\",\"Left\",\"39\",\"9\",\"2\",\"2\",\"P\",\"C\",\"130\"
\"\",\"\",\"approach-retreat\",\"134\",\"1183382\",\"0.0-134.0\",\"\",\"\",\"2-4\",\"4368\",\"38\",\"1\",\"Training\",\"Stims/Figures/57-J-0-1.bmp\",\"mamala\",\"Up\",\"38\",\"9\",\"3\",\"2\",\"S\",\"C\",\"131\"
\"\",\"\",\"approach-retreat\",\"135\",\"1189663\",\"0.0-135.0\",\"\",\"\",\"2-4\",\"4772\",\"38\",\"1\",\"Training\",\"Stims/Figures/128-J-10-3.bmp\",\"mamala\",\"Up\",\"38\",\"9\",\"4\",\"2\",\"S\",\"C\",\"132\"
\"\",\"\",\"approach-retreat\",\"136\",\"1195366\",\"0.0-136.0\",\"\",\"\",\"2-4\",\"4192\",\"40\",\"1\",\"Training\",\"Stims/Figures/144-C-30-3.bmp\",\"pakata\",\"Up\",\"40\",\"9\",\"5\",\"2\",\"P\",\"C\",\"133\"
\"\",\"\",\"approach-retreat\",\"137\",\"1201734\",\"0.0-137.0\",\"\",\"\",\"2-4\",\"4859\",\"39\",\"1\",\"Training\",\"Stims/Figures/74-J-10-4.bmp\",\"mamala\",\"Right\",\"39\",\"9\",\"6\",\"2\",\"S\",\"C\",\"134\"
\"\",\"\",\"approach-retreat\",\"138\",\"1209846\",\"0.0-138.0\",\"\",\"\",\"2-4\",\"6603\",\"39\",\"1\",\"Training\",\"Stims/Figures/128-C-30-3.bmp\",\"pakata\",\"Left\",\"39\",\"9\",\"7\",\"2\",\"P\",\"C\",\"135\"
\"\",\"\",\"approach-retreat\",\"139\",\"1215651\",\"0.0-139.0\",\"\",\"\",\"2-4\",\"4296\",\"38\",\"1\",\"Training\",\"Stims/Figures/84-C-20-2.bmp\",\"pakata\",\"Down\",\"38\",\"9\",\"8\",\"2\",\"P\",\"C\",\"136\"
\"\",\"\",\"approach-retreat\",\"140\",\"1221196\",\"0.0-140.0\",\"\",\"\",\"2-4\",\"4036\",\"37\",\"1\",\"Training\",\"Stims/Figures/27-C-30-1.bmp\",\"pakata\",\"Right\",\"37\",\"9\",\"9\",\"2\",\"P\",\"C\",\"137\"
\"\",\"\",\"approach-retreat\",\"141\",\"1226781\",\"0.0-141.0\",\"\",\"\",\"2-4\",\"4077\",\"38\",\"1\",\"Training\",\"Stims/Figures/84-J-0-2.bmp\",\"mamala\",\"Up\",\"38\",\"9\",\"10\",\"2\",\"S\",\"C\",\"138\"
\"\",\"\",\"approach-retreat\",\"142\",\"1232373\",\"0.0-142.0\",\"\",\"\",\"2-4\",\"4083\",\"38\",\"1\",\"Training\",\"Stims/Figures/74-C-20-4.bmp\",\"pakata\",\"Down\",\"38\",\"9\",\"11\",\"2\",\"P\",\"C\",\"139\"
\"\",\"\",\"approach-retreat\",\"143\",\"1238201\",\"0.0-143.0\",\"\",\"\",\"2-4\",\"4319\",\"40\",\"1\",\"Training\",\"Stims/Figures/27-J-0-1.bmp\",\"mamala\",\"Down\",\"40\",\"9\",\"12\",\"2\",\"S\",\"C\",\"140\"
\"\",\"\",\"approach-retreat\",\"144\",\"1245029\",\"0.0-144.0\",\"\",\"\",\"2-4\",\"5319\",\"40\",\"1\",\"Training\",\"Stims/Figures/102-J-10-4.bmp\",\"mamala\",\"Down\",\"40\",\"9\",\"13\",\"2\",\"S\",\"C\",\"141\"
\"\",\"\",\"approach-retreat\",\"145\",\"1250690\",\"0.0-145.0\",\"\",\"\",\"2-4\",\"4151\",\"37\",\"1\",\"Training\",\"Stims/Figures/85-C-20-2.bmp\",\"pakata\",\"Right\",\"37\",\"9\",\"14\",\"2\",\"P\",\"C\",\"142\"
\"\",\"\",\"approach-retreat\",\"146\",\"1256797\",\"0.0-146.0\",\"\",\"\",\"2-4\",\"4597\",\"37\",\"1\",\"Training\",\"Stims/Figures/85-J-0-2.bmp\",\"mamala\",\"Left\",\"37\",\"9\",\"15\",\"2\",\"S\",\"C\",\"143\"
\"\",\"\",\"approach-retreat\",\"147\",\"1262409\",\"0.0-147.0\",\"\",\"\",\"2-4\",\"4104\",\"39\",\"1\",\"Training\",\"Stims/Figures/144-J-10-3.bmp\",\"mamala\",\"Right\",\"39\",\"9\",\"16\",\"2\",\"S\",\"C\",\"144\"
\"22397\",\"\",\"instructions\",\"148\",\"1284807\",\"0.0-148.0\",\"[{\"\"page_index\"\":0,\"\"viewing_time\"\":22395}]\",\"\",\"\",\"\",\"\",\"\",\"\",\"\",\"\",\"\",\"\",\"\",\"\",\"\",\"\",\"\",\"\"
\"\",\"\",\"approach-retreat\",\"149\",\"1290528\",\"0.0-149.0\",\"\",\"\",\"2-4\",\"4214\",\"38\",\"1\",\"Testing\",\"Stims/Figures/144-C-30-3.bmp\",\"pakata\",\"Down\",\"38\",\"1\",\"1\",\"2\",\"P\",\"C\",\"1\"
\"\",\"\",\"approach-retreat\",\"150\",\"1296231\",\"0.0-150.0\",\"\",\"\",\"2-4\",\"4196\",\"38\",\"1\",\"Testing\",\"Stims/Figures/57-J-0-1.bmp\",\"mamala\",\"Up\",\"38\",\"1\",\"2\",\"2\",\"S\",\"C\",\"2\"
\"\",\"\",\"approach-retreat\",\"151\",\"1301985\",\"0.0-151.0\",\"\",\"\",\"2-4\",\"4245\",\"39\",\"1\",\"Testing\",\"Stims/Figures/85-C-20-2.bmp\",\"pakata\",\"Left\",\"39\",\"1\",\"3\",\"2\",\"P\",\"C\",\"3\"
\"\",\"\",\"approach-retreat\",\"152\",\"1307631\",\"0.0-152.0\",\"\",\"\",\"2-4\",\"4139\",\"38\",\"1\",\"Testing\",\"Stims/Figures/27-J-0-1.bmp\",\"mamala\",\"Up\",\"38\",\"1\",\"4\",\"2\",\"S\",\"C\",\"4\"
\"\",\"\",\"approach-retreat\",\"153\",\"1314417\",\"0.0-153.0\",\"\",\"\",\"2-4\",\"5278\",\"40\",\"1\",\"Testing\",\"Stims/Figures/102-C-20-4.bmp\",\"pakata\",\"Up\",\"40\",\"1\",\"5\",\"2\",\"P\",\"C\",\"5\"
\"\",\"\",\"approach-retreat\",\"154\",\"1320121\",\"0.0-154.0\",\"\",\"\",\"2-4\",\"4197\",\"40\",\"1\",\"Testing\",\"Stims/Figures/100-J-10-3.bmp\",\"mamala\",\"Down\",\"40\",\"1\",\"6\",\"2\",\"S\",\"C\",\"6\"
\"\",\"\",\"approach-retreat\",\"155\",\"1326129\",\"0.0-155.0\",\"\",\"\",\"2-4\",\"4500\",\"37\",\"1\",\"Testing\",\"Stims/Figures/7-C-20-4.bmp\",\"pakata\",\"Right\",\"37\",\"1\",\"7\",\"2\",\"P\",\"C\",\"7\"
\"\",\"\",\"approach-retreat\",\"156\",\"1332115\",\"0.0-156.0\",\"\",\"\",\"2-4\",\"4475\",\"39\",\"1\",\"Testing\",\"Stims/Figures/144-J-10-3.bmp\",\"mamala\",\"Right\",\"39\",\"1\",\"8\",\"2\",\"S\",\"C\",\"8\"
\"\",\"\",\"approach-retreat\",\"157\",\"1338453\",\"0.0-157.0\",\"\",\"\",\"2-4\",\"4831\",\"38\",\"1\",\"Testing\",\"Stims/Figures/94-J-0-2.bmp\",\"mamala\",\"Up\",\"38\",\"1\",\"9\",\"2\",\"S\",\"C\",\"9\"
\"\",\"\",\"approach-retreat\",\"158\",\"1344124\",\"0.0-158.0\",\"\",\"\",\"2-4\",\"4163\",\"39\",\"1\",\"Testing\",\"Stims/Figures/84-C-20-2.bmp\",\"pakata\",\"Left\",\"39\",\"1\",\"10\",\"2\",\"P\",\"C\",\"10\"
\"\",\"\",\"approach-retreat\",\"159\",\"1349866\",\"0.0-159.0\",\"\",\"\",\"2-4\",\"4234\",\"39\",\"1\",\"Testing\",\"Stims/Figures/27-C-30-1.bmp\",\"pakata\",\"Left\",\"39\",\"1\",\"11\",\"2\",\"P\",\"C\",\"11\"
\"\",\"\",\"approach-retreat\",\"160\",\"1355532\",\"0.0-160.0\",\"\",\"\",\"2-4\",\"4159\",\"38\",\"1\",\"Testing\",\"Stims/Figures/74-C-20-4.bmp\",\"pakata\",\"Down\",\"38\",\"1\",\"12\",\"2\",\"P\",\"C\",\"12\"
\"\",\"\",\"approach-retreat\",\"161\",\"1361650\",\"0.0-161.0\",\"\",\"\",\"2-4\",\"4611\",\"38\",\"1\",\"Testing\",\"Stims/Figures/100-C-30-3.bmp\",\"pakata\",\"Down\",\"38\",\"1\",\"13\",\"2\",\"P\",\"C\",\"13\"
\"\",\"\",\"approach-retreat\",\"162\",\"1368161\",\"0.0-162.0\",\"\",\"\",\"2-4\",\"5002\",\"39\",\"1\",\"Testing\",\"Stims/Figures/102-J-10-4.bmp\",\"mamala\",\"Right\",\"39\",\"1\",\"14\",\"2\",\"S\",\"C\",\"14\"
\"\",\"\",\"approach-retreat\",\"163\",\"1374105\",\"0.0-163.0\",\"\",\"\",\"2-4\",\"4437\",\"40\",\"1\",\"Testing\",\"Stims/Figures/85-J-0-2.bmp\",\"mamala\",\"Down\",\"40\",\"1\",\"15\",\"2\",\"S\",\"C\",\"15\"
\"\",\"\",\"approach-retreat\",\"164\",\"1379849\",\"0.0-164.0\",\"\",\"\",\"2-4\",\"4236\",\"37\",\"1\",\"Testing\",\"Stims/Figures/94-C-20-2.bmp\",\"pakata\",\"Right\",\"37\",\"1\",\"16\",\"2\",\"P\",\"C\",\"16\"
\"\",\"\",\"approach-retreat\",\"165\",\"1385632\",\"0.0-165.0\",\"\",\"\",\"2-4\",\"4272\",\"39\",\"1\",\"Testing\",\"Stims/Figures/57-C-30-1.bmp\",\"pakata\",\"Left\",\"39\",\"1\",\"17\",\"2\",\"P\",\"C\",\"17\"
\"\",\"\",\"approach-retreat\",\"166\",\"1391350\",\"0.0-166.0\",\"\",\"\",\"2-4\",\"4211\",\"38\",\"0\",\"Testing\",\"Stims/Figures/93-C-30-1.bmp\",\"pakata\",\"Up\",\"40\",\"1\",\"18\",\"2\",\"P\",\"C\",\"18\"
\"\",\"\",\"approach-retreat\",\"167\",\"1396985\",\"0.0-167.0\",\"\",\"\",\"2-4\",\"4119\",\"39\",\"1\",\"Testing\",\"Stims/Figures/93-J-0-1.bmp\",\"mamala\",\"Right\",\"39\",\"1\",\"19\",\"2\",\"S\",\"C\",\"19\"
\"\",\"\",\"approach-retreat\",\"168\",\"1403211\",\"0.0-168.0\",\"\",\"\",\"2-4\",\"4718\",\"37\",\"1\",\"Testing\",\"Stims/Figures/74-J-10-4.bmp\",\"mamala\",\"Left\",\"37\",\"1\",\"20\",\"2\",\"S\",\"C\",\"20\"
\"\",\"\",\"approach-retreat\",\"169\",\"1410984\",\"0.0-169.0\",\"\",\"\",\"2-4\",\"6266\",\"37\",\"1\",\"Testing\",\"Stims/Figures/128-J-10-3.bmp\",\"mamala\",\"Left\",\"37\",\"1\",\"21\",\"2\",\"S\",\"C\",\"21\"
\"\",\"\",\"approach-retreat\",\"170\",\"1416533\",\"0.0-170.0\",\"\",\"\",\"2-4\",\"4042\",\"38\",\"1\",\"Testing\",\"Stims/Figures/128-C-30-3.bmp\",\"pakata\",\"Down\",\"38\",\"1\",\"22\",\"2\",\"P\",\"C\",\"22\"
\"\",\"\",\"approach-retreat\",\"171\",\"1424700\",\"0.0-171.0\",\"\",\"\",\"2-4\",\"6658\",\"38\",\"1\",\"Testing\",\"Stims/Figures/7-J-10-4.bmp\",\"mamala\",\"Up\",\"38\",\"1\",\"23\",\"2\",\"S\",\"C\",\"23\"
\"\",\"\",\"approach-retreat\",\"172\",\"1430296\",\"0.0-172.0\",\"\",\"\",\"2-4\",\"4088\",\"39\",\"1\",\"Testing\",\"Stims/Figures/84-J-0-2.bmp\",\"mamala\",\"Right\",\"39\",\"1\",\"24\",\"2\",\"S\",\"C\",\"24\"
\"\",\"\",\"approach-retreat\",\"173\",\"1435959\",\"0.0-173.0\",\"\",\"\",\"2-4\",\"4157\",\"40\",\"0\",\"Testing\",\"Stims/Figures/74-J-10-4.bmp\",\"mamala\",\"Up\",\"38\",\"2\",\"1\",\"2\",\"S\",\"C\",\"25\"
\"\",\"\",\"approach-retreat\",\"174\",\"1441520\",\"0.0-174.0\",\"\",\"\",\"2-4\",\"4052\",\"37\",\"1\",\"Testing\",\"Stims/Figures/57-C-30-1.bmp\",\"pakata\",\"Right\",\"37\",\"2\",\"2\",\"2\",\"P\",\"C\",\"26\"
\"\",\"\",\"approach-retreat\",\"175\",\"1448755\",\"0.0-175.0\",\"\",\"\",\"2-4\",\"5727\",\"37\",\"1\",\"Testing\",\"Stims/Figures/102-J-10-4.bmp\",\"mamala\",\"Left\",\"37\",\"2\",\"3\",\"2\",\"S\",\"C\",\"27\"
\"\",\"\",\"approach-retreat\",\"176\",\"1457213\",\"0.0-176.0\",\"\",\"\",\"2-4\",\"6950\",\"39\",\"1\",\"Testing\",\"Stims/Figures/128-J-10-3.bmp\",\"mamala\",\"Right\",\"39\",\"2\",\"4\",\"2\",\"S\",\"C\",\"28\"
\"\",\"\",\"approach-retreat\",\"177\",\"1463457\",\"0.0-177.0\",\"\",\"\",\"2-4\",\"4737\",\"38\",\"1\",\"Testing\",\"Stims/Figures/7-J-10-4.bmp\",\"mamala\",\"Up\",\"38\",\"2\",\"5\",\"2\",\"S\",\"C\",\"29\"
\"\",\"\",\"approach-retreat\",\"178\",\"1470405\",\"0.0-178.0\",\"\",\"\",\"2-4\",\"5439\",\"40\",\"1\",\"Testing\",\"Stims/Figures/100-J-10-3.bmp\",\"mamala\",\"Down\",\"40\",\"2\",\"6\",\"2\",\"S\",\"C\",\"30\"
\"\",\"\",\"approach-retreat\",\"179\",\"1476272\",\"0.0-179.0\",\"\",\"\",\"2-4\",\"4360\",\"37\",\"1\",\"Testing\",\"Stims/Figures/85-J-0-2.bmp\",\"mamala\",\"Left\",\"37\",\"2\",\"7\",\"2\",\"S\",\"C\",\"31\"
\"\",\"\",\"approach-retreat\",\"180\",\"1482090\",\"0.0-180.0\",\"\",\"\",\"2-4\",\"4311\",\"37\",\"1\",\"Testing\",\"Stims/Figures/27-C-30-1.bmp\",\"pakata\",\"Right\",\"37\",\"2\",\"8\",\"2\",\"P\",\"C\",\"32\"
\"\",\"\",\"approach-retreat\",\"181\",\"1487642\",\"0.0-181.0\",\"\",\"\",\"2-4\",\"4044\",\"38\",\"1\",\"Testing\",\"Stims/Figures/85-C-20-2.bmp\",\"pakata\",\"Down\",\"38\",\"2\",\"9\",\"2\",\"P\",\"C\",\"33\"
\"\",\"\",\"approach-retreat\",\"182\",\"1493189\",\"0.0-182.0\",\"\",\"\",\"2-4\",\"4040\",\"38\",\"1\",\"Testing\",\"Stims/Figures/84-J-0-2.bmp\",\"mamala\",\"Up\",\"38\",\"2\",\"10\",\"2\",\"S\",\"C\",\"34\"
\"\",\"\",\"approach-retreat\",\"183\",\"1498887\",\"0.0-183.0\",\"\",\"\",\"2-4\",\"4190\",\"40\",\"1\",\"Testing\",\"Stims/Figures/93-C-30-1.bmp\",\"pakata\",\"Up\",\"40\",\"2\",\"11\",\"2\",\"P\",\"C\",\"35\"
\"\",\"\",\"approach-retreat\",\"184\",\"1505449\",\"0.0-184.0\",\"\",\"\",\"2-4\",\"5054\",\"40\",\"1\",\"Testing\",\"Stims/Figures/100-C-30-3.bmp\",\"pakata\",\"Up\",\"40\",\"2\",\"12\",\"2\",\"P\",\"C\",\"36\"
\"\",\"\",\"approach-retreat\",\"185\",\"1511064\",\"0.0-185.0\",\"\",\"\",\"2-4\",\"4106\",\"39\",\"1\",\"Testing\",\"Stims/Figures/57-J-0-1.bmp\",\"mamala\",\"Right\",\"39\",\"2\",\"13\",\"2\",\"S\",\"C\",\"37\"
\"\",\"\",\"approach-retreat\",\"186\",\"1516751\",\"0.0-186.0\",\"\",\"\",\"2-4\",\"4179\",\"38\",\"1\",\"Testing\",\"Stims/Figures/7-C-20-4.bmp\",\"pakata\",\"Down\",\"38\",\"2\",\"14\",\"2\",\"P\",\"C\",\"38\"
\"\",\"\",\"approach-retreat\",\"187\",\"1522559\",\"0.0-187.0\",\"\",\"\",\"2-4\",\"4300\",\"39\",\"1\",\"Testing\",\"Stims/Figures/84-C-20-2.bmp\",\"pakata\",\"Left\",\"39\",\"2\",\"15\",\"2\",\"P\",\"C\",\"39\"
\"\",\"\",\"approach-retreat\",\"188\",\"1528152\",\"0.0-188.0\",\"\",\"\",\"2-4\",\"4085\",\"37\",\"1\",\"Testing\",\"Stims/Figures/93-J-0-1.bmp\",\"mamala\",\"Left\",\"37\",\"2\",\"16\",\"2\",\"S\",\"C\",\"40\"
\"\",\"\",\"approach-retreat\",\"189\",\"1533984\",\"0.0-189.0\",\"\",\"\",\"2-4\",\"4324\",\"38\",\"0\",\"Testing\",\"Stims/Figures/144-J-10-3.bmp\",\"mamala\",\"Down\",\"40\",\"2\",\"17\",\"2\",\"S\",\"C\",\"41\"
\"\",\"\",\"approach-retreat\",\"190\",\"1542227\",\"0.0-190.0\",\"\",\"\",\"2-4\",\"6736\",\"38\",\"1\",\"Testing\",\"Stims/Figures/74-C-20-4.bmp\",\"pakata\",\"Down\",\"38\",\"2\",\"18\",\"2\",\"P\",\"C\",\"42\"
\"\",\"\",\"approach-retreat\",\"191\",\"1547991\",\"0.0-191.0\",\"\",\"\",\"2-4\",\"4254\",\"37\",\"1\",\"Testing\",\"Stims/Figures/128-C-30-3.bmp\",\"pakata\",\"Right\",\"37\",\"2\",\"19\",\"2\",\"P\",\"C\",\"43\"
\"\",\"\",\"approach-retreat\",\"192\",\"1553972\",\"0.0-192.0\",\"\",\"\",\"2-4\",\"4473\",\"37\",\"1\",\"Testing\",\"Stims/Figures/144-C-30-3.bmp\",\"pakata\",\"Right\",\"37\",\"2\",\"20\",\"2\",\"P\",\"C\",\"44\"
\"\",\"\",\"approach-retreat\",\"193\",\"1560477\",\"0.0-193.0\",\"\",\"\",\"2-4\",\"4998\",\"37\",\"1\",\"Testing\",\"Stims/Figures/94-J-0-2.bmp\",\"mamala\",\"Left\",\"37\",\"2\",\"21\",\"2\",\"S\",\"C\",\"45\"
\"\",\"\",\"approach-retreat\",\"194\",\"1567424\",\"0.0-194.0\",\"\",\"\",\"2-4\",\"5437\",\"40\",\"1\",\"Testing\",\"Stims/Figures/102-C-20-4.bmp\",\"pakata\",\"Up\",\"40\",\"2\",\"22\",\"2\",\"P\",\"C\",\"46\"
\"\",\"\",\"approach-retreat\",\"195\",\"1573190\",\"0.0-195.0\",\"\",\"\",\"2-4\",\"4259\",\"38\",\"1\",\"Testing\",\"Stims/Figures/94-C-20-2.bmp\",\"pakata\",\"Down\",\"38\",\"2\",\"23\",\"2\",\"P\",\"C\",\"47\"
\"\",\"\",\"approach-retreat\",\"196\",\"1578700\",\"0.0-196.0\",\"\",\"\",\"2-4\",\"4002\",\"37\",\"1\",\"Testing\",\"Stims/Figures/27-J-0-1.bmp\",\"mamala\",\"Left\",\"37\",\"2\",\"24\",\"2\",\"S\",\"C\",\"48\"
\"\",\"\",\"approach-retreat\",\"197\",\"1584566\",\"0.0-197.0\",\"\",\"\",\"2-4\",\"4358\",\"39\",\"1\",\"Testing\",\"Stims/Figures/74-J-10-4.bmp\",\"mamala\",\"Right\",\"39\",\"3\",\"1\",\"2\",\"S\",\"C\",\"49\"
\"\",\"\",\"approach-retreat\",\"198\",\"1593233\",\"0.0-198.0\",\"\",\"\",\"2-4\",\"7160\",\"40\",\"1\",\"Testing\",\"Stims/Figures/102-J-10-4.bmp\",\"mamala\",\"Down\",\"40\",\"3\",\"2\",\"2\",\"S\",\"C\",\"50\"
\"\",\"\",\"approach-retreat\",\"199\",\"1599194\",\"0.0-199.0\",\"\",\"\",\"2-4\",\"4454\",\"38\",\"1\",\"Testing\",\"Stims/Figures/94-J-0-2.bmp\",\"mamala\",\"Up\",\"38\",\"3\",\"3\",\"2\",\"S\",\"C\",\"51\"
\"\",\"\",\"approach-retreat\",\"200\",\"1604943\",\"0.0-200.0\",\"\",\"\",\"2-4\",\"4242\",\"39\",\"1\",\"Testing\",\"Stims/Figures/144-C-30-3.bmp\",\"pakata\",\"Left\",\"39\",\"3\",\"4\",\"2\",\"P\",\"C\",\"52\"
\"\",\"\",\"approach-retreat\",\"201\",\"1610480\",\"0.0-201.0\",\"\",\"\",\"2-4\",\"4025\",\"38\",\"0\",\"Testing\",\"Stims/Figures/128-C-30-3.bmp\",\"pakata\",\"Up\",\"40\",\"3\",\"5\",\"2\",\"P\",\"C\",\"53\"
\"\",\"\",\"approach-retreat\",\"202\",\"1616159\",\"0.0-202.0\",\"\",\"\",\"2-4\",\"4171\",\"39\",\"1\",\"Testing\",\"Stims/Figures/100-C-30-3.bmp\",\"pakata\",\"Left\",\"39\",\"3\",\"6\",\"2\",\"P\",\"C\",\"54\"
\"\",\"\",\"approach-retreat\",\"203\",\"1621797\",\"0.0-203.0\",\"\",\"\",\"2-4\",\"4131\",\"40\",\"1\",\"Testing\",\"Stims/Figures/102-C-20-4.bmp\",\"pakata\",\"Up\",\"40\",\"3\",\"7\",\"2\",\"P\",\"C\",\"55\"
\"\",\"\",\"approach-retreat\",\"204\",\"1627436\",\"0.0-204.0\",\"\",\"\",\"2-4\",\"4132\",\"39\",\"1\",\"Testing\",\"Stims/Figures/57-J-0-1.bmp\",\"mamala\",\"Right\",\"39\",\"3\",\"8\",\"2\",\"S\",\"C\",\"56\"
\"\",\"\",\"approach-retreat\",\"205\",\"1633501\",\"0.0-205.0\",\"\",\"\",\"2-4\",\"4558\",\"38\",\"1\",\"Testing\",\"Stims/Figures/93-C-30-1.bmp\",\"pakata\",\"Down\",\"38\",\"3\",\"9\",\"2\",\"P\",\"C\",\"57\"
\"\",\"\",\"approach-retreat\",\"206\",\"1640068\",\"0.0-206.0\",\"\",\"\",\"2-4\",\"5060\",\"38\",\"1\",\"Testing\",\"Stims/Figures/84-C-20-2.bmp\",\"pakata\",\"Down\",\"38\",\"3\",\"10\",\"2\",\"P\",\"C\",\"58\"
\"\",\"\",\"approach-retreat\",\"207\",\"1646918\",\"0.0-207.0\",\"\",\"\",\"2-4\",\"5342\",\"38\",\"1\",\"Testing\",\"Stims/Figures/57-C-30-1.bmp\",\"pakata\",\"Down\",\"38\",\"3\",\"11\",\"2\",\"P\",\"C\",\"59\"
\"\",\"\",\"approach-retreat\",\"208\",\"1656591\",\"0.0-208.0\",\"\",\"\",\"2-4\",\"8168\",\"40\",\"1\",\"Testing\",\"Stims/Figures/93-J-0-1.bmp\",\"mamala\",\"Down\",\"40\",\"3\",\"12\",\"2\",\"S\",\"C\",\"60\"
\"\",\"\",\"approach-retreat\",\"209\",\"1664085\",\"0.0-209.0\",\"\",\"\",\"2-4\",\"5985\",\"40\",\"1\",\"Testing\",\"Stims/Figures/85-C-20-2.bmp\",\"pakata\",\"Up\",\"40\",\"3\",\"13\",\"2\",\"P\",\"C\",\"61\"
\"\",\"\",\"approach-retreat\",\"210\",\"1676843\",\"0.0-210.0\",\"\",\"\",\"2-4\",\"11251\",\"38\",\"1\",\"Testing\",\"Stims/Figures/144-J-10-3.bmp\",\"mamala\",\"Up\",\"38\",\"3\",\"14\",\"2\",\"S\",\"C\",\"62\"
\"\",\"\",\"approach-retreat\",\"211\",\"1687149\",\"0.0-211.0\",\"\",\"\",\"2-4\",\"8798\",\"37\",\"1\",\"Testing\",\"Stims/Figures/100-J-10-3.bmp\",\"mamala\",\"Left\",\"37\",\"3\",\"15\",\"2\",\"S\",\"C\",\"63\"
\"\",\"\",\"approach-retreat\",\"212\",\"1693125\",\"0.0-212.0\",\"\",\"\",\"2-4\",\"4468\",\"38\",\"1\",\"Testing\",\"Stims/Figures/128-J-10-3.bmp\",\"mamala\",\"Up\",\"38\",\"3\",\"16\",\"2\",\"S\",\"C\",\"64\"
\"\",\"\",\"approach-retreat\",\"213\",\"1698799\",\"0.0-213.0\",\"\",\"\",\"2-4\",\"4166\",\"39\",\"1\",\"Testing\",\"Stims/Figures/27-J-0-1.bmp\",\"mamala\",\"Right\",\"39\",\"3\",\"17\",\"2\",\"S\",\"C\",\"65\"
\"\",\"\",\"approach-retreat\",\"214\",\"1704442\",\"0.0-214.0\",\"\",\"\",\"2-4\",\"4136\",\"37\",\"1\",\"Testing\",\"Stims/Figures/7-C-20-4.bmp\",\"pakata\",\"Right\",\"37\",\"3\",\"18\",\"2\",\"P\",\"C\",\"66\"
\"\",\"\",\"approach-retreat\",\"215\",\"1710252\",\"0.0-215.0\",\"\",\"\",\"2-4\",\"4303\",\"40\",\"1\",\"Testing\",\"Stims/Figures/85-J-0-2.bmp\",\"mamala\",\"Down\",\"40\",\"3\",\"19\",\"2\",\"S\",\"C\",\"67\"
\"\",\"\",\"approach-retreat\",\"216\",\"1719666\",\"0.0-216.0\",\"\",\"\",\"2-4\",\"7907\",\"37\",\"1\",\"Testing\",\"Stims/Figures/74-C-20-4.bmp\",\"pakata\",\"Right\",\"37\",\"3\",\"20\",\"2\",\"P\",\"C\",\"68\"
\"\",\"\",\"approach-retreat\",\"217\",\"1725631\",\"0.0-217.0\",\"\",\"\",\"2-4\",\"4458\",\"37\",\"0\",\"Testing\",\"Stims/Figures/7-J-10-4.bmp\",\"mamala\",\"Right\",\"39\",\"3\",\"21\",\"2\",\"S\",\"C\",\"69\"
\"\",\"\",\"approach-retreat\",\"218\",\"1731422\",\"0.0-218.0\",\"\",\"\",\"2-4\",\"4283\",\"39\",\"1\",\"Testing\",\"Stims/Figures/27-C-30-1.bmp\",\"pakata\",\"Left\",\"39\",\"3\",\"22\",\"2\",\"P\",\"C\",\"70\"
\"\",\"\",\"approach-retreat\",\"219\",\"1737011\",\"0.0-219.0\",\"\",\"\",\"2-4\",\"4079\",\"39\",\"1\",\"Testing\",\"Stims/Figures/94-C-20-2.bmp\",\"pakata\",\"Left\",\"39\",\"3\",\"23\",\"2\",\"P\",\"C\",\"71\"
\"\",\"\",\"approach-retreat\",\"220\",\"1742594\",\"0.0-220.0\",\"\",\"\",\"2-4\",\"4075\",\"37\",\"1\",\"Testing\",\"Stims/Figures/84-J-0-2.bmp\",\"mamala\",\"Left\",\"37\",\"3\",\"24\",\"2\",\"S\",\"C\",\"72\"
\"\",\"\",\"approach-retreat\",\"221\",\"1750506\",\"0.0-221.0\",\"\",\"\",\"2-4\",\"6405\",\"39\",\"1\",\"Testing\",\"Stims/Figures/74-J-10-4.bmp\",\"mamala\",\"Right\",\"39\",\"4\",\"1\",\"2\",\"S\",\"C\",\"73\"
\"\",\"\",\"approach-retreat\",\"222\",\"1759471\",\"0.0-222.0\",\"\",\"\",\"2-4\",\"7456\",\"38\",\"1\",\"Testing\",\"Stims/Figures/85-J-0-2.bmp\",\"mamala\",\"Up\",\"38\",\"4\",\"2\",\"2\",\"S\",\"C\",\"74\"
\"\",\"\",\"approach-retreat\",\"223\",\"1765085\",\"0.0-223.0\",\"\",\"\",\"2-4\",\"4107\",\"40\",\"1\",\"Testing\",\"Stims/Figures/128-J-10-3.bmp\",\"mamala\",\"Down\",\"40\",\"4\",\"3\",\"2\",\"S\",\"C\",\"75\"
\"\",\"\",\"approach-retreat\",\"224\",\"1772336\",\"0.0-224.0\",\"\",\"\",\"2-4\",\"5744\",\"40\",\"1\",\"Testing\",\"Stims/Figures/94-C-20-2.bmp\",\"pakata\",\"Up\",\"40\",\"4\",\"4\",\"2\",\"P\",\"C\",\"76\"
\"\",\"\",\"approach-retreat\",\"225\",\"1778029\",\"0.0-225.0\",\"\",\"\",\"2-4\",\"4185\",\"40\",\"1\",\"Testing\",\"Stims/Figures/27-J-0-1.bmp\",\"mamala\",\"Down\",\"40\",\"4\",\"5\",\"2\",\"S\",\"C\",\"77\"
\"\",\"\",\"approach-retreat\",\"226\",\"1783675\",\"0.0-226.0\",\"\",\"\",\"2-4\",\"4139\",\"39\",\"1\",\"Testing\",\"Stims/Figures/7-C-20-4.bmp\",\"pakata\",\"Left\",\"39\",\"4\",\"6\",\"2\",\"P\",\"C\",\"78\"
\"\",\"\",\"approach-retreat\",\"227\",\"1789523\",\"0.0-227.0\",\"\",\"\",\"2-4\",\"4341\",\"37\",\"1\",\"Testing\",\"Stims/Figures/85-C-20-2.bmp\",\"pakata\",\"Right\",\"37\",\"4\",\"7\",\"2\",\"P\",\"C\",\"79\"
\"\",\"\",\"approach-retreat\",\"228\",\"1796310\",\"0.0-228.0\",\"\",\"\",\"2-4\",\"5281\",\"38\",\"1\",\"Testing\",\"Stims/Figures/102-J-10-4.bmp\",\"mamala\",\"Up\",\"38\",\"4\",\"8\",\"2\",\"S\",\"C\",\"80\"
\"\",\"\",\"approach-retreat\",\"229\",\"1802168\",\"0.0-229.0\",\"\",\"\",\"2-4\",\"4349\",\"39\",\"1\",\"Testing\",\"Stims/Figures/100-C-30-3.bmp\",\"pakata\",\"Left\",\"39\",\"4\",\"9\",\"2\",\"P\",\"C\",\"81\"
\"\",\"\",\"approach-retreat\",\"230\",\"1807843\",\"0.0-230.0\",\"\",\"\",\"2-4\",\"4168\",\"40\",\"1\",\"Testing\",\"Stims/Figures/57-J-0-1.bmp\",\"mamala\",\"Down\",\"40\",\"4\",\"10\",\"2\",\"S\",\"C\",\"82\"
\"\",\"\",\"approach-retreat\",\"231\",\"1813875\",\"0.0-231.0\",\"\",\"\",\"2-4\",\"4526\",\"39\",\"1\",\"Testing\",\"Stims/Figures/93-C-30-1.bmp\",\"pakata\",\"Left\",\"39\",\"4\",\"11\",\"2\",\"P\",\"C\",\"83\"
\"\",\"\",\"approach-retreat\",\"232\",\"1819543\",\"0.0-232.0\",\"\",\"\",\"2-4\",\"4161\",\"39\",\"1\",\"Testing\",\"Stims/Figures/57-C-30-1.bmp\",\"pakata\",\"Left\",\"39\",\"4\",\"12\",\"2\",\"P\",\"C\",\"84\"
\"\",\"\",\"approach-retreat\",\"233\",\"1825212\",\"0.0-233.0\",\"\",\"\",\"2-4\",\"4163\",\"40\",\"0\",\"Testing\",\"Stims/Figures/84-C-20-2.bmp\",\"pakata\",\"Down\",\"38\",\"4\",\"13\",\"2\",\"P\",\"C\",\"85\"
\"\",\"\",\"approach-retreat\",\"234\",\"1831081\",\"0.0-234.0\",\"\",\"\",\"2-4\",\"4361\",\"39\",\"1\",\"Testing\",\"Stims/Figures/144-J-10-3.bmp\",\"mamala\",\"Right\",\"39\",\"4\",\"14\",\"2\",\"S\",\"C\",\"86\"
\"\",\"\",\"approach-retreat\",\"235\",\"1839080\",\"0.0-235.0\",\"\",\"\",\"2-4\",\"6491\",\"38\",\"0\",\"Testing\",\"Stims/Figures/102-C-20-4.bmp\",\"pakata\",\"Up\",\"40\",\"4\",\"15\",\"2\",\"P\",\"C\",\"87\"
\"\",\"\",\"approach-retreat\",\"236\",\"1844610\",\"0.0-236.0\",\"\",\"\",\"2-4\",\"4022\",\"40\",\"1\",\"Testing\",\"Stims/Figures/94-J-0-2.bmp\",\"mamala\",\"Down\",\"40\",\"4\",\"16\",\"2\",\"S\",\"C\",\"88\"
\"\",\"\",\"approach-retreat\",\"237\",\"1850617\",\"0.0-237.0\",\"\",\"\",\"2-4\",\"4499\",\"37\",\"1\",\"Testing\",\"Stims/Figures/84-J-0-2.bmp\",\"mamala\",\"Left\",\"37\",\"4\",\"17\",\"2\",\"S\",\"C\",\"89\"
\"\",\"\",\"approach-retreat\",\"238\",\"1856261\",\"0.0-238.0\",\"\",\"\",\"2-4\",\"4138\",\"39\",\"1\",\"Testing\",\"Stims/Figures/7-J-10-4.bmp\",\"mamala\",\"Right\",\"39\",\"4\",\"18\",\"2\",\"S\",\"C\",\"90\"
\"\",\"\",\"approach-retreat\",\"239\",\"1862306\",\"0.0-239.0\",\"\",\"\",\"2-4\",\"4537\",\"40\",\"1\",\"Testing\",\"Stims/Figures/144-C-30-3.bmp\",\"pakata\",\"Up\",\"40\",\"4\",\"19\",\"2\",\"P\",\"C\",\"91\"
\"\",\"\",\"approach-retreat\",\"240\",\"1868467\",\"0.0-240.0\",\"\",\"\",\"2-4\",\"4657\",\"38\",\"1\",\"Testing\",\"Stims/Figures/27-C-30-1.bmp\",\"pakata\",\"Down\",\"38\",\"4\",\"20\",\"2\",\"P\",\"C\",\"92\"
\"\",\"\",\"approach-retreat\",\"241\",\"1874153\",\"0.0-241.0\",\"\",\"\",\"2-4\",\"4178\",\"37\",\"1\",\"Testing\",\"Stims/Figures/100-J-10-3.bmp\",\"mamala\",\"Left\",\"37\",\"4\",\"21\",\"2\",\"S\",\"C\",\"93\"
\"\",\"\",\"approach-retreat\",\"242\",\"1879767\",\"0.0-242.0\",\"\",\"\",\"2-4\",\"4108\",\"40\",\"1\",\"Testing\",\"Stims/Figures/128-C-30-3.bmp\",\"pakata\",\"Up\",\"40\",\"4\",\"22\",\"2\",\"P\",\"C\",\"94\"
\"\",\"\",\"approach-retreat\",\"243\",\"1885335\",\"0.0-243.0\",\"\",\"\",\"2-4\",\"4060\",\"39\",\"1\",\"Testing\",\"Stims/Figures/93-J-0-1.bmp\",\"mamala\",\"Right\",\"39\",\"4\",\"23\",\"2\",\"S\",\"C\",\"95\"
\"\",\"\",\"approach-retreat\",\"244\",\"1891219\",\"0.0-244.0\",\"\",\"\",\"2-4\",\"4376\",\"37\",\"1\",\"Testing\",\"Stims/Figures/74-C-20-4.bmp\",\"pakata\",\"Right\",\"37\",\"4\",\"24\",\"2\",\"P\",\"C\",\"96\"
\"36250\",\"\",\"survey-text\",\"245\",\"1927474\",\"0.0-245.0\",\"\",\"{\"\"Q0\"\":\"\"PS160095\"\"}\",\"\",\"\",\"\",\"\",\"\",\"\",\"\",\"\",\"\",\"\",\"\",\"\",\"\",\"\",\"\"
