\"rt\",\"key_press\",\"trial_type\",\"trial_index\",\"time_elapsed\",\"internal_node_id\",\"view_history\",\"responses\",\"Id\",\"Rt\",\"ResKeyCode\",\"ResCorr\",\"TrialType2\",\"Image\",\"Label\",\"Location\",\"CorrectResponse\",\"Block\",\"BlockTrial\",\"Condition\",\"LabelType\",\"Subcondition\",\"trialNum\"
\"33035\",\"32\",\"text\",\"0\",\"33044\",\"0.0-0.0-0.0\",\"\",\"\",\"\",\"\",\"\",\"\",\"\",\"\",\"\",\"\",\"\",\"\",\"\",\"\",\"\",\"\",\"\"
\"72195\",\"\",\"instructions\",\"1\",\"105243\",\"0.0-1.0\",\"[{\"\"page_index\"\":0,\"\"viewing_time\"\":72194}]\",\"\",\"\",\"\",\"\",\"\",\"\",\"\",\"\",\"\",\"\",\"\",\"\",\"\",\"\",\"\",\"\"
\"25155\",\"\",\"survey-multi-choice\",\"2\",\"130460\",\"0.0-2.0\",\"\",\"{\"\"Q0\"\":\"\"Da\"\",\"\"Q1\"\":\"\"Da\"\",\"\"Q2\"\":\"\"Da\"\",\"\"Q3\"\":\"\"Da\"\",\"\"Q4\"\":\"\"Da\"\",\"\"Q5\"\":\"\"Da\"\"}\",\"\",\"\",\"\",\"\",\"\",\"\",\"\",\"\",\"\",\"\",\"\",\"\",\"\",\"\",\"\"
\"\",\"\",\"bio\",\"3\",\"147576\",\"0.0-3.0\",\"\",\"{\"\"age\"\":\"\"20\"\",\"\"gender\"\":\"\"f\"\",\"\"specify\"\":\"\"\"\"}\",\"\",\"\",\"\",\"\",\"\",\"\",\"\",\"\",\"\",\"\",\"\",\"\",\"\",\"\",\"\"
\"\",\"\",\"approach-retreat\",\"4\",\"154487\",\"0.0-4.0\",\"\",\"\",\"3-2\",\"5393\",\"37\",\"1\",\"Training\",\"Stims/Figures/139-C-20-2.bmp\",\"ma:la:la\",\"Left\",\"37\",\"1\",\"1\",\"1\",\"S\",\"J\",\"1\"
\"\",\"\",\"approach-retreat\",\"5\",\"160826\",\"0.0-5.0\",\"\",\"\",\"3-2\",\"4825\",\"39\",\"0\",\"Training\",\"Stims/Figures/87-J-10-4.bmp\",\"ta:kaka\",\"Right\",\"37\",\"1\",\"2\",\"1\",\"P\",\"J\",\"2\"
\"\",\"\",\"approach-retreat\",\"6\",\"167030\",\"0.0-6.0\",\"\",\"\",\"3-2\",\"4691\",\"37\",\"0\",\"Training\",\"Stims/Figures/57-J-0-1.bmp\",\"ta:kaka\",\"Left\",\"39\",\"1\",\"3\",\"1\",\"P\",\"J\",\"3\"
\"\",\"\",\"approach-retreat\",\"7\",\"173765\",\"0.0-7.0\",\"\",\"\",\"3-2\",\"5222\",\"40\",\"0\",\"Training\",\"Stims/Figures/100-C-30-3.bmp\",\"ma:la:la\",\"Up\",\"38\",\"1\",\"4\",\"1\",\"S\",\"J\",\"4\"
\"\",\"\",\"approach-retreat\",\"8\",\"180486\",\"0.0-8.0\",\"\",\"\",\"3-2\",\"5207\",\"40\",\"1\",\"Training\",\"Stims/Figures/139-J-0-2.bmp\",\"ta:kaka\",\"Up\",\"40\",\"1\",\"5\",\"1\",\"P\",\"J\",\"5\"
\"\",\"\",\"approach-retreat\",\"9\",\"187147\",\"0.0-9.0\",\"\",\"\",\"3-2\",\"5147\",\"40\",\"1\",\"Training\",\"Stims/Figures/57-C-30-1.bmp\",\"ma:la:la\",\"Down\",\"40\",\"1\",\"6\",\"1\",\"S\",\"J\",\"6\"
\"\",\"\",\"approach-retreat\",\"10\",\"193931\",\"0.0-10.0\",\"\",\"\",\"3-2\",\"5270\",\"38\",\"1\",\"Training\",\"Stims/Figures/144-C-30-3.bmp\",\"ma:la:la\",\"Up\",\"38\",\"1\",\"7\",\"1\",\"S\",\"J\",\"7\"
\"\",\"\",\"approach-retreat\",\"11\",\"200269\",\"0.0-11.0\",\"\",\"\",\"3-2\",\"4822\",\"37\",\"1\",\"Training\",\"Stims/Figures/71-C-30-1.bmp\",\"ma:la:la\",\"Left\",\"37\",\"1\",\"8\",\"1\",\"S\",\"J\",\"8\"
\"\",\"\",\"approach-retreat\",\"12\",\"206174\",\"0.0-12.0\",\"\",\"\",\"3-2\",\"4392\",\"37\",\"1\",\"Training\",\"Stims/Figures/94-J-0-2.bmp\",\"ta:kaka\",\"Right\",\"37\",\"1\",\"9\",\"1\",\"P\",\"J\",\"9\"
\"\",\"\",\"approach-retreat\",\"13\",\"212386\",\"0.0-13.0\",\"\",\"\",\"3-2\",\"4701\",\"39\",\"1\",\"Training\",\"Stims/Figures/144-J-10-3.bmp\",\"ta:kaka\",\"Left\",\"39\",\"1\",\"10\",\"1\",\"P\",\"J\",\"10\"
\"\",\"\",\"approach-retreat\",\"14\",\"219871\",\"0.0-14.0\",\"\",\"\",\"3-2\",\"5971\",\"40\",\"0\",\"Training\",\"Stims/Figures/74-J-10-4.bmp\",\"ta:kaka\",\"Down\",\"38\",\"1\",\"11\",\"1\",\"P\",\"J\",\"11\"
\"\",\"\",\"approach-retreat\",\"15\",\"226179\",\"0.0-15.0\",\"\",\"\",\"3-2\",\"4796\",\"40\",\"1\",\"Training\",\"Stims/Figures/87-C-20-4.bmp\",\"ma:la:la\",\"Down\",\"40\",\"1\",\"12\",\"1\",\"S\",\"J\",\"12\"
\"\",\"\",\"approach-retreat\",\"16\",\"232638\",\"0.0-16.0\",\"\",\"\",\"3-2\",\"4948\",\"37\",\"1\",\"Training\",\"Stims/Figures/100-J-10-3.bmp\",\"ta:kaka\",\"Right\",\"37\",\"1\",\"13\",\"1\",\"P\",\"J\",\"13\"
\"\",\"\",\"approach-retreat\",\"17\",\"239755\",\"0.0-17.0\",\"\",\"\",\"3-2\",\"5603\",\"39\",\"0\",\"Training\",\"Stims/Figures/71-J-0-1.bmp\",\"ta:kaka\",\"Right\",\"37\",\"1\",\"14\",\"1\",\"P\",\"J\",\"14\"
\"\",\"\",\"approach-retreat\",\"18\",\"247809\",\"0.0-18.0\",\"\",\"\",\"3-2\",\"6543\",\"40\",\"1\",\"Training\",\"Stims/Figures/94-C-20-2.bmp\",\"ma:la:la\",\"Down\",\"40\",\"1\",\"15\",\"1\",\"S\",\"J\",\"15\"
\"\",\"\",\"approach-retreat\",\"19\",\"256652\",\"0.0-19.0\",\"\",\"\",\"3-2\",\"7329\",\"38\",\"1\",\"Training\",\"Stims/Figures/74-C-20-4.bmp\",\"ma:la:la\",\"Up\",\"38\",\"1\",\"16\",\"1\",\"S\",\"J\",\"16\"
\"\",\"\",\"approach-retreat\",\"20\",\"262497\",\"0.0-20.0\",\"\",\"\",\"3-2\",\"4333\",\"38\",\"1\",\"Training\",\"Stims/Figures/57-J-0-1.bmp\",\"ta:kaka\",\"Down\",\"38\",\"2\",\"1\",\"1\",\"P\",\"J\",\"17\"
\"\",\"\",\"approach-retreat\",\"21\",\"269399\",\"0.0-21.0\",\"\",\"\",\"3-2\",\"5390\",\"40\",\"1\",\"Training\",\"Stims/Figures/144-J-10-3.bmp\",\"ta:kaka\",\"Up\",\"40\",\"2\",\"2\",\"1\",\"P\",\"J\",\"18\"
\"\",\"\",\"approach-retreat\",\"22\",\"275638\",\"0.0-22.0\",\"\",\"\",\"3-2\",\"4726\",\"39\",\"1\",\"Training\",\"Stims/Figures/100-J-10-3.bmp\",\"ta:kaka\",\"Left\",\"39\",\"2\",\"3\",\"1\",\"P\",\"J\",\"19\"
\"\",\"\",\"approach-retreat\",\"23\",\"281544\",\"0.0-23.0\",\"\",\"\",\"3-2\",\"4394\",\"38\",\"1\",\"Training\",\"Stims/Figures/139-C-20-2.bmp\",\"ma:la:la\",\"Up\",\"38\",\"2\",\"4\",\"1\",\"S\",\"J\",\"20\"
\"\",\"\",\"approach-retreat\",\"24\",\"290433\",\"0.0-24.0\",\"\",\"\",\"3-2\",\"7379\",\"39\",\"1\",\"Training\",\"Stims/Figures/74-C-20-4.bmp\",\"ma:la:la\",\"Right\",\"39\",\"2\",\"5\",\"1\",\"S\",\"J\",\"21\"
\"\",\"\",\"approach-retreat\",\"25\",\"296281\",\"0.0-25.0\",\"\",\"\",\"3-2\",\"4337\",\"38\",\"1\",\"Training\",\"Stims/Figures/87-C-20-4.bmp\",\"ma:la:la\",\"Up\",\"38\",\"2\",\"6\",\"1\",\"S\",\"J\",\"22\"
\"\",\"\",\"approach-retreat\",\"26\",\"302690\",\"0.0-26.0\",\"\",\"\",\"3-2\",\"4897\",\"37\",\"1\",\"Training\",\"Stims/Figures/87-J-10-4.bmp\",\"ta:kaka\",\"Right\",\"37\",\"2\",\"7\",\"1\",\"P\",\"J\",\"23\"
\"\",\"\",\"approach-retreat\",\"27\",\"309261\",\"0.0-27.0\",\"\",\"\",\"3-2\",\"5057\",\"38\",\"0\",\"Training\",\"Stims/Figures/71-C-30-1.bmp\",\"ma:la:la\",\"Down\",\"40\",\"2\",\"8\",\"1\",\"S\",\"J\",\"24\"
\"\",\"\",\"approach-retreat\",\"28\",\"315191\",\"0.0-28.0\",\"\",\"\",\"3-2\",\"4420\",\"40\",\"1\",\"Training\",\"Stims/Figures/139-J-0-2.bmp\",\"ta:kaka\",\"Up\",\"40\",\"2\",\"9\",\"1\",\"P\",\"J\",\"25\"
\"\",\"\",\"approach-retreat\",\"29\",\"321975\",\"0.0-29.0\",\"\",\"\",\"3-2\",\"5271\",\"37\",\"1\",\"Training\",\"Stims/Figures/100-C-30-3.bmp\",\"ma:la:la\",\"Left\",\"37\",\"2\",\"10\",\"1\",\"S\",\"J\",\"26\"
\"\",\"\",\"approach-retreat\",\"30\",\"328798\",\"0.0-30.0\",\"\",\"\",\"3-2\",\"5311\",\"40\",\"1\",\"Training\",\"Stims/Figures/94-C-20-2.bmp\",\"ma:la:la\",\"Down\",\"40\",\"2\",\"11\",\"1\",\"S\",\"J\",\"27\"
\"\",\"\",\"approach-retreat\",\"31\",\"335473\",\"0.0-31.0\",\"\",\"\",\"3-2\",\"5160\",\"40\",\"0\",\"Training\",\"Stims/Figures/74-J-10-4.bmp\",\"ta:kaka\",\"Down\",\"38\",\"2\",\"12\",\"1\",\"P\",\"J\",\"28\"
\"\",\"\",\"approach-retreat\",\"32\",\"342851\",\"0.0-32.0\",\"\",\"\",\"3-2\",\"5866\",\"37\",\"0\",\"Training\",\"Stims/Figures/57-C-30-1.bmp\",\"ma:la:la\",\"Right\",\"39\",\"2\",\"13\",\"1\",\"S\",\"J\",\"29\"
\"\",\"\",\"approach-retreat\",\"33\",\"349860\",\"0.0-33.0\",\"\",\"\",\"3-2\",\"5496\",\"39\",\"1\",\"Training\",\"Stims/Figures/144-C-30-3.bmp\",\"ma:la:la\",\"Right\",\"39\",\"2\",\"14\",\"1\",\"S\",\"J\",\"30\"
\"\",\"\",\"approach-retreat\",\"34\",\"355830\",\"0.0-34.0\",\"\",\"\",\"3-2\",\"4457\",\"39\",\"1\",\"Training\",\"Stims/Figures/71-J-0-1.bmp\",\"ta:kaka\",\"Left\",\"39\",\"2\",\"15\",\"1\",\"P\",\"J\",\"31\"
\"\",\"\",\"approach-retreat\",\"35\",\"361636\",\"0.0-35.0\",\"\",\"\",\"3-2\",\"4293\",\"39\",\"1\",\"Training\",\"Stims/Figures/94-J-0-2.bmp\",\"ta:kaka\",\"Left\",\"39\",\"2\",\"16\",\"1\",\"P\",\"J\",\"32\"
\"\",\"\",\"approach-retreat\",\"36\",\"367453\",\"0.0-36.0\",\"\",\"\",\"3-2\",\"4304\",\"38\",\"1\",\"Training\",\"Stims/Figures/57-J-0-1.bmp\",\"ta:kaka\",\"Down\",\"38\",\"3\",\"1\",\"1\",\"P\",\"J\",\"33\"
\"\",\"\",\"approach-retreat\",\"37\",\"373477\",\"0.0-37.0\",\"\",\"\",\"3-2\",\"4512\",\"37\",\"1\",\"Training\",\"Stims/Figures/74-C-20-4.bmp\",\"ma:la:la\",\"Left\",\"37\",\"3\",\"2\",\"1\",\"S\",\"J\",\"34\"
\"\",\"\",\"approach-retreat\",\"38\",\"380276\",\"0.0-38.0\",\"\",\"\",\"3-2\",\"5285\",\"38\",\"1\",\"Training\",\"Stims/Figures/74-J-10-4.bmp\",\"ta:kaka\",\"Down\",\"38\",\"3\",\"3\",\"1\",\"P\",\"J\",\"35\"
\"\",\"\",\"approach-retreat\",\"39\",\"388543\",\"0.0-39.0\",\"\",\"\",\"3-2\",\"6751\",\"38\",\"1\",\"Training\",\"Stims/Figures/94-C-20-2.bmp\",\"ma:la:la\",\"Up\",\"38\",\"3\",\"4\",\"1\",\"S\",\"J\",\"36\"
\"\",\"\",\"approach-retreat\",\"40\",\"394417\",\"0.0-40.0\",\"\",\"\",\"3-2\",\"4360\",\"37\",\"1\",\"Training\",\"Stims/Figures/139-J-0-2.bmp\",\"ta:kaka\",\"Right\",\"37\",\"3\",\"5\",\"1\",\"P\",\"J\",\"37\"
\"\",\"\",\"approach-retreat\",\"41\",\"400894\",\"0.0-41.0\",\"\",\"\",\"3-2\",\"4965\",\"40\",\"1\",\"Training\",\"Stims/Figures/100-C-30-3.bmp\",\"ma:la:la\",\"Down\",\"40\",\"3\",\"6\",\"1\",\"S\",\"J\",\"38\"
\"\",\"\",\"approach-retreat\",\"42\",\"408677\",\"0.0-42.0\",\"\",\"\",\"3-2\",\"6270\",\"40\",\"1\",\"Training\",\"Stims/Figures/71-J-0-1.bmp\",\"ta:kaka\",\"Up\",\"40\",\"3\",\"7\",\"1\",\"P\",\"J\",\"39\"
\"\",\"\",\"approach-retreat\",\"43\",\"414767\",\"0.0-43.0\",\"\",\"\",\"3-2\",\"4578\",\"37\",\"1\",\"Training\",\"Stims/Figures/94-J-0-2.bmp\",\"ta:kaka\",\"Right\",\"37\",\"3\",\"8\",\"1\",\"P\",\"J\",\"40\"
\"\",\"\",\"approach-retreat\",\"44\",\"420914\",\"0.0-44.0\",\"\",\"\",\"3-2\",\"4633\",\"40\",\"1\",\"Training\",\"Stims/Figures/57-C-30-1.bmp\",\"ma:la:la\",\"Down\",\"40\",\"3\",\"9\",\"1\",\"S\",\"J\",\"41\"
\"\",\"\",\"approach-retreat\",\"45\",\"427368\",\"0.0-45.0\",\"\",\"\",\"3-2\",\"4942\",\"39\",\"1\",\"Training\",\"Stims/Figures/87-C-20-4.bmp\",\"ma:la:la\",\"Right\",\"39\",\"3\",\"10\",\"1\",\"S\",\"J\",\"42\"
\"\",\"\",\"approach-retreat\",\"46\",\"434246\",\"0.0-46.0\",\"\",\"\",\"3-2\",\"5366\",\"39\",\"1\",\"Training\",\"Stims/Figures/100-J-10-3.bmp\",\"ta:kaka\",\"Left\",\"39\",\"3\",\"11\",\"1\",\"P\",\"J\",\"43\"
\"\",\"\",\"approach-retreat\",\"47\",\"440599\",\"0.0-47.0\",\"\",\"\",\"3-2\",\"4838\",\"39\",\"1\",\"Training\",\"Stims/Figures/144-C-30-3.bmp\",\"ma:la:la\",\"Right\",\"39\",\"3\",\"12\",\"1\",\"S\",\"J\",\"44\"
\"\",\"\",\"approach-retreat\",\"48\",\"446356\",\"0.0-48.0\",\"\",\"\",\"3-2\",\"4244\",\"37\",\"1\",\"Training\",\"Stims/Figures/71-C-30-1.bmp\",\"ma:la:la\",\"Left\",\"37\",\"3\",\"13\",\"1\",\"S\",\"J\",\"45\"
\"\",\"\",\"approach-retreat\",\"49\",\"452208\",\"0.0-49.0\",\"\",\"\",\"3-2\",\"4338\",\"40\",\"1\",\"Training\",\"Stims/Figures/87-J-10-4.bmp\",\"ta:kaka\",\"Up\",\"40\",\"3\",\"14\",\"1\",\"P\",\"J\",\"46\"
\"\",\"\",\"approach-retreat\",\"50\",\"458180\",\"0.0-50.0\",\"\",\"\",\"3-2\",\"4461\",\"39\",\"1\",\"Training\",\"Stims/Figures/144-J-10-3.bmp\",\"ta:kaka\",\"Left\",\"39\",\"3\",\"15\",\"1\",\"P\",\"J\",\"47\"
\"\",\"\",\"approach-retreat\",\"51\",\"464361\",\"0.0-51.0\",\"\",\"\",\"3-2\",\"4667\",\"38\",\"1\",\"Training\",\"Stims/Figures/139-C-20-2.bmp\",\"ma:la:la\",\"Up\",\"38\",\"3\",\"16\",\"1\",\"S\",\"J\",\"48\"
\"\",\"\",\"approach-retreat\",\"52\",\"470425\",\"0.0-52.0\",\"\",\"\",\"3-2\",\"4550\",\"38\",\"1\",\"Training\",\"Stims/Figures/139-J-0-2.bmp\",\"ta:kaka\",\"Down\",\"38\",\"4\",\"1\",\"1\",\"P\",\"J\",\"49\"
\"\",\"\",\"approach-retreat\",\"53\",\"476377\",\"0.0-53.0\",\"\",\"\",\"3-2\",\"4439\",\"39\",\"1\",\"Training\",\"Stims/Figures/74-J-10-4.bmp\",\"ta:kaka\",\"Left\",\"39\",\"4\",\"2\",\"1\",\"P\",\"J\",\"50\"
\"\",\"\",\"approach-retreat\",\"54\",\"482841\",\"0.0-54.0\",\"\",\"\",\"3-2\",\"4952\",\"38\",\"1\",\"Training\",\"Stims/Figures/94-C-20-2.bmp\",\"ma:la:la\",\"Up\",\"38\",\"4\",\"3\",\"1\",\"S\",\"J\",\"51\"
\"\",\"\",\"approach-retreat\",\"55\",\"490057\",\"0.0-55.0\",\"\",\"\",\"3-2\",\"5702\",\"37\",\"1\",\"Training\",\"Stims/Figures/139-C-20-2.bmp\",\"ma:la:la\",\"Left\",\"37\",\"4\",\"4\",\"1\",\"S\",\"J\",\"52\"
\"\",\"\",\"approach-retreat\",\"56\",\"497432\",\"0.0-56.0\",\"\",\"\",\"3-2\",\"5864\",\"38\",\"1\",\"Training\",\"Stims/Figures/144-C-30-3.bmp\",\"ma:la:la\",\"Up\",\"38\",\"4\",\"5\",\"1\",\"S\",\"J\",\"53\"
\"\",\"\",\"approach-retreat\",\"57\",\"503440\",\"0.0-57.0\",\"\",\"\",\"3-2\",\"4496\",\"40\",\"1\",\"Training\",\"Stims/Figures/144-J-10-3.bmp\",\"ta:kaka\",\"Up\",\"40\",\"4\",\"6\",\"1\",\"P\",\"J\",\"54\"
\"\",\"\",\"approach-retreat\",\"58\",\"509651\",\"0.0-58.0\",\"\",\"\",\"3-2\",\"4698\",\"39\",\"1\",\"Training\",\"Stims/Figures/87-C-20-4.bmp\",\"ma:la:la\",\"Right\",\"39\",\"4\",\"7\",\"1\",\"S\",\"J\",\"55\"
\"\",\"\",\"approach-retreat\",\"59\",\"516002\",\"0.0-59.0\",\"\",\"\",\"3-2\",\"4837\",\"39\",\"1\",\"Training\",\"Stims/Figures/57-C-30-1.bmp\",\"ma:la:la\",\"Right\",\"39\",\"4\",\"8\",\"1\",\"S\",\"J\",\"56\"
\"\",\"\",\"approach-retreat\",\"60\",\"522543\",\"0.0-60.0\",\"\",\"\",\"3-2\",\"5029\",\"37\",\"1\",\"Training\",\"Stims/Figures/74-C-20-4.bmp\",\"ma:la:la\",\"Left\",\"37\",\"4\",\"9\",\"1\",\"S\",\"J\",\"57\"
\"\",\"\",\"approach-retreat\",\"61\",\"528772\",\"0.0-61.0\",\"\",\"\",\"3-2\",\"4717\",\"40\",\"1\",\"Training\",\"Stims/Figures/71-C-30-1.bmp\",\"ma:la:la\",\"Down\",\"40\",\"4\",\"10\",\"1\",\"S\",\"J\",\"58\"
\"\",\"\",\"approach-retreat\",\"62\",\"534521\",\"0.0-62.0\",\"\",\"\",\"3-2\",\"4236\",\"40\",\"1\",\"Training\",\"Stims/Figures/94-J-0-2.bmp\",\"ta:kaka\",\"Up\",\"40\",\"4\",\"11\",\"1\",\"P\",\"J\",\"59\"
\"\",\"\",\"approach-retreat\",\"63\",\"540298\",\"0.0-63.0\",\"\",\"\",\"3-2\",\"4265\",\"38\",\"1\",\"Training\",\"Stims/Figures/71-J-0-1.bmp\",\"ta:kaka\",\"Down\",\"38\",\"4\",\"12\",\"1\",\"P\",\"J\",\"60\"
\"\",\"\",\"approach-retreat\",\"64\",\"546314\",\"0.0-64.0\",\"\",\"\",\"3-2\",\"4504\",\"38\",\"1\",\"Training\",\"Stims/Figures/57-J-0-1.bmp\",\"ta:kaka\",\"Down\",\"38\",\"4\",\"13\",\"1\",\"P\",\"J\",\"61\"
\"\",\"\",\"approach-retreat\",\"65\",\"552106\",\"0.0-65.0\",\"\",\"\",\"3-2\",\"4280\",\"37\",\"1\",\"Training\",\"Stims/Figures/87-J-10-4.bmp\",\"ta:kaka\",\"Right\",\"37\",\"4\",\"14\",\"1\",\"P\",\"J\",\"62\"
\"\",\"\",\"approach-retreat\",\"66\",\"557794\",\"0.0-66.0\",\"\",\"\",\"3-2\",\"4174\",\"39\",\"1\",\"Training\",\"Stims/Figures/100-J-10-3.bmp\",\"ta:kaka\",\"Left\",\"39\",\"4\",\"15\",\"1\",\"P\",\"J\",\"63\"
\"\",\"\",\"approach-retreat\",\"67\",\"564003\",\"0.0-67.0\",\"\",\"\",\"3-2\",\"4694\",\"39\",\"1\",\"Training\",\"Stims/Figures/100-C-30-3.bmp\",\"ma:la:la\",\"Right\",\"39\",\"4\",\"16\",\"1\",\"S\",\"J\",\"64\"
\"\",\"\",\"approach-retreat\",\"68\",\"571794\",\"0.0-68.0\",\"\",\"\",\"3-2\",\"6279\",\"38\",\"1\",\"Training\",\"Stims/Figures/94-J-0-2.bmp\",\"ta:kaka\",\"Down\",\"38\",\"5\",\"1\",\"1\",\"P\",\"J\",\"65\"
\"\",\"\",\"approach-retreat\",\"69\",\"578989\",\"0.0-69.0\",\"\",\"\",\"3-2\",\"5684\",\"39\",\"1\",\"Training\",\"Stims/Figures/57-J-0-1.bmp\",\"ta:kaka\",\"Left\",\"39\",\"5\",\"2\",\"1\",\"P\",\"J\",\"66\"
\"\",\"\",\"approach-retreat\",\"70\",\"585849\",\"0.0-70.0\",\"\",\"\",\"3-2\",\"5348\",\"37\",\"1\",\"Training\",\"Stims/Figures/139-C-20-2.bmp\",\"ma:la:la\",\"Left\",\"37\",\"5\",\"3\",\"1\",\"S\",\"J\",\"67\"
\"\",\"\",\"approach-retreat\",\"71\",\"591574\",\"0.0-71.0\",\"\",\"\",\"3-2\",\"4212\",\"40\",\"1\",\"Training\",\"Stims/Figures/144-J-10-3.bmp\",\"ta:kaka\",\"Up\",\"40\",\"5\",\"4\",\"1\",\"P\",\"J\",\"68\"
\"\",\"\",\"approach-retreat\",\"72\",\"597293\",\"0.0-72.0\",\"\",\"\",\"3-2\",\"4207\",\"39\",\"1\",\"Training\",\"Stims/Figures/74-J-10-4.bmp\",\"ta:kaka\",\"Left\",\"39\",\"5\",\"5\",\"1\",\"P\",\"J\",\"69\"
\"\",\"\",\"approach-retreat\",\"73\",\"603522\",\"0.0-73.0\",\"\",\"\",\"3-2\",\"4716\",\"40\",\"1\",\"Training\",\"Stims/Figures/74-C-20-4.bmp\",\"ma:la:la\",\"Down\",\"40\",\"5\",\"6\",\"1\",\"S\",\"J\",\"70\"
\"\",\"\",\"approach-retreat\",\"74\",\"609284\",\"0.0-74.0\",\"\",\"\",\"3-2\",\"4250\",\"37\",\"1\",\"Training\",\"Stims/Figures/139-J-0-2.bmp\",\"ta:kaka\",\"Right\",\"37\",\"5\",\"7\",\"1\",\"P\",\"J\",\"71\"
\"\",\"\",\"approach-retreat\",\"75\",\"615067\",\"0.0-75.0\",\"\",\"\",\"3-2\",\"4272\",\"39\",\"1\",\"Training\",\"Stims/Figures/57-C-30-1.bmp\",\"ma:la:la\",\"Right\",\"39\",\"5\",\"8\",\"1\",\"S\",\"J\",\"72\"
\"\",\"\",\"approach-retreat\",\"76\",\"621192\",\"0.0-76.0\",\"\",\"\",\"3-2\",\"4613\",\"39\",\"1\",\"Training\",\"Stims/Figures/100-J-10-3.bmp\",\"ta:kaka\",\"Left\",\"39\",\"5\",\"9\",\"1\",\"P\",\"J\",\"73\"
\"\",\"\",\"approach-retreat\",\"77\",\"626909\",\"0.0-77.0\",\"\",\"\",\"3-2\",\"4204\",\"38\",\"1\",\"Training\",\"Stims/Figures/87-C-20-4.bmp\",\"ma:la:la\",\"Up\",\"38\",\"5\",\"10\",\"1\",\"S\",\"J\",\"74\"
\"\",\"\",\"approach-retreat\",\"78\",\"632755\",\"0.0-78.0\",\"\",\"\",\"3-2\",\"4334\",\"39\",\"1\",\"Training\",\"Stims/Figures/71-C-30-1.bmp\",\"ma:la:la\",\"Right\",\"39\",\"5\",\"11\",\"1\",\"S\",\"J\",\"75\"
\"\",\"\",\"approach-retreat\",\"79\",\"638549\",\"0.0-79.0\",\"\",\"\",\"3-2\",\"4281\",\"40\",\"1\",\"Training\",\"Stims/Figures/100-C-30-3.bmp\",\"ma:la:la\",\"Down\",\"40\",\"5\",\"12\",\"1\",\"S\",\"J\",\"76\"
\"\",\"\",\"approach-retreat\",\"80\",\"644305\",\"0.0-80.0\",\"\",\"\",\"3-2\",\"4240\",\"40\",\"1\",\"Training\",\"Stims/Figures/87-J-10-4.bmp\",\"ta:kaka\",\"Up\",\"40\",\"5\",\"13\",\"1\",\"P\",\"J\",\"77\"
\"\",\"\",\"approach-retreat\",\"81\",\"650113\",\"0.0-81.0\",\"\",\"\",\"3-2\",\"4294\",\"39\",\"1\",\"Training\",\"Stims/Figures/144-C-30-3.bmp\",\"ma:la:la\",\"Right\",\"39\",\"5\",\"14\",\"1\",\"S\",\"J\",\"78\"
\"\",\"\",\"approach-retreat\",\"82\",\"655830\",\"0.0-82.0\",\"\",\"\",\"3-2\",\"4204\",\"38\",\"1\",\"Training\",\"Stims/Figures/71-J-0-1.bmp\",\"ta:kaka\",\"Down\",\"38\",\"5\",\"15\",\"1\",\"P\",\"J\",\"79\"
\"\",\"\",\"approach-retreat\",\"83\",\"662287\",\"0.0-83.0\",\"\",\"\",\"3-2\",\"4944\",\"38\",\"1\",\"Training\",\"Stims/Figures/94-C-20-2.bmp\",\"ma:la:la\",\"Up\",\"38\",\"5\",\"16\",\"1\",\"S\",\"J\",\"80\"
\"\",\"\",\"approach-retreat\",\"84\",\"668064\",\"0.0-84.0\",\"\",\"\",\"3-2\",\"4267\",\"40\",\"1\",\"Training\",\"Stims/Figures/139-C-20-2.bmp\",\"ma:la:la\",\"Down\",\"40\",\"6\",\"1\",\"1\",\"S\",\"J\",\"81\"
\"\",\"\",\"approach-retreat\",\"85\",\"674537\",\"0.0-85.0\",\"\",\"\",\"3-2\",\"4960\",\"38\",\"1\",\"Training\",\"Stims/Figures/87-C-20-4.bmp\",\"ma:la:la\",\"Up\",\"38\",\"6\",\"2\",\"1\",\"S\",\"J\",\"82\"
\"\",\"\",\"approach-retreat\",\"86\",\"681478\",\"0.0-86.0\",\"\",\"\",\"3-2\",\"5428\",\"39\",\"1\",\"Training\",\"Stims/Figures/87-J-10-4.bmp\",\"ta:kaka\",\"Left\",\"39\",\"6\",\"3\",\"1\",\"P\",\"J\",\"83\"
\"\",\"\",\"approach-retreat\",\"87\",\"688302\",\"0.0-87.0\",\"\",\"\",\"3-2\",\"5313\",\"40\",\"1\",\"Training\",\"Stims/Figures/74-J-10-4.bmp\",\"ta:kaka\",\"Up\",\"40\",\"6\",\"4\",\"1\",\"P\",\"J\",\"84\"
\"\",\"\",\"approach-retreat\",\"88\",\"693925\",\"0.0-88.0\",\"\",\"\",\"3-2\",\"4110\",\"39\",\"1\",\"Training\",\"Stims/Figures/57-J-0-1.bmp\",\"ta:kaka\",\"Left\",\"39\",\"6\",\"5\",\"1\",\"P\",\"J\",\"85\"
\"\",\"\",\"approach-retreat\",\"89\",\"699808\",\"0.0-89.0\",\"\",\"\",\"3-2\",\"4371\",\"39\",\"1\",\"Training\",\"Stims/Figures/71-J-0-1.bmp\",\"ta:kaka\",\"Left\",\"39\",\"6\",\"6\",\"1\",\"P\",\"J\",\"86\"
\"\",\"\",\"approach-retreat\",\"90\",\"705750\",\"0.0-90.0\",\"\",\"\",\"3-2\",\"4430\",\"40\",\"1\",\"Training\",\"Stims/Figures/94-C-20-2.bmp\",\"ma:la:la\",\"Down\",\"40\",\"6\",\"7\",\"1\",\"S\",\"J\",\"87\"
\"\",\"\",\"approach-retreat\",\"91\",\"711491\",\"0.0-91.0\",\"\",\"\",\"3-2\",\"4228\",\"37\",\"1\",\"Training\",\"Stims/Figures/94-J-0-2.bmp\",\"ta:kaka\",\"Right\",\"37\",\"6\",\"8\",\"1\",\"P\",\"J\",\"88\"
\"\",\"\",\"approach-retreat\",\"92\",\"717426\",\"0.0-92.0\",\"\",\"\",\"3-2\",\"4425\",\"40\",\"1\",\"Training\",\"Stims/Figures/57-C-30-1.bmp\",\"ma:la:la\",\"Down\",\"40\",\"6\",\"9\",\"1\",\"S\",\"J\",\"89\"
\"\",\"\",\"approach-retreat\",\"93\",\"723328\",\"0.0-93.0\",\"\",\"\",\"3-2\",\"4390\",\"37\",\"1\",\"Training\",\"Stims/Figures/139-J-0-2.bmp\",\"ta:kaka\",\"Right\",\"37\",\"6\",\"10\",\"1\",\"P\",\"J\",\"90\"
\"\",\"\",\"approach-retreat\",\"94\",\"729446\",\"0.0-94.0\",\"\",\"\",\"3-2\",\"4605\",\"39\",\"1\",\"Training\",\"Stims/Figures/74-C-20-4.bmp\",\"ma:la:la\",\"Right\",\"39\",\"6\",\"11\",\"1\",\"S\",\"J\",\"91\"
\"\",\"\",\"approach-retreat\",\"95\",\"735212\",\"0.0-95.0\",\"\",\"\",\"3-2\",\"4252\",\"40\",\"0\",\"Training\",\"Stims/Figures/71-C-30-1.bmp\",\"ma:la:la\",\"Up\",\"38\",\"6\",\"12\",\"1\",\"S\",\"J\",\"92\"
\"\",\"\",\"approach-retreat\",\"96\",\"740922\",\"0.0-96.0\",\"\",\"\",\"3-2\",\"4196\",\"38\",\"1\",\"Training\",\"Stims/Figures/144-C-30-3.bmp\",\"ma:la:la\",\"Up\",\"38\",\"6\",\"13\",\"1\",\"S\",\"J\",\"93\"
\"\",\"\",\"approach-retreat\",\"97\",\"746654\",\"0.0-97.0\",\"\",\"\",\"3-2\",\"4221\",\"37\",\"1\",\"Training\",\"Stims/Figures/100-C-30-3.bmp\",\"ma:la:la\",\"Left\",\"37\",\"6\",\"14\",\"1\",\"S\",\"J\",\"94\"
\"\",\"\",\"approach-retreat\",\"98\",\"753131\",\"0.0-98.0\",\"\",\"\",\"3-2\",\"4965\",\"37\",\"1\",\"Training\",\"Stims/Figures/100-J-10-3.bmp\",\"ta:kaka\",\"Right\",\"37\",\"6\",\"15\",\"1\",\"P\",\"J\",\"95\"
\"\",\"\",\"approach-retreat\",\"99\",\"759335\",\"0.0-99.0\",\"\",\"\",\"3-2\",\"4691\",\"38\",\"1\",\"Training\",\"Stims/Figures/144-J-10-3.bmp\",\"ta:kaka\",\"Down\",\"38\",\"6\",\"16\",\"1\",\"P\",\"J\",\"96\"
\"\",\"\",\"approach-retreat\",\"100\",\"765955\",\"0.0-100.0\",\"\",\"\",\"3-2\",\"5109\",\"39\",\"1\",\"Training\",\"Stims/Figures/71-C-30-1.bmp\",\"ma:la:la\",\"Right\",\"39\",\"7\",\"1\",\"1\",\"S\",\"J\",\"97\"
\"\",\"\",\"approach-retreat\",\"101\",\"772191\",\"0.0-101.0\",\"\",\"\",\"3-2\",\"4723\",\"38\",\"1\",\"Training\",\"Stims/Figures/144-J-10-3.bmp\",\"ta:kaka\",\"Down\",\"38\",\"7\",\"2\",\"1\",\"P\",\"J\",\"98\"
\"\",\"\",\"approach-retreat\",\"102\",\"777849\",\"0.0-102.0\",\"\",\"\",\"3-2\",\"4147\",\"39\",\"1\",\"Training\",\"Stims/Figures/139-J-0-2.bmp\",\"ta:kaka\",\"Left\",\"39\",\"7\",\"3\",\"1\",\"P\",\"J\",\"99\"
\"\",\"\",\"approach-retreat\",\"103\",\"783505\",\"0.0-103.0\",\"\",\"\",\"3-2\",\"4143\",\"40\",\"1\",\"Training\",\"Stims/Figures/87-J-10-4.bmp\",\"ta:kaka\",\"Up\",\"40\",\"7\",\"4\",\"1\",\"P\",\"J\",\"100\"
\"\",\"\",\"approach-retreat\",\"104\",\"790552\",\"0.0-104.0\",\"\",\"\",\"3-2\",\"5536\",\"38\",\"1\",\"Training\",\"Stims/Figures/57-C-30-1.bmp\",\"ma:la:la\",\"Up\",\"38\",\"7\",\"5\",\"1\",\"S\",\"J\",\"101\"
\"\",\"\",\"approach-retreat\",\"105\",\"797124\",\"0.0-105.0\",\"\",\"\",\"3-2\",\"5060\",\"39\",\"1\",\"Training\",\"Stims/Figures/87-C-20-4.bmp\",\"ma:la:la\",\"Right\",\"39\",\"7\",\"6\",\"1\",\"S\",\"J\",\"102\"
\"\",\"\",\"approach-retreat\",\"106\",\"804398\",\"0.0-106.0\",\"\",\"\",\"3-2\",\"5762\",\"40\",\"1\",\"Training\",\"Stims/Figures/94-C-20-2.bmp\",\"ma:la:la\",\"Down\",\"40\",\"7\",\"7\",\"1\",\"S\",\"J\",\"103\"
\"\",\"\",\"approach-retreat\",\"107\",\"810444\",\"0.0-107.0\",\"\",\"\",\"3-2\",\"4528\",\"39\",\"1\",\"Training\",\"Stims/Figures/144-C-30-3.bmp\",\"ma:la:la\",\"Right\",\"39\",\"7\",\"8\",\"1\",\"S\",\"J\",\"104\"
\"\",\"\",\"approach-retreat\",\"108\",\"816249\",\"0.0-108.0\",\"\",\"\",\"3-2\",\"4292\",\"39\",\"1\",\"Training\",\"Stims/Figures/71-J-0-1.bmp\",\"ta:kaka\",\"Left\",\"39\",\"7\",\"9\",\"1\",\"P\",\"J\",\"105\"
\"\",\"\",\"approach-retreat\",\"109\",\"823177\",\"0.0-109.0\",\"\",\"\",\"3-2\",\"5416\",\"39\",\"1\",\"Training\",\"Stims/Figures/74-J-10-4.bmp\",\"ta:kaka\",\"Left\",\"39\",\"7\",\"10\",\"1\",\"P\",\"J\",\"106\"
\"\",\"\",\"approach-retreat\",\"110\",\"828902\",\"0.0-110.0\",\"\",\"\",\"3-2\",\"4213\",\"40\",\"1\",\"Training\",\"Stims/Figures/57-J-0-1.bmp\",\"ta:kaka\",\"Up\",\"40\",\"7\",\"11\",\"1\",\"P\",\"J\",\"107\"
\"\",\"\",\"approach-retreat\",\"111\",\"834677\",\"0.0-111.0\",\"\",\"\",\"3-2\",\"4262\",\"40\",\"1\",\"Training\",\"Stims/Figures/100-J-10-3.bmp\",\"ta:kaka\",\"Up\",\"40\",\"7\",\"12\",\"1\",\"P\",\"J\",\"108\"
\"\",\"\",\"approach-retreat\",\"112\",\"840501\",\"0.0-112.0\",\"\",\"\",\"3-2\",\"4312\",\"37\",\"1\",\"Training\",\"Stims/Figures/74-C-20-4.bmp\",\"ma:la:la\",\"Left\",\"37\",\"7\",\"13\",\"1\",\"S\",\"J\",\"109\"
\"\",\"\",\"approach-retreat\",\"113\",\"846457\",\"0.0-113.0\",\"\",\"\",\"3-2\",\"4444\",\"38\",\"1\",\"Training\",\"Stims/Figures/94-J-0-2.bmp\",\"ta:kaka\",\"Down\",\"38\",\"7\",\"14\",\"1\",\"P\",\"J\",\"110\"
\"\",\"\",\"approach-retreat\",\"114\",\"852613\",\"0.0-114.0\",\"\",\"\",\"3-2\",\"4643\",\"39\",\"1\",\"Training\",\"Stims/Figures/100-C-30-3.bmp\",\"ma:la:la\",\"Right\",\"39\",\"7\",\"15\",\"1\",\"S\",\"J\",\"111\"
\"\",\"\",\"approach-retreat\",\"115\",\"858335\",\"0.0-115.0\",\"\",\"\",\"3-2\",\"4209\",\"40\",\"1\",\"Training\",\"Stims/Figures/139-C-20-2.bmp\",\"ma:la:la\",\"Down\",\"40\",\"7\",\"16\",\"1\",\"S\",\"J\",\"112\"
\"\",\"\",\"approach-retreat\",\"116\",\"864614\",\"0.0-116.0\",\"\",\"\",\"3-2\",\"4766\",\"40\",\"1\",\"Training\",\"Stims/Figures/74-J-10-4.bmp\",\"ta:kaka\",\"Up\",\"40\",\"8\",\"1\",\"1\",\"P\",\"J\",\"113\"
\"\",\"\",\"approach-retreat\",\"117\",\"870262\",\"0.0-117.0\",\"\",\"\",\"3-2\",\"4136\",\"40\",\"1\",\"Training\",\"Stims/Figures/71-J-0-1.bmp\",\"ta:kaka\",\"Up\",\"40\",\"8\",\"2\",\"1\",\"P\",\"J\",\"114\"
\"\",\"\",\"approach-retreat\",\"118\",\"876793\",\"0.0-118.0\",\"\",\"\",\"3-2\",\"5018\",\"39\",\"1\",\"Training\",\"Stims/Figures/94-J-0-2.bmp\",\"ta:kaka\",\"Left\",\"39\",\"8\",\"3\",\"1\",\"P\",\"J\",\"115\"
\"\",\"\",\"approach-retreat\",\"119\",\"882409\",\"0.0-119.0\",\"\",\"\",\"3-2\",\"4106\",\"37\",\"1\",\"Training\",\"Stims/Figures/87-C-20-4.bmp\",\"ma:la:la\",\"Left\",\"37\",\"8\",\"4\",\"1\",\"S\",\"J\",\"116\"
\"\",\"\",\"approach-retreat\",\"120\",\"889650\",\"0.0-120.0\",\"\",\"\",\"3-2\",\"5728\",\"40\",\"1\",\"Training\",\"Stims/Figures/100-C-30-3.bmp\",\"ma:la:la\",\"Down\",\"40\",\"8\",\"5\",\"1\",\"S\",\"J\",\"117\"
\"\",\"\",\"approach-retreat\",\"121\",\"895759\",\"0.0-121.0\",\"\",\"\",\"3-2\",\"4596\",\"39\",\"1\",\"Training\",\"Stims/Figures/74-C-20-4.bmp\",\"ma:la:la\",\"Right\",\"39\",\"8\",\"6\",\"1\",\"S\",\"J\",\"118\"
\"\",\"\",\"approach-retreat\",\"122\",\"901476\",\"0.0-122.0\",\"\",\"\",\"3-2\",\"4205\",\"38\",\"1\",\"Training\",\"Stims/Figures/87-J-10-4.bmp\",\"ta:kaka\",\"Down\",\"38\",\"8\",\"7\",\"1\",\"P\",\"J\",\"119\"
\"\",\"\",\"approach-retreat\",\"123\",\"909178\",\"0.0-123.0\",\"\",\"\",\"3-2\",\"6190\",\"37\",\"1\",\"Training\",\"Stims/Figures/100-J-10-3.bmp\",\"ta:kaka\",\"Right\",\"37\",\"8\",\"8\",\"1\",\"P\",\"J\",\"120\"
\"\",\"\",\"approach-retreat\",\"124\",\"915498\",\"0.0-124.0\",\"\",\"\",\"3-2\",\"4809\",\"38\",\"1\",\"Training\",\"Stims/Figures/139-C-20-2.bmp\",\"ma:la:la\",\"Up\",\"38\",\"8\",\"9\",\"1\",\"S\",\"J\",\"121\"
\"\",\"\",\"approach-retreat\",\"125\",\"922420\",\"0.0-125.0\",\"\",\"\",\"3-2\",\"5410\",\"39\",\"1\",\"Training\",\"Stims/Figures/144-J-10-3.bmp\",\"ta:kaka\",\"Left\",\"39\",\"8\",\"10\",\"1\",\"P\",\"J\",\"122\"
\"\",\"\",\"approach-retreat\",\"126\",\"928606\",\"0.0-126.0\",\"\",\"\",\"3-2\",\"4674\",\"39\",\"1\",\"Training\",\"Stims/Figures/144-C-30-3.bmp\",\"ma:la:la\",\"Right\",\"39\",\"8\",\"11\",\"1\",\"S\",\"J\",\"123\"
\"\",\"\",\"approach-retreat\",\"127\",\"934367\",\"0.0-127.0\",\"\",\"\",\"3-2\",\"4249\",\"40\",\"1\",\"Training\",\"Stims/Figures/57-C-30-1.bmp\",\"ma:la:la\",\"Down\",\"40\",\"8\",\"12\",\"1\",\"S\",\"J\",\"124\"
\"\",\"\",\"approach-retreat\",\"128\",\"940187\",\"0.0-128.0\",\"\",\"\",\"3-2\",\"4308\",\"38\",\"1\",\"Training\",\"Stims/Figures/139-J-0-2.bmp\",\"ta:kaka\",\"Down\",\"38\",\"8\",\"13\",\"1\",\"P\",\"J\",\"125\"
\"\",\"\",\"approach-retreat\",\"129\",\"945899\",\"0.0-129.0\",\"\",\"\",\"3-2\",\"4198\",\"38\",\"1\",\"Training\",\"Stims/Figures/71-C-30-1.bmp\",\"ma:la:la\",\"Up\",\"38\",\"8\",\"14\",\"1\",\"S\",\"J\",\"126\"
\"\",\"\",\"approach-retreat\",\"130\",\"952389\",\"0.0-130.0\",\"\",\"\",\"3-2\",\"4978\",\"37\",\"1\",\"Training\",\"Stims/Figures/94-C-20-2.bmp\",\"ma:la:la\",\"Left\",\"37\",\"8\",\"15\",\"1\",\"S\",\"J\",\"127\"
\"\",\"\",\"approach-retreat\",\"131\",\"958179\",\"0.0-131.0\",\"\",\"\",\"3-2\",\"4277\",\"37\",\"1\",\"Training\",\"Stims/Figures/57-J-0-1.bmp\",\"ta:kaka\",\"Right\",\"37\",\"8\",\"16\",\"1\",\"P\",\"J\",\"128\"
\"\",\"\",\"approach-retreat\",\"132\",\"964540\",\"0.0-132.0\",\"\",\"\",\"3-2\",\"4849\",\"37\",\"1\",\"Training\",\"Stims/Figures/87-J-10-4.bmp\",\"ta:kaka\",\"Right\",\"37\",\"9\",\"1\",\"1\",\"P\",\"J\",\"129\"
\"\",\"\",\"approach-retreat\",\"133\",\"970344\",\"0.0-133.0\",\"\",\"\",\"3-2\",\"4291\",\"40\",\"1\",\"Training\",\"Stims/Figures/57-J-0-1.bmp\",\"ta:kaka\",\"Up\",\"40\",\"9\",\"2\",\"1\",\"P\",\"J\",\"130\"
\"\",\"\",\"approach-retreat\",\"134\",\"975978\",\"0.0-134.0\",\"\",\"\",\"3-2\",\"4122\",\"38\",\"1\",\"Training\",\"Stims/Figures/87-C-20-4.bmp\",\"ma:la:la\",\"Up\",\"38\",\"9\",\"3\",\"1\",\"S\",\"J\",\"131\"
\"\",\"\",\"approach-retreat\",\"135\",\"981603\",\"0.0-135.0\",\"\",\"\",\"3-2\",\"4111\",\"40\",\"1\",\"Training\",\"Stims/Figures/94-J-0-2.bmp\",\"ta:kaka\",\"Up\",\"40\",\"9\",\"4\",\"1\",\"P\",\"J\",\"132\"
\"\",\"\",\"approach-retreat\",\"136\",\"989026\",\"0.0-136.0\",\"\",\"\",\"3-2\",\"5911\",\"37\",\"1\",\"Training\",\"Stims/Figures/74-J-10-4.bmp\",\"ta:kaka\",\"Right\",\"37\",\"9\",\"5\",\"1\",\"P\",\"J\",\"133\"
\"\",\"\",\"approach-retreat\",\"137\",\"996946\",\"0.0-137.0\",\"\",\"\",\"3-2\",\"6407\",\"38\",\"0\",\"Training\",\"Stims/Figures/74-C-20-4.bmp\",\"ma:la:la\",\"Down\",\"40\",\"9\",\"6\",\"1\",\"S\",\"J\",\"134\"
\"\",\"\",\"approach-retreat\",\"138\",\"1002666\",\"0.0-138.0\",\"\",\"\",\"3-2\",\"4209\",\"39\",\"1\",\"Training\",\"Stims/Figures/100-J-10-3.bmp\",\"ta:kaka\",\"Left\",\"39\",\"9\",\"7\",\"1\",\"P\",\"J\",\"135\"
\"\",\"\",\"approach-retreat\",\"139\",\"1009311\",\"0.0-139.0\",\"\",\"\",\"3-2\",\"5133\",\"38\",\"1\",\"Training\",\"Stims/Figures/139-C-20-2.bmp\",\"ma:la:la\",\"Up\",\"38\",\"9\",\"8\",\"1\",\"S\",\"J\",\"136\"
\"\",\"\",\"approach-retreat\",\"140\",\"1015659\",\"0.0-140.0\",\"\",\"\",\"3-2\",\"4835\",\"40\",\"1\",\"Training\",\"Stims/Figures/57-C-30-1.bmp\",\"ma:la:la\",\"Down\",\"40\",\"9\",\"9\",\"1\",\"S\",\"J\",\"137\"
\"\",\"\",\"approach-retreat\",\"141\",\"1021374\",\"0.0-141.0\",\"\",\"\",\"3-2\",\"4204\",\"37\",\"1\",\"Training\",\"Stims/Figures/71-C-30-1.bmp\",\"ma:la:la\",\"Left\",\"37\",\"9\",\"10\",\"1\",\"S\",\"J\",\"138\"
\"\",\"\",\"approach-retreat\",\"142\",\"1027040\",\"0.0-142.0\",\"\",\"\",\"3-2\",\"4153\",\"39\",\"1\",\"Training\",\"Stims/Figures/144-J-10-3.bmp\",\"ta:kaka\",\"Left\",\"39\",\"9\",\"11\",\"1\",\"P\",\"J\",\"139\"
\"\",\"\",\"approach-retreat\",\"143\",\"1032750\",\"0.0-143.0\",\"\",\"\",\"3-2\",\"4197\",\"39\",\"1\",\"Training\",\"Stims/Figures/71-J-0-1.bmp\",\"ta:kaka\",\"Left\",\"39\",\"9\",\"12\",\"1\",\"P\",\"J\",\"140\"
\"\",\"\",\"approach-retreat\",\"144\",\"1038481\",\"0.0-144.0\",\"\",\"\",\"3-2\",\"4219\",\"40\",\"1\",\"Training\",\"Stims/Figures/144-C-30-3.bmp\",\"ma:la:la\",\"Down\",\"40\",\"9\",\"13\",\"1\",\"S\",\"J\",\"141\"
\"\",\"\",\"approach-retreat\",\"145\",\"1044180\",\"0.0-145.0\",\"\",\"\",\"3-2\",\"4186\",\"37\",\"1\",\"Training\",\"Stims/Figures/139-J-0-2.bmp\",\"ta:kaka\",\"Right\",\"37\",\"9\",\"14\",\"1\",\"P\",\"J\",\"142\"
\"\",\"\",\"approach-retreat\",\"146\",\"1050333\",\"0.0-146.0\",\"\",\"\",\"3-2\",\"4642\",\"40\",\"1\",\"Training\",\"Stims/Figures/94-C-20-2.bmp\",\"ma:la:la\",\"Down\",\"40\",\"9\",\"15\",\"1\",\"S\",\"J\",\"143\"
\"\",\"\",\"approach-retreat\",\"147\",\"1056290\",\"0.0-147.0\",\"\",\"\",\"3-2\",\"4445\",\"39\",\"1\",\"Training\",\"Stims/Figures/100-C-30-3.bmp\",\"ma:la:la\",\"Right\",\"39\",\"9\",\"16\",\"1\",\"S\",\"J\",\"144\"
\"20868\",\"\",\"instructions\",\"148\",\"1077159\",\"0.0-148.0\",\"[{\"\"page_index\"\":0,\"\"viewing_time\"\":20867}]\",\"\",\"\",\"\",\"\",\"\",\"\",\"\",\"\",\"\",\"\",\"\",\"\",\"\",\"\",\"\",\"\"
\"\",\"\",\"approach-retreat\",\"149\",\"1084636\",\"0.0-149.0\",\"\",\"\",\"3-2\",\"5969\",\"38\",\"1\",\"Testing\",\"Stims/Figures/128-J-10-3.bmp\",\"ta:kaka\",\"Down\",\"38\",\"1\",\"1\",\"1\",\"P\",\"J\",\"1\"
\"\",\"\",\"approach-retreat\",\"150\",\"1091037\",\"0.0-150.0\",\"\",\"\",\"3-2\",\"4884\",\"40\",\"1\",\"Testing\",\"Stims/Figures/7-J-10-4.bmp\",\"ta:kaka\",\"Up\",\"40\",\"1\",\"2\",\"1\",\"P\",\"J\",\"2\"
\"\",\"\",\"approach-retreat\",\"151\",\"1096832\",\"0.0-151.0\",\"\",\"\",\"3-2\",\"4285\",\"40\",\"1\",\"Testing\",\"Stims/Figures/128-C-30-3.bmp\",\"ma:la:la\",\"Down\",\"40\",\"1\",\"3\",\"1\",\"S\",\"J\",\"3\"
\"\",\"\",\"approach-retreat\",\"152\",\"1102808\",\"0.0-152.0\",\"\",\"\",\"3-2\",\"4466\",\"39\",\"1\",\"Testing\",\"Stims/Figures/71-C-30-1.bmp\",\"ma:la:la\",\"Right\",\"39\",\"1\",\"4\",\"1\",\"S\",\"J\",\"4\"
\"\",\"\",\"approach-retreat\",\"153\",\"1108621\",\"0.0-153.0\",\"\",\"\",\"3-2\",\"4303\",\"39\",\"1\",\"Testing\",\"Stims/Figures/139-C-20-2.bmp\",\"ma:la:la\",\"Right\",\"39\",\"1\",\"5\",\"1\",\"S\",\"J\",\"5\"
\"\",\"\",\"approach-retreat\",\"154\",\"1114657\",\"0.0-154.0\",\"\",\"\",\"3-2\",\"4526\",\"39\",\"1\",\"Testing\",\"Stims/Figures/85-J-0-2.bmp\",\"ta:kaka\",\"Left\",\"39\",\"1\",\"6\",\"1\",\"P\",\"J\",\"6\"
\"\",\"\",\"approach-retreat\",\"155\",\"1120947\",\"0.0-155.0\",\"\",\"\",\"3-2\",\"4780\",\"37\",\"1\",\"Testing\",\"Stims/Figures/94-J-0-2.bmp\",\"ta:kaka\",\"Right\",\"37\",\"1\",\"7\",\"1\",\"P\",\"J\",\"7\"
\"\",\"\",\"approach-retreat\",\"156\",\"1127759\",\"0.0-156.0\",\"\",\"\",\"3-2\",\"5303\",\"38\",\"1\",\"Testing\",\"Stims/Figures/87-J-10-4.bmp\",\"ta:kaka\",\"Down\",\"38\",\"1\",\"8\",\"1\",\"P\",\"J\",\"8\"
\"\",\"\",\"approach-retreat\",\"157\",\"1134372\",\"0.0-157.0\",\"\",\"\",\"3-2\",\"5102\",\"38\",\"1\",\"Testing\",\"Stims/Figures/87-C-20-4.bmp\",\"ma:la:la\",\"Up\",\"38\",\"1\",\"9\",\"1\",\"S\",\"J\",\"9\"
\"\",\"\",\"approach-retreat\",\"158\",\"1140117\",\"0.0-158.0\",\"\",\"\",\"3-2\",\"4235\",\"40\",\"1\",\"Testing\",\"Stims/Figures/93-J-0-1.bmp\",\"ta:kaka\",\"Up\",\"40\",\"1\",\"10\",\"1\",\"P\",\"J\",\"10\"
\"\",\"\",\"approach-retreat\",\"159\",\"1146079\",\"0.0-159.0\",\"\",\"\",\"3-2\",\"4452\",\"39\",\"1\",\"Testing\",\"Stims/Figures/93-C-30-1.bmp\",\"ma:la:la\",\"Right\",\"39\",\"1\",\"11\",\"1\",\"S\",\"J\",\"11\"
\"\",\"\",\"approach-retreat\",\"160\",\"1152570\",\"0.0-160.0\",\"\",\"\",\"3-2\",\"4980\",\"37\",\"1\",\"Testing\",\"Stims/Figures/94-C-20-2.bmp\",\"ma:la:la\",\"Left\",\"37\",\"1\",\"12\",\"1\",\"S\",\"J\",\"12\"
\"\",\"\",\"approach-retreat\",\"161\",\"1158302\",\"0.0-161.0\",\"\",\"\",\"3-2\",\"4222\",\"40\",\"1\",\"Testing\",\"Stims/Figures/57-C-30-1.bmp\",\"ma:la:la\",\"Down\",\"40\",\"1\",\"13\",\"1\",\"S\",\"J\",\"13\"
\"\",\"\",\"approach-retreat\",\"162\",\"1164345\",\"0.0-162.0\",\"\",\"\",\"3-2\",\"4535\",\"40\",\"1\",\"Testing\",\"Stims/Figures/74-J-10-4.bmp\",\"ta:kaka\",\"Up\",\"40\",\"1\",\"14\",\"1\",\"P\",\"J\",\"14\"
\"\",\"\",\"approach-retreat\",\"163\",\"1170413\",\"0.0-163.0\",\"\",\"\",\"3-2\",\"4557\",\"39\",\"1\",\"Testing\",\"Stims/Figures/57-J-0-1.bmp\",\"ta:kaka\",\"Left\",\"39\",\"1\",\"15\",\"1\",\"P\",\"J\",\"15\"
\"\",\"\",\"approach-retreat\",\"164\",\"1176896\",\"0.0-164.0\",\"\",\"\",\"3-2\",\"4971\",\"40\",\"1\",\"Testing\",\"Stims/Figures/144-J-10-3.bmp\",\"ta:kaka\",\"Up\",\"40\",\"1\",\"16\",\"1\",\"P\",\"J\",\"16\"
\"\",\"\",\"approach-retreat\",\"165\",\"1183639\",\"0.0-165.0\",\"\",\"\",\"3-2\",\"5229\",\"38\",\"1\",\"Testing\",\"Stims/Figures/100-C-30-3.bmp\",\"ma:la:la\",\"Up\",\"38\",\"1\",\"17\",\"1\",\"S\",\"J\",\"17\"
\"\",\"\",\"approach-retreat\",\"166\",\"1190098\",\"0.0-166.0\",\"\",\"\",\"3-2\",\"4950\",\"38\",\"1\",\"Testing\",\"Stims/Figures/71-J-0-1.bmp\",\"ta:kaka\",\"Down\",\"38\",\"1\",\"18\",\"1\",\"P\",\"J\",\"18\"
\"\",\"\",\"approach-retreat\",\"167\",\"1196814\",\"0.0-167.0\",\"\",\"\",\"3-2\",\"5196\",\"37\",\"1\",\"Testing\",\"Stims/Figures/7-C-20-4.bmp\",\"ma:la:la\",\"Left\",\"37\",\"1\",\"19\",\"1\",\"S\",\"J\",\"19\"
\"\",\"\",\"approach-retreat\",\"168\",\"1202895\",\"0.0-168.0\",\"\",\"\",\"3-2\",\"4570\",\"37\",\"1\",\"Testing\",\"Stims/Figures/85-C-20-2.bmp\",\"ma:la:la\",\"Left\",\"37\",\"1\",\"20\",\"1\",\"S\",\"J\",\"20\"
\"\",\"\",\"approach-retreat\",\"169\",\"1208579\",\"0.0-169.0\",\"\",\"\",\"3-2\",\"4175\",\"37\",\"1\",\"Testing\",\"Stims/Figures/144-C-30-3.bmp\",\"ma:la:la\",\"Left\",\"37\",\"1\",\"21\",\"1\",\"S\",\"J\",\"21\"
\"\",\"\",\"approach-retreat\",\"170\",\"1214382\",\"0.0-170.0\",\"\",\"\",\"3-2\",\"4292\",\"39\",\"1\",\"Testing\",\"Stims/Figures/74-C-20-4.bmp\",\"ma:la:la\",\"Right\",\"39\",\"1\",\"22\",\"1\",\"S\",\"J\",\"22\"
\"\",\"\",\"approach-retreat\",\"171\",\"1220555\",\"0.0-171.0\",\"\",\"\",\"3-2\",\"4664\",\"37\",\"1\",\"Testing\",\"Stims/Figures/100-J-10-3.bmp\",\"ta:kaka\",\"Right\",\"37\",\"1\",\"23\",\"1\",\"P\",\"J\",\"23\"
\"\",\"\",\"approach-retreat\",\"172\",\"1226652\",\"0.0-172.0\",\"\",\"\",\"3-2\",\"4588\",\"38\",\"1\",\"Testing\",\"Stims/Figures/139-J-0-2.bmp\",\"ta:kaka\",\"Down\",\"38\",\"1\",\"24\",\"1\",\"P\",\"J\",\"24\"
\"\",\"\",\"approach-retreat\",\"173\",\"1232499\",\"0.0-173.0\",\"\",\"\",\"3-2\",\"4337\",\"37\",\"1\",\"Testing\",\"Stims/Figures/74-J-10-4.bmp\",\"ta:kaka\",\"Right\",\"37\",\"2\",\"1\",\"1\",\"P\",\"J\",\"25\"
\"\",\"\",\"approach-retreat\",\"174\",\"1238274\",\"0.0-174.0\",\"\",\"\",\"3-2\",\"4263\",\"38\",\"1\",\"Testing\",\"Stims/Figures/128-C-30-3.bmp\",\"ma:la:la\",\"Up\",\"38\",\"2\",\"2\",\"1\",\"S\",\"J\",\"26\"
\"\",\"\",\"approach-retreat\",\"175\",\"1243881\",\"0.0-175.0\",\"\",\"\",\"3-2\",\"4098\",\"39\",\"1\",\"Testing\",\"Stims/Figures/7-C-20-4.bmp\",\"ma:la:la\",\"Right\",\"39\",\"2\",\"3\",\"1\",\"S\",\"J\",\"27\"
\"\",\"\",\"approach-retreat\",\"176\",\"1249870\",\"0.0-176.0\",\"\",\"\",\"3-2\",\"4478\",\"39\",\"1\",\"Testing\",\"Stims/Figures/57-J-0-1.bmp\",\"ta:kaka\",\"Left\",\"39\",\"2\",\"4\",\"1\",\"P\",\"J\",\"28\"
\"\",\"\",\"approach-retreat\",\"177\",\"1255658\",\"0.0-177.0\",\"\",\"\",\"3-2\",\"4277\",\"40\",\"1\",\"Testing\",\"Stims/Figures/139-J-0-2.bmp\",\"ta:kaka\",\"Up\",\"40\",\"2\",\"5\",\"1\",\"P\",\"J\",\"29\"
\"\",\"\",\"approach-retreat\",\"178\",\"1261875\",\"0.0-178.0\",\"\",\"\",\"3-2\",\"4707\",\"38\",\"1\",\"Testing\",\"Stims/Figures/85-J-0-2.bmp\",\"ta:kaka\",\"Down\",\"38\",\"2\",\"6\",\"1\",\"P\",\"J\",\"30\"
\"\",\"\",\"approach-retreat\",\"179\",\"1267508\",\"0.0-179.0\",\"\",\"\",\"3-2\",\"4124\",\"37\",\"1\",\"Testing\",\"Stims/Figures/74-C-20-4.bmp\",\"ma:la:la\",\"Left\",\"37\",\"2\",\"7\",\"1\",\"S\",\"J\",\"31\"
\"\",\"\",\"approach-retreat\",\"180\",\"1273225\",\"0.0-180.0\",\"\",\"\",\"3-2\",\"4208\",\"37\",\"1\",\"Testing\",\"Stims/Figures/85-C-20-2.bmp\",\"ma:la:la\",\"Left\",\"37\",\"2\",\"8\",\"1\",\"S\",\"J\",\"32\"
\"\",\"\",\"approach-retreat\",\"181\",\"1278922\",\"0.0-181.0\",\"\",\"\",\"3-2\",\"4186\",\"40\",\"1\",\"Testing\",\"Stims/Figures/93-C-30-1.bmp\",\"ma:la:la\",\"Down\",\"40\",\"2\",\"9\",\"1\",\"S\",\"J\",\"33\"
\"\",\"\",\"approach-retreat\",\"182\",\"1284837\",\"0.0-182.0\",\"\",\"\",\"3-2\",\"4407\",\"38\",\"1\",\"Testing\",\"Stims/Figures/94-J-0-2.bmp\",\"ta:kaka\",\"Down\",\"38\",\"2\",\"10\",\"1\",\"P\",\"J\",\"34\"
\"\",\"\",\"approach-retreat\",\"183\",\"1291027\",\"0.0-183.0\",\"\",\"\",\"3-2\",\"4682\",\"39\",\"1\",\"Testing\",\"Stims/Figures/71-C-30-1.bmp\",\"ma:la:la\",\"Right\",\"39\",\"2\",\"11\",\"1\",\"S\",\"J\",\"35\"
\"\",\"\",\"approach-retreat\",\"184\",\"1297268\",\"0.0-184.0\",\"\",\"\",\"3-2\",\"4731\",\"37\",\"1\",\"Testing\",\"Stims/Figures/139-C-20-2.bmp\",\"ma:la:la\",\"Left\",\"37\",\"2\",\"12\",\"1\",\"S\",\"J\",\"36\"
\"\",\"\",\"approach-retreat\",\"185\",\"1303460\",\"0.0-185.0\",\"\",\"\",\"3-2\",\"4682\",\"38\",\"1\",\"Testing\",\"Stims/Figures/93-J-0-1.bmp\",\"ta:kaka\",\"Down\",\"38\",\"2\",\"13\",\"1\",\"P\",\"J\",\"37\"
\"\",\"\",\"approach-retreat\",\"186\",\"1309131\",\"0.0-186.0\",\"\",\"\",\"3-2\",\"4159\",\"39\",\"1\",\"Testing\",\"Stims/Figures/144-J-10-3.bmp\",\"ta:kaka\",\"Left\",\"39\",\"2\",\"14\",\"1\",\"P\",\"J\",\"38\"
\"\",\"\",\"approach-retreat\",\"187\",\"1315237\",\"0.0-187.0\",\"\",\"\",\"3-2\",\"4596\",\"40\",\"1\",\"Testing\",\"Stims/Figures/100-C-30-3.bmp\",\"ma:la:la\",\"Down\",\"40\",\"2\",\"15\",\"1\",\"S\",\"J\",\"39\"
\"\",\"\",\"approach-retreat\",\"188\",\"1321100\",\"0.0-188.0\",\"\",\"\",\"3-2\",\"4352\",\"37\",\"1\",\"Testing\",\"Stims/Figures/57-C-30-1.bmp\",\"ma:la:la\",\"Left\",\"37\",\"2\",\"16\",\"1\",\"S\",\"J\",\"40\"
\"\",\"\",\"approach-retreat\",\"189\",\"1326871\",\"0.0-189.0\",\"\",\"\",\"3-2\",\"4260\",\"40\",\"1\",\"Testing\",\"Stims/Figures/7-J-10-4.bmp\",\"ta:kaka\",\"Up\",\"40\",\"2\",\"17\",\"1\",\"P\",\"J\",\"41\"
\"\",\"\",\"approach-retreat\",\"190\",\"1336066\",\"0.0-190.0\",\"\",\"\",\"3-2\",\"7685\",\"37\",\"1\",\"Testing\",\"Stims/Figures/71-J-0-1.bmp\",\"ta:kaka\",\"Right\",\"37\",\"2\",\"18\",\"1\",\"P\",\"J\",\"42\"
\"\",\"\",\"approach-retreat\",\"191\",\"1342189\",\"0.0-191.0\",\"\",\"\",\"3-2\",\"4613\",\"37\",\"1\",\"Testing\",\"Stims/Figures/128-J-10-3.bmp\",\"ta:kaka\",\"Right\",\"37\",\"2\",\"19\",\"1\",\"P\",\"J\",\"43\"
\"\",\"\",\"approach-retreat\",\"192\",\"1349855\",\"0.0-192.0\",\"\",\"\",\"3-2\",\"6155\",\"40\",\"1\",\"Testing\",\"Stims/Figures/87-J-10-4.bmp\",\"ta:kaka\",\"Up\",\"40\",\"2\",\"20\",\"1\",\"P\",\"J\",\"44\"
\"\",\"\",\"approach-retreat\",\"193\",\"1356311\",\"0.0-193.0\",\"\",\"\",\"3-2\",\"4948\",\"40\",\"1\",\"Testing\",\"Stims/Figures/87-C-20-4.bmp\",\"ma:la:la\",\"Down\",\"40\",\"2\",\"21\",\"1\",\"S\",\"J\",\"45\"
\"\",\"\",\"approach-retreat\",\"194\",\"1362199\",\"0.0-194.0\",\"\",\"\",\"3-2\",\"4376\",\"38\",\"1\",\"Testing\",\"Stims/Figures/144-C-30-3.bmp\",\"ma:la:la\",\"Up\",\"38\",\"2\",\"22\",\"1\",\"S\",\"J\",\"46\"
\"\",\"\",\"approach-retreat\",\"195\",\"1368111\",\"0.0-195.0\",\"\",\"\",\"3-2\",\"4404\",\"37\",\"1\",\"Testing\",\"Stims/Figures/100-J-10-3.bmp\",\"ta:kaka\",\"Right\",\"37\",\"2\",\"23\",\"1\",\"P\",\"J\",\"47\"
\"\",\"\",\"approach-retreat\",\"196\",\"1373949\",\"0.0-196.0\",\"\",\"\",\"3-2\",\"4327\",\"38\",\"1\",\"Testing\",\"Stims/Figures/94-C-20-2.bmp\",\"ma:la:la\",\"Up\",\"38\",\"2\",\"24\",\"1\",\"S\",\"J\",\"48\"
\"\",\"\",\"approach-retreat\",\"197\",\"1380082\",\"0.0-197.0\",\"\",\"\",\"3-2\",\"4621\",\"40\",\"0\",\"Testing\",\"Stims/Figures/128-J-10-3.bmp\",\"ta:kaka\",\"Down\",\"38\",\"3\",\"1\",\"1\",\"P\",\"J\",\"49\"
\"\",\"\",\"approach-retreat\",\"198\",\"1386556\",\"0.0-198.0\",\"\",\"\",\"3-2\",\"4966\",\"37\",\"1\",\"Testing\",\"Stims/Figures/139-J-0-2.bmp\",\"ta:kaka\",\"Right\",\"37\",\"3\",\"2\",\"1\",\"P\",\"J\",\"50\"
\"\",\"\",\"approach-retreat\",\"199\",\"1393487\",\"0.0-199.0\",\"\",\"\",\"3-2\",\"5420\",\"39\",\"1\",\"Testing\",\"Stims/Figures/100-J-10-3.bmp\",\"ta:kaka\",\"Left\",\"39\",\"3\",\"3\",\"1\",\"P\",\"J\",\"51\"
\"\",\"\",\"approach-retreat\",\"200\",\"1399533\",\"0.0-200.0\",\"\",\"\",\"3-2\",\"4537\",\"37\",\"1\",\"Testing\",\"Stims/Figures/7-C-20-4.bmp\",\"ma:la:la\",\"Left\",\"37\",\"3\",\"4\",\"1\",\"S\",\"J\",\"52\"
\"\",\"\",\"approach-retreat\",\"201\",\"1405312\",\"0.0-201.0\",\"\",\"\",\"3-2\",\"4269\",\"38\",\"1\",\"Testing\",\"Stims/Figures/74-C-20-4.bmp\",\"ma:la:la\",\"Up\",\"38\",\"3\",\"5\",\"1\",\"S\",\"J\",\"53\"
\"\",\"\",\"approach-retreat\",\"202\",\"1411092\",\"0.0-202.0\",\"\",\"\",\"3-2\",\"4269\",\"39\",\"1\",\"Testing\",\"Stims/Figures/94-C-20-2.bmp\",\"ma:la:la\",\"Right\",\"39\",\"3\",\"6\",\"1\",\"S\",\"J\",\"54\"
\"\",\"\",\"approach-retreat\",\"203\",\"1416890\",\"0.0-203.0\",\"\",\"\",\"3-2\",\"4289\",\"38\",\"1\",\"Testing\",\"Stims/Figures/7-J-10-4.bmp\",\"ta:kaka\",\"Down\",\"38\",\"3\",\"7\",\"1\",\"P\",\"J\",\"55\"
\"\",\"\",\"approach-retreat\",\"204\",\"1423329\",\"0.0-204.0\",\"\",\"\",\"3-2\",\"4930\",\"40\",\"1\",\"Testing\",\"Stims/Figures/93-C-30-1.bmp\",\"ma:la:la\",\"Down\",\"40\",\"3\",\"8\",\"1\",\"S\",\"J\",\"56\"
\"\",\"\",\"approach-retreat\",\"205\",\"1429668\",\"0.0-205.0\",\"\",\"\",\"3-2\",\"4832\",\"40\",\"1\",\"Testing\",\"Stims/Figures/57-C-30-1.bmp\",\"ma:la:la\",\"Down\",\"40\",\"3\",\"9\",\"1\",\"S\",\"J\",\"57\"
\"\",\"\",\"approach-retreat\",\"206\",\"1435279\",\"0.0-206.0\",\"\",\"\",\"3-2\",\"4101\",\"37\",\"1\",\"Testing\",\"Stims/Figures/94-J-0-2.bmp\",\"ta:kaka\",\"Right\",\"37\",\"3\",\"10\",\"1\",\"P\",\"J\",\"58\"
\"\",\"\",\"approach-retreat\",\"207\",\"1441792\",\"0.0-207.0\",\"\",\"\",\"3-2\",\"5004\",\"38\",\"1\",\"Testing\",\"Stims/Figures/139-C-20-2.bmp\",\"ma:la:la\",\"Up\",\"38\",\"3\",\"11\",\"1\",\"S\",\"J\",\"59\"
\"\",\"\",\"approach-retreat\",\"208\",\"1448177\",\"0.0-208.0\",\"\",\"\",\"3-2\",\"4876\",\"39\",\"1\",\"Testing\",\"Stims/Figures/144-J-10-3.bmp\",\"ta:kaka\",\"Left\",\"39\",\"3\",\"12\",\"1\",\"P\",\"J\",\"60\"
\"\",\"\",\"approach-retreat\",\"209\",\"1454278\",\"0.0-209.0\",\"\",\"\",\"3-2\",\"4591\",\"38\",\"1\",\"Testing\",\"Stims/Figures/87-J-10-4.bmp\",\"ta:kaka\",\"Down\",\"38\",\"3\",\"13\",\"1\",\"P\",\"J\",\"61\"
\"\",\"\",\"approach-retreat\",\"210\",\"1460831\",\"0.0-210.0\",\"\",\"\",\"3-2\",\"5042\",\"39\",\"1\",\"Testing\",\"Stims/Figures/100-C-30-3.bmp\",\"ma:la:la\",\"Right\",\"39\",\"3\",\"14\",\"1\",\"S\",\"J\",\"62\"
\"\",\"\",\"approach-retreat\",\"211\",\"1467102\",\"0.0-211.0\",\"\",\"\",\"3-2\",\"4761\",\"37\",\"1\",\"Testing\",\"Stims/Figures/74-J-10-4.bmp\",\"ta:kaka\",\"Right\",\"37\",\"3\",\"15\",\"1\",\"P\",\"J\",\"63\"
\"\",\"\",\"approach-retreat\",\"212\",\"1473093\",\"0.0-212.0\",\"\",\"\",\"3-2\",\"4478\",\"37\",\"1\",\"Testing\",\"Stims/Figures/87-C-20-4.bmp\",\"ma:la:la\",\"Left\",\"37\",\"3\",\"16\",\"1\",\"S\",\"J\",\"64\"
\"\",\"\",\"approach-retreat\",\"213\",\"1478931\",\"0.0-213.0\",\"\",\"\",\"3-2\",\"4328\",\"40\",\"1\",\"Testing\",\"Stims/Figures/128-C-30-3.bmp\",\"ma:la:la\",\"Down\",\"40\",\"3\",\"17\",\"1\",\"S\",\"J\",\"65\"
\"\",\"\",\"approach-retreat\",\"214\",\"1484537\",\"0.0-214.0\",\"\",\"\",\"3-2\",\"4096\",\"39\",\"1\",\"Testing\",\"Stims/Figures/71-C-30-1.bmp\",\"ma:la:la\",\"Right\",\"39\",\"3\",\"18\",\"1\",\"S\",\"J\",\"66\"
\"\",\"\",\"approach-retreat\",\"215\",\"1491084\",\"0.0-215.0\",\"\",\"\",\"3-2\",\"5040\",\"37\",\"1\",\"Testing\",\"Stims/Figures/144-C-30-3.bmp\",\"ma:la:la\",\"Left\",\"37\",\"3\",\"19\",\"1\",\"S\",\"J\",\"67\"
\"\",\"\",\"approach-retreat\",\"216\",\"1497112\",\"0.0-216.0\",\"\",\"\",\"3-2\",\"4518\",\"40\",\"1\",\"Testing\",\"Stims/Figures/93-J-0-1.bmp\",\"ta:kaka\",\"Up\",\"40\",\"3\",\"20\",\"1\",\"P\",\"J\",\"68\"
\"\",\"\",\"approach-retreat\",\"217\",\"1504427\",\"0.0-217.0\",\"\",\"\",\"3-2\",\"5804\",\"39\",\"1\",\"Testing\",\"Stims/Figures/85-J-0-2.bmp\",\"ta:kaka\",\"Left\",\"39\",\"3\",\"21\",\"1\",\"P\",\"J\",\"69\"
\"\",\"\",\"approach-retreat\",\"218\",\"1510235\",\"0.0-218.0\",\"\",\"\",\"3-2\",\"4298\",\"40\",\"1\",\"Testing\",\"Stims/Figures/71-J-0-1.bmp\",\"ta:kaka\",\"Up\",\"40\",\"3\",\"22\",\"1\",\"P\",\"J\",\"70\"
\"\",\"\",\"approach-retreat\",\"219\",\"1516085\",\"0.0-219.0\",\"\",\"\",\"3-2\",\"4339\",\"40\",\"1\",\"Testing\",\"Stims/Figures/57-J-0-1.bmp\",\"ta:kaka\",\"Up\",\"40\",\"3\",\"23\",\"1\",\"P\",\"J\",\"71\"
\"\",\"\",\"approach-retreat\",\"220\",\"1521968\",\"0.0-220.0\",\"\",\"\",\"3-2\",\"4373\",\"38\",\"1\",\"Testing\",\"Stims/Figures/85-C-20-2.bmp\",\"ma:la:la\",\"Up\",\"38\",\"3\",\"24\",\"1\",\"S\",\"J\",\"72\"
\"\",\"\",\"approach-retreat\",\"221\",\"1527995\",\"0.0-221.0\",\"\",\"\",\"3-2\",\"4517\",\"38\",\"1\",\"Testing\",\"Stims/Figures/128-C-30-3.bmp\",\"ma:la:la\",\"Up\",\"38\",\"4\",\"1\",\"1\",\"S\",\"J\",\"73\"
\"\",\"\",\"approach-retreat\",\"222\",\"1533738\",\"0.0-222.0\",\"\",\"\",\"3-2\",\"4232\",\"38\",\"1\",\"Testing\",\"Stims/Figures/100-C-30-3.bmp\",\"ma:la:la\",\"Up\",\"38\",\"4\",\"2\",\"1\",\"S\",\"J\",\"74\"
\"\",\"\",\"approach-retreat\",\"223\",\"1539529\",\"0.0-223.0\",\"\",\"\",\"3-2\",\"4281\",\"39\",\"1\",\"Testing\",\"Stims/Figures/57-J-0-1.bmp\",\"ta:kaka\",\"Left\",\"39\",\"4\",\"3\",\"1\",\"P\",\"J\",\"75\"
\"\",\"\",\"approach-retreat\",\"224\",\"1545391\",\"0.0-224.0\",\"\",\"\",\"3-2\",\"4351\",\"39\",\"1\",\"Testing\",\"Stims/Figures/144-C-30-3.bmp\",\"ma:la:la\",\"Right\",\"39\",\"4\",\"4\",\"1\",\"S\",\"J\",\"76\"
\"\",\"\",\"approach-retreat\",\"225\",\"1551471\",\"0.0-225.0\",\"\",\"\",\"3-2\",\"4570\",\"39\",\"1\",\"Testing\",\"Stims/Figures/139-J-0-2.bmp\",\"ta:kaka\",\"Left\",\"39\",\"4\",\"5\",\"1\",\"P\",\"J\",\"77\"
\"\",\"\",\"approach-retreat\",\"226\",\"1557291\",\"0.0-226.0\",\"\",\"\",\"3-2\",\"4308\",\"37\",\"1\",\"Testing\",\"Stims/Figures/144-J-10-3.bmp\",\"ta:kaka\",\"Right\",\"37\",\"4\",\"6\",\"1\",\"P\",\"J\",\"78\"
\"\",\"\",\"approach-retreat\",\"227\",\"1563033\",\"0.0-227.0\",\"\",\"\",\"3-2\",\"4233\",\"38\",\"1\",\"Testing\",\"Stims/Figures/100-J-10-3.bmp\",\"ta:kaka\",\"Down\",\"38\",\"4\",\"7\",\"1\",\"P\",\"J\",\"79\"
\"\",\"\",\"approach-retreat\",\"228\",\"1568765\",\"0.0-228.0\",\"\",\"\",\"3-2\",\"4221\",\"38\",\"1\",\"Testing\",\"Stims/Figures/71-J-0-1.bmp\",\"ta:kaka\",\"Down\",\"38\",\"4\",\"8\",\"1\",\"P\",\"J\",\"80\"
\"\",\"\",\"approach-retreat\",\"229\",\"1574697\",\"0.0-229.0\",\"\",\"\",\"3-2\",\"4424\",\"39\",\"1\",\"Testing\",\"Stims/Figures/71-C-30-1.bmp\",\"ma:la:la\",\"Right\",\"39\",\"4\",\"9\",\"1\",\"S\",\"J\",\"81\"
\"\",\"\",\"approach-retreat\",\"230\",\"1580760\",\"0.0-230.0\",\"\",\"\",\"3-2\",\"4553\",\"37\",\"1\",\"Testing\",\"Stims/Figures/85-C-20-2.bmp\",\"ma:la:la\",\"Left\",\"37\",\"4\",\"10\",\"1\",\"S\",\"J\",\"82\"
\"\",\"\",\"approach-retreat\",\"231\",\"1586585\",\"0.0-231.0\",\"\",\"\",\"3-2\",\"4313\",\"38\",\"1\",\"Testing\",\"Stims/Figures/94-C-20-2.bmp\",\"ma:la:la\",\"Up\",\"38\",\"4\",\"11\",\"1\",\"S\",\"J\",\"83\"
\"\",\"\",\"approach-retreat\",\"232\",\"1592771\",\"0.0-232.0\",\"\",\"\",\"3-2\",\"4677\",\"38\",\"1\",\"Testing\",\"Stims/Figures/93-C-30-1.bmp\",\"ma:la:la\",\"Up\",\"38\",\"4\",\"12\",\"1\",\"S\",\"J\",\"84\"
\"\",\"\",\"approach-retreat\",\"233\",\"1598358\",\"0.0-233.0\",\"\",\"\",\"3-2\",\"4078\",\"37\",\"1\",\"Testing\",\"Stims/Figures/87-C-20-4.bmp\",\"ma:la:la\",\"Left\",\"37\",\"4\",\"13\",\"1\",\"S\",\"J\",\"85\"
\"\",\"\",\"approach-retreat\",\"234\",\"1604343\",\"0.0-234.0\",\"\",\"\",\"3-2\",\"4474\",\"40\",\"0\",\"Testing\",\"Stims/Figures/128-J-10-3.bmp\",\"ta:kaka\",\"Down\",\"38\",\"4\",\"14\",\"1\",\"P\",\"J\",\"86\"
\"\",\"\",\"approach-retreat\",\"235\",\"1610157\",\"0.0-235.0\",\"\",\"\",\"3-2\",\"4303\",\"40\",\"1\",\"Testing\",\"Stims/Figures/74-C-20-4.bmp\",\"ma:la:la\",\"Down\",\"40\",\"4\",\"15\",\"1\",\"S\",\"J\",\"87\"
\"\",\"\",\"approach-retreat\",\"236\",\"1615969\",\"0.0-236.0\",\"\",\"\",\"3-2\",\"4303\",\"38\",\"1\",\"Testing\",\"Stims/Figures/57-C-30-1.bmp\",\"ma:la:la\",\"Up\",\"38\",\"4\",\"16\",\"1\",\"S\",\"J\",\"88\"
\"\",\"\",\"approach-retreat\",\"237\",\"1621646\",\"0.0-237.0\",\"\",\"\",\"3-2\",\"4166\",\"37\",\"1\",\"Testing\",\"Stims/Figures/94-J-0-2.bmp\",\"ta:kaka\",\"Right\",\"37\",\"4\",\"17\",\"1\",\"P\",\"J\",\"89\"
\"\",\"\",\"approach-retreat\",\"238\",\"1627443\",\"0.0-238.0\",\"\",\"\",\"3-2\",\"4287\",\"37\",\"1\",\"Testing\",\"Stims/Figures/7-J-10-4.bmp\",\"ta:kaka\",\"Right\",\"37\",\"4\",\"18\",\"1\",\"P\",\"J\",\"90\"
\"\",\"\",\"approach-retreat\",\"239\",\"1633683\",\"0.0-239.0\",\"\",\"\",\"3-2\",\"4730\",\"37\",\"1\",\"Testing\",\"Stims/Figures/139-C-20-2.bmp\",\"ma:la:la\",\"Left\",\"37\",\"4\",\"19\",\"1\",\"S\",\"J\",\"91\"
\"\",\"\",\"approach-retreat\",\"240\",\"1639885\",\"0.0-240.0\",\"\",\"\",\"3-2\",\"4692\",\"37\",\"1\",\"Testing\",\"Stims/Figures/7-C-20-4.bmp\",\"ma:la:la\",\"Left\",\"37\",\"4\",\"20\",\"1\",\"S\",\"J\",\"92\"
\"\",\"\",\"approach-retreat\",\"241\",\"1645641\",\"0.0-241.0\",\"\",\"\",\"3-2\",\"4246\",\"38\",\"1\",\"Testing\",\"Stims/Figures/93-J-0-1.bmp\",\"ta:kaka\",\"Down\",\"38\",\"4\",\"21\",\"1\",\"P\",\"J\",\"93\"
\"\",\"\",\"approach-retreat\",\"242\",\"1651478\",\"0.0-242.0\",\"\",\"\",\"3-2\",\"4327\",\"40\",\"1\",\"Testing\",\"Stims/Figures/85-J-0-2.bmp\",\"ta:kaka\",\"Up\",\"40\",\"4\",\"22\",\"1\",\"P\",\"J\",\"94\"
\"\",\"\",\"approach-retreat\",\"243\",\"1658769\",\"0.0-243.0\",\"\",\"\",\"3-2\",\"5782\",\"37\",\"1\",\"Testing\",\"Stims/Figures/74-J-10-4.bmp\",\"ta:kaka\",\"Right\",\"37\",\"4\",\"23\",\"1\",\"P\",\"J\",\"95\"
\"\",\"\",\"approach-retreat\",\"244\",\"1665174\",\"0.0-244.0\",\"\",\"\",\"3-2\",\"4895\",\"40\",\"0\",\"Testing\",\"Stims/Figures/87-J-10-4.bmp\",\"ta:kaka\",\"Down\",\"38\",\"4\",\"24\",\"1\",\"P\",\"J\",\"96\"
\"32443\",\"\",\"survey-text\",\"245\",\"1697629\",\"0.0-245.0\",\"\",\"{\"\"Q0\"\":\"\"PS160031\"\"}\",\"\",\"\",\"\",\"\",\"\",\"\",\"\",\"\",\"\",\"\",\"\",\"\",\"\",\"\",\"\"
