\"rt\",\"key_press\",\"trial_type\",\"trial_index\",\"time_elapsed\",\"internal_node_id\",\"view_history\",\"responses\",\"Id\",\"Rt\",\"ResKeyCode\",\"ResCorr\",\"TrialType2\",\"Image\",\"Label\",\"Location\",\"CorrectResponse\",\"Block\",\"BlockTrial\",\"Condition\",\"LabelType\",\"Subcondition\",\"trialNum\"
\"200668\",\"32\",\"text\",\"0\",\"200674\",\"0.0-0.0-0.0\",\"\",\"\",\"\",\"\",\"\",\"\",\"\",\"\",\"\",\"\",\"\",\"\",\"\",\"\",\"\",\"\",\"\"
\"106610\",\"\",\"instructions\",\"1\",\"307286\",\"0.0-1.0\",\"[{\"\"page_index\"\":0,\"\"viewing_time\"\":106610}]\",\"\",\"\",\"\",\"\",\"\",\"\",\"\",\"\",\"\",\"\",\"\",\"\",\"\",\"\",\"\",\"\"
\"22165\",\"\",\"survey-multi-choice\",\"2\",\"329486\",\"0.0-2.0\",\"\",\"{\"\"Q0\"\":\"\"Da\"\",\"\"Q1\"\":\"\"Da\"\",\"\"Q2\"\":\"\"Da\"\",\"\"Q3\"\":\"\"Da\"\",\"\"Q4\"\":\"\"Da\"\",\"\"Q5\"\":\"\"Da\"\"}\",\"\",\"\",\"\",\"\",\"\",\"\",\"\",\"\",\"\",\"\",\"\",\"\",\"\",\"\",\"\"
\"\",\"\",\"bio\",\"3\",\"337841\",\"0.0-3.0\",\"\",\"{\"\"age\"\":\"\"21\"\",\"\"gender\"\":\"\"f\"\",\"\"specify\"\":\"\"\"\"}\",\"\",\"\",\"\",\"\",\"\",\"\",\"\",\"\",\"\",\"\",\"\",\"\",\"\",\"\",\"\"
\"\",\"\",\"approach-retreat\",\"4\",\"400465\",\"0.0-4.0\",\"\",\"\",\"1-2\",\"61118\",\"39\",\"1\",\"Training\",\"Stims/Figures/128-J-10-3.bmp\",\"fashasha\",\"Right\",\"39\",\"1\",\"1\",\"6A\",\"C1\",\"C\",\"1\"
\"\",\"\",\"approach-retreat\",\"5\",\"408859\",\"0.0-5.0\",\"\",\"\",\"1-2\",\"6872\",\"40\",\"0\",\"Training\",\"Stims/Figures/85-C-20-2.bmp\",\"sasaza\",\"Down\",\"38\",\"1\",\"2\",\"6A\",\"C2\",\"C\",\"2\"
\"\",\"\",\"approach-retreat\",\"6\",\"415396\",\"0.0-6.0\",\"\",\"\",\"1-2\",\"5018\",\"39\",\"1\",\"Training\",\"Stims/Figures/87-C-20-4.bmp\",\"sa:saha\",\"Left\",\"39\",\"1\",\"3\",\"6A\",\"C2\",\"C\",\"3\"
\"\",\"\",\"approach-retreat\",\"7\",\"421544\",\"0.0-7.0\",\"\",\"\",\"1-2\",\"4640\",\"39\",\"0\",\"Training\",\"Stims/Figures/139-J-0-2.bmp\",\"vafava\",\"Left\",\"37\",\"1\",\"4\",\"6A\",\"C1\",\"C\",\"4\"
\"\",\"\",\"approach-retreat\",\"8\",\"428526\",\"0.0-8.0\",\"\",\"\",\"1-2\",\"5469\",\"38\",\"0\",\"Training\",\"Stims/Figures/139-C-20-2.bmp\",\"zahaha\",\"Up\",\"40\",\"1\",\"5\",\"6A\",\"C2\",\"C\",\"5\"
\"\",\"\",\"approach-retreat\",\"9\",\"434364\",\"0.0-9.0\",\"\",\"\",\"1-2\",\"4330\",\"39\",\"1\",\"Training\",\"Stims/Figures/85-J-0-2.bmp\",\"fafa:va\",\"Right\",\"39\",\"1\",\"6\",\"6A\",\"C1\",\"C\",\"6\"
\"\",\"\",\"approach-retreat\",\"10\",\"441813\",\"0.0-10.0\",\"\",\"\",\"1-2\",\"5933\",\"40\",\"0\",\"Training\",\"Stims/Figures/57-J-0-1.bmp\",\"fafava\",\"Up\",\"38\",\"1\",\"7\",\"6A\",\"C1\",\"C\",\"7\"
\"\",\"\",\"approach-retreat\",\"11\",\"447689\",\"0.0-11.0\",\"\",\"\",\"1-2\",\"4369\",\"39\",\"0\",\"Training\",\"Stims/Figures/93-C-30-1.bmp\",\"sahaza\",\"Right\",\"37\",\"1\",\"8\",\"6A\",\"C2\",\"C\",\"8\"
\"\",\"\",\"approach-retreat\",\"12\",\"454579\",\"0.0-12.0\",\"\",\"\",\"1-2\",\"5381\",\"37\",\"1\",\"Training\",\"Stims/Figures/100-J-10-3.bmp\",\"vasha:va\",\"Left\",\"37\",\"1\",\"9\",\"6A\",\"C1\",\"C\",\"9\"
\"\",\"\",\"approach-retreat\",\"13\",\"463582\",\"0.0-13.0\",\"\",\"\",\"1-2\",\"7490\",\"40\",\"1\",\"Training\",\"Stims/Figures/93-J-0-1.bmp\",\"fasha:va\",\"Down\",\"40\",\"1\",\"10\",\"6A\",\"C1\",\"C\",\"10\"
\"\",\"\",\"approach-retreat\",\"14\",\"469558\",\"0.0-14.0\",\"\",\"\",\"1-2\",\"4454\",\"39\",\"0\",\"Training\",\"Stims/Figures/7-C-20-4.bmp\",\"zaha:ha\",\"Right\",\"37\",\"1\",\"11\",\"6A\",\"C2\",\"C\",\"11\"
\"\",\"\",\"approach-retreat\",\"15\",\"476174\",\"0.0-15.0\",\"\",\"\",\"1-2\",\"5102\",\"38\",\"1\",\"Training\",\"Stims/Figures/100-C-30-3.bmp\",\"zaha:za\",\"Down\",\"38\",\"1\",\"12\",\"6A\",\"C2\",\"C\",\"12\"
\"\",\"\",\"approach-retreat\",\"16\",\"482521\",\"0.0-16.0\",\"\",\"\",\"1-2\",\"4831\",\"38\",\"1\",\"Training\",\"Stims/Figures/87-J-10-4.bmp\",\"va:sha:sha\",\"Up\",\"38\",\"1\",\"13\",\"6A\",\"C1\",\"C\",\"13\"
\"\",\"\",\"approach-retreat\",\"17\",\"490183\",\"0.0-17.0\",\"\",\"\",\"1-2\",\"6157\",\"37\",\"0\",\"Training\",\"Stims/Figures/128-C-30-3.bmp\",\"za:haha\",\"Left\",\"39\",\"1\",\"14\",\"6A\",\"C2\",\"C\",\"14\"
\"\",\"\",\"approach-retreat\",\"18\",\"495859\",\"0.0-18.0\",\"\",\"\",\"1-2\",\"4159\",\"38\",\"0\",\"Training\",\"Stims/Figures/57-C-30-1.bmp\",\"sa:haha\",\"Up\",\"40\",\"1\",\"15\",\"6A\",\"C2\",\"C\",\"15\"
\"\",\"\",\"approach-retreat\",\"19\",\"503190\",\"0.0-19.0\",\"\",\"\",\"1-2\",\"5827\",\"40\",\"1\",\"Training\",\"Stims/Figures/7-J-10-4.bmp\",\"va:fa:sha\",\"Down\",\"40\",\"1\",\"16\",\"6A\",\"C1\",\"C\",\"16\"
\"\",\"\",\"approach-retreat\",\"20\",\"509283\",\"0.0-20.0\",\"\",\"\",\"1-2\",\"4580\",\"39\",\"1\",\"Training\",\"Stims/Figures/57-C-30-1.bmp\",\"sa:haha\",\"Left\",\"39\",\"2\",\"1\",\"6A\",\"C2\",\"C\",\"17\"
\"\",\"\",\"approach-retreat\",\"21\",\"515193\",\"0.0-21.0\",\"\",\"\",\"1-2\",\"4404\",\"39\",\"0\",\"Training\",\"Stims/Figures/128-J-10-3.bmp\",\"fashasha\",\"Left\",\"37\",\"2\",\"2\",\"6A\",\"C1\",\"C\",\"18\"
\"\",\"\",\"approach-retreat\",\"22\",\"521624\",\"0.0-22.0\",\"\",\"\",\"1-2\",\"4915\",\"40\",\"0\",\"Training\",\"Stims/Figures/139-J-0-2.bmp\",\"vafava\",\"Up\",\"38\",\"2\",\"3\",\"6A\",\"C1\",\"C\",\"19\"
\"\",\"\",\"approach-retreat\",\"23\",\"528445\",\"0.0-23.0\",\"\",\"\",\"1-2\",\"5315\",\"38\",\"0\",\"Training\",\"Stims/Figures/87-J-10-4.bmp\",\"va:sha:sha\",\"Down\",\"40\",\"2\",\"4\",\"6A\",\"C1\",\"C\",\"20\"
\"\",\"\",\"approach-retreat\",\"24\",\"535162\",\"0.0-24.0\",\"\",\"\",\"1-2\",\"5213\",\"37\",\"1\",\"Training\",\"Stims/Figures/139-C-20-2.bmp\",\"zahaha\",\"Right\",\"37\",\"2\",\"5\",\"6A\",\"C2\",\"C\",\"21\"
\"\",\"\",\"approach-retreat\",\"25\",\"541519\",\"0.0-25.0\",\"\",\"\",\"1-2\",\"4845\",\"40\",\"0\",\"Training\",\"Stims/Figures/85-C-20-2.bmp\",\"sasaza\",\"Down\",\"38\",\"2\",\"6\",\"6A\",\"C2\",\"C\",\"22\"
\"\",\"\",\"approach-retreat\",\"26\",\"547809\",\"0.0-26.0\",\"\",\"\",\"1-2\",\"4775\",\"39\",\"1\",\"Training\",\"Stims/Figures/57-J-0-1.bmp\",\"fafava\",\"Right\",\"39\",\"2\",\"7\",\"6A\",\"C1\",\"C\",\"23\"
\"\",\"\",\"approach-retreat\",\"27\",\"553647\",\"0.0-27.0\",\"\",\"\",\"1-2\",\"4328\",\"38\",\"0\",\"Training\",\"Stims/Figures/85-J-0-2.bmp\",\"fafa:va\",\"Down\",\"40\",\"2\",\"8\",\"6A\",\"C1\",\"C\",\"24\"
\"\",\"\",\"approach-retreat\",\"28\",\"559331\",\"0.0-28.0\",\"\",\"\",\"1-2\",\"4165\",\"39\",\"1\",\"Training\",\"Stims/Figures/93-C-30-1.bmp\",\"sahaza\",\"Left\",\"39\",\"2\",\"9\",\"6A\",\"C2\",\"C\",\"25\"
\"\",\"\",\"approach-retreat\",\"29\",\"565858\",\"0.0-29.0\",\"\",\"\",\"1-2\",\"5012\",\"39\",\"1\",\"Training\",\"Stims/Figures/93-J-0-1.bmp\",\"fasha:va\",\"Right\",\"39\",\"2\",\"10\",\"6A\",\"C1\",\"C\",\"26\"
\"\",\"\",\"approach-retreat\",\"30\",\"571942\",\"0.0-30.0\",\"\",\"\",\"1-2\",\"4564\",\"38\",\"1\",\"Training\",\"Stims/Figures/7-C-20-4.bmp\",\"zaha:ha\",\"Down\",\"38\",\"2\",\"11\",\"6A\",\"C2\",\"C\",\"27\"
\"\",\"\",\"approach-retreat\",\"31\",\"578072\",\"0.0-31.0\",\"\",\"\",\"1-2\",\"4624\",\"38\",\"0\",\"Training\",\"Stims/Figures/128-C-30-3.bmp\",\"za:haha\",\"Up\",\"40\",\"2\",\"12\",\"6A\",\"C2\",\"C\",\"28\"
\"\",\"\",\"approach-retreat\",\"32\",\"584540\",\"0.0-32.0\",\"\",\"\",\"1-2\",\"4961\",\"38\",\"0\",\"Training\",\"Stims/Figures/100-C-30-3.bmp\",\"zaha:za\",\"Up\",\"40\",\"2\",\"13\",\"6A\",\"C2\",\"C\",\"29\"
\"\",\"\",\"approach-retreat\",\"33\",\"591844\",\"0.0-33.0\",\"\",\"\",\"1-2\",\"5795\",\"37\",\"0\",\"Training\",\"Stims/Figures/7-J-10-4.bmp\",\"va:fa:sha\",\"Right\",\"39\",\"2\",\"14\",\"6A\",\"C1\",\"C\",\"30\"
\"\",\"\",\"approach-retreat\",\"34\",\"598555\",\"0.0-34.0\",\"\",\"\",\"1-2\",\"5206\",\"39\",\"0\",\"Training\",\"Stims/Figures/100-J-10-3.bmp\",\"vasha:va\",\"Left\",\"37\",\"2\",\"15\",\"6A\",\"C1\",\"C\",\"31\"
\"\",\"\",\"approach-retreat\",\"35\",\"610170\",\"0.0-35.0\",\"\",\"\",\"1-2\",\"10111\",\"38\",\"0\",\"Training\",\"Stims/Figures/87-C-20-4.bmp\",\"sa:saha\",\"Up\",\"40\",\"2\",\"16\",\"6A\",\"C2\",\"C\",\"32\"
\"\",\"\",\"approach-retreat\",\"36\",\"616036\",\"0.0-36.0\",\"\",\"\",\"1-2\",\"4356\",\"39\",\"0\",\"Training\",\"Stims/Figures/128-J-10-3.bmp\",\"fashasha\",\"Left\",\"37\",\"3\",\"1\",\"6A\",\"C1\",\"C\",\"33\"
\"\",\"\",\"approach-retreat\",\"37\",\"622842\",\"0.0-37.0\",\"\",\"\",\"1-2\",\"5297\",\"38\",\"1\",\"Training\",\"Stims/Figures/7-C-20-4.bmp\",\"zaha:ha\",\"Down\",\"38\",\"3\",\"2\",\"6A\",\"C2\",\"C\",\"34\"
\"\",\"\",\"approach-retreat\",\"38\",\"629651\",\"0.0-38.0\",\"\",\"\",\"1-2\",\"5304\",\"38\",\"0\",\"Training\",\"Stims/Figures/93-C-30-1.bmp\",\"sahaza\",\"Up\",\"40\",\"3\",\"3\",\"6A\",\"C2\",\"C\",\"35\"
\"\",\"\",\"approach-retreat\",\"39\",\"635445\",\"0.0-39.0\",\"\",\"\",\"1-2\",\"4287\",\"40\",\"0\",\"Training\",\"Stims/Figures/87-J-10-4.bmp\",\"va:sha:sha\",\"Up\",\"38\",\"3\",\"4\",\"6A\",\"C1\",\"C\",\"36\"
\"\",\"\",\"approach-retreat\",\"40\",\"641572\",\"0.0-40.0\",\"\",\"\",\"1-2\",\"4622\",\"40\",\"0\",\"Training\",\"Stims/Figures/100-C-30-3.bmp\",\"zaha:za\",\"Down\",\"38\",\"3\",\"5\",\"6A\",\"C2\",\"C\",\"37\"
\"\",\"\",\"approach-retreat\",\"41\",\"647275\",\"0.0-41.0\",\"\",\"\",\"1-2\",\"4191\",\"38\",\"0\",\"Training\",\"Stims/Figures/93-J-0-1.bmp\",\"fasha:va\",\"Down\",\"40\",\"3\",\"6\",\"6A\",\"C1\",\"C\",\"38\"
\"\",\"\",\"approach-retreat\",\"42\",\"654034\",\"0.0-42.0\",\"\",\"\",\"1-2\",\"5247\",\"39\",\"0\",\"Training\",\"Stims/Figures/85-C-20-2.bmp\",\"sasaza\",\"Right\",\"37\",\"3\",\"7\",\"6A\",\"C2\",\"C\",\"39\"
\"\",\"\",\"approach-retreat\",\"43\",\"660302\",\"0.0-43.0\",\"\",\"\",\"1-2\",\"4762\",\"37\",\"0\",\"Training\",\"Stims/Figures/85-J-0-2.bmp\",\"fafa:va\",\"Right\",\"39\",\"3\",\"8\",\"6A\",\"C1\",\"C\",\"40\"
\"\",\"\",\"approach-retreat\",\"44\",\"666786\",\"0.0-44.0\",\"\",\"\",\"1-2\",\"4981\",\"40\",\"0\",\"Training\",\"Stims/Figures/7-J-10-4.bmp\",\"va:fa:sha\",\"Up\",\"38\",\"3\",\"9\",\"6A\",\"C1\",\"C\",\"41\"
\"\",\"\",\"approach-retreat\",\"45\",\"673005\",\"0.0-45.0\",\"\",\"\",\"1-2\",\"4708\",\"39\",\"0\",\"Training\",\"Stims/Figures/87-C-20-4.bmp\",\"sa:saha\",\"Right\",\"37\",\"3\",\"10\",\"6A\",\"C2\",\"C\",\"42\"
\"\",\"\",\"approach-retreat\",\"46\",\"679166\",\"0.0-46.0\",\"\",\"\",\"1-2\",\"4644\",\"39\",\"0\",\"Training\",\"Stims/Figures/57-J-0-1.bmp\",\"fafava\",\"Left\",\"37\",\"3\",\"11\",\"6A\",\"C1\",\"C\",\"43\"
\"\",\"\",\"approach-retreat\",\"47\",\"685190\",\"0.0-47.0\",\"\",\"\",\"1-2\",\"4511\",\"37\",\"1\",\"Training\",\"Stims/Figures/57-C-30-1.bmp\",\"sa:haha\",\"Right\",\"37\",\"3\",\"12\",\"6A\",\"C2\",\"C\",\"44\"
\"\",\"\",\"approach-retreat\",\"48\",\"691842\",\"0.0-48.0\",\"\",\"\",\"1-2\",\"5145\",\"40\",\"1\",\"Training\",\"Stims/Figures/128-C-30-3.bmp\",\"za:haha\",\"Up\",\"40\",\"3\",\"13\",\"6A\",\"C2\",\"C\",\"45\"
\"\",\"\",\"approach-retreat\",\"49\",\"698602\",\"0.0-49.0\",\"\",\"\",\"1-2\",\"5250\",\"37\",\"1\",\"Training\",\"Stims/Figures/100-J-10-3.bmp\",\"vasha:va\",\"Left\",\"37\",\"3\",\"14\",\"6A\",\"C1\",\"C\",\"46\"
\"\",\"\",\"approach-retreat\",\"50\",\"706087\",\"0.0-50.0\",\"\",\"\",\"1-2\",\"5972\",\"40\",\"1\",\"Training\",\"Stims/Figures/139-J-0-2.bmp\",\"vafava\",\"Down\",\"40\",\"3\",\"15\",\"6A\",\"C1\",\"C\",\"47\"
\"\",\"\",\"approach-retreat\",\"51\",\"713096\",\"0.0-51.0\",\"\",\"\",\"1-2\",\"5507\",\"39\",\"1\",\"Training\",\"Stims/Figures/139-C-20-2.bmp\",\"zahaha\",\"Left\",\"39\",\"3\",\"16\",\"6A\",\"C2\",\"C\",\"48\"
\"\",\"\",\"approach-retreat\",\"52\",\"718888\",\"0.0-52.0\",\"\",\"\",\"1-2\",\"4288\",\"37\",\"1\",\"Training\",\"Stims/Figures/100-J-10-3.bmp\",\"vasha:va\",\"Left\",\"37\",\"4\",\"1\",\"6A\",\"C1\",\"C\",\"49\"
\"\",\"\",\"approach-retreat\",\"53\",\"727330\",\"0.0-53.0\",\"\",\"\",\"1-2\",\"6933\",\"39\",\"0\",\"Training\",\"Stims/Figures/139-J-0-2.bmp\",\"vafava\",\"Left\",\"37\",\"4\",\"2\",\"6A\",\"C1\",\"C\",\"50\"
\"\",\"\",\"approach-retreat\",\"54\",\"733764\",\"0.0-54.0\",\"\",\"\",\"1-2\",\"4924\",\"38\",\"1\",\"Training\",\"Stims/Figures/128-C-30-3.bmp\",\"za:haha\",\"Down\",\"38\",\"4\",\"3\",\"6A\",\"C2\",\"C\",\"51\"
\"\",\"\",\"approach-retreat\",\"55\",\"740404\",\"0.0-55.0\",\"\",\"\",\"1-2\",\"5132\",\"37\",\"0\",\"Training\",\"Stims/Figures/128-J-10-3.bmp\",\"fashasha\",\"Right\",\"39\",\"4\",\"4\",\"6A\",\"C1\",\"C\",\"52\"
\"\",\"\",\"approach-retreat\",\"56\",\"746434\",\"0.0-56.0\",\"\",\"\",\"1-2\",\"4523\",\"37\",\"1\",\"Training\",\"Stims/Figures/57-C-30-1.bmp\",\"sa:haha\",\"Right\",\"37\",\"4\",\"5\",\"6A\",\"C2\",\"C\",\"53\"
\"\",\"\",\"approach-retreat\",\"57\",\"752601\",\"0.0-57.0\",\"\",\"\",\"1-2\",\"4660\",\"40\",\"1\",\"Training\",\"Stims/Figures/7-J-10-4.bmp\",\"va:fa:sha\",\"Down\",\"40\",\"4\",\"6\",\"6A\",\"C1\",\"C\",\"54\"
\"\",\"\",\"approach-retreat\",\"58\",\"760346\",\"0.0-58.0\",\"\",\"\",\"1-2\",\"6232\",\"40\",\"0\",\"Training\",\"Stims/Figures/57-J-0-1.bmp\",\"fafava\",\"Up\",\"38\",\"4\",\"7\",\"6A\",\"C1\",\"C\",\"55\"
\"\",\"\",\"approach-retreat\",\"59\",\"766933\",\"0.0-59.0\",\"\",\"\",\"1-2\",\"5078\",\"38\",\"0\",\"Training\",\"Stims/Figures/85-J-0-2.bmp\",\"fafa:va\",\"Down\",\"40\",\"4\",\"8\",\"6A\",\"C1\",\"C\",\"56\"
\"\",\"\",\"approach-retreat\",\"60\",\"773307\",\"0.0-60.0\",\"\",\"\",\"1-2\",\"4858\",\"40\",\"1\",\"Training\",\"Stims/Figures/93-C-30-1.bmp\",\"sahaza\",\"Up\",\"40\",\"4\",\"9\",\"6A\",\"C2\",\"C\",\"57\"
\"\",\"\",\"approach-retreat\",\"61\",\"781267\",\"0.0-61.0\",\"\",\"\",\"1-2\",\"6448\",\"39\",\"1\",\"Training\",\"Stims/Figures/100-C-30-3.bmp\",\"zaha:za\",\"Left\",\"39\",\"4\",\"10\",\"6A\",\"C2\",\"C\",\"58\"
\"\",\"\",\"approach-retreat\",\"62\",\"788979\",\"0.0-62.0\",\"\",\"\",\"1-2\",\"6207\",\"38\",\"0\",\"Training\",\"Stims/Figures/85-C-20-2.bmp\",\"sasaza\",\"Up\",\"40\",\"4\",\"11\",\"6A\",\"C2\",\"C\",\"59\"
\"\",\"\",\"approach-retreat\",\"63\",\"796568\",\"0.0-63.0\",\"\",\"\",\"1-2\",\"6083\",\"37\",\"0\",\"Training\",\"Stims/Figures/93-J-0-1.bmp\",\"fasha:va\",\"Right\",\"39\",\"4\",\"12\",\"6A\",\"C1\",\"C\",\"60\"
\"\",\"\",\"approach-retreat\",\"64\",\"803717\",\"0.0-64.0\",\"\",\"\",\"1-2\",\"5636\",\"37\",\"1\",\"Training\",\"Stims/Figures/7-C-20-4.bmp\",\"zaha:ha\",\"Right\",\"37\",\"4\",\"13\",\"6A\",\"C2\",\"C\",\"61\"
\"\",\"\",\"approach-retreat\",\"65\",\"809948\",\"0.0-65.0\",\"\",\"\",\"1-2\",\"4722\",\"39\",\"1\",\"Training\",\"Stims/Figures/139-C-20-2.bmp\",\"zahaha\",\"Left\",\"39\",\"4\",\"14\",\"6A\",\"C2\",\"C\",\"62\"
\"\",\"\",\"approach-retreat\",\"66\",\"816427\",\"0.0-66.0\",\"\",\"\",\"1-2\",\"4972\",\"38\",\"1\",\"Training\",\"Stims/Figures/87-C-20-4.bmp\",\"sa:saha\",\"Down\",\"38\",\"4\",\"15\",\"6A\",\"C2\",\"C\",\"63\"
\"\",\"\",\"approach-retreat\",\"67\",\"823569\",\"0.0-67.0\",\"\",\"\",\"1-2\",\"5638\",\"38\",\"1\",\"Training\",\"Stims/Figures/87-J-10-4.bmp\",\"va:sha:sha\",\"Up\",\"38\",\"4\",\"16\",\"6A\",\"C1\",\"C\",\"64\"
\"\",\"\",\"approach-retreat\",\"68\",\"829480\",\"0.0-68.0\",\"\",\"\",\"1-2\",\"4405\",\"39\",\"1\",\"Training\",\"Stims/Figures/85-C-20-2.bmp\",\"sasaza\",\"Left\",\"39\",\"5\",\"1\",\"6A\",\"C2\",\"C\",\"65\"
\"\",\"\",\"approach-retreat\",\"69\",\"836081\",\"0.0-69.0\",\"\",\"\",\"1-2\",\"5087\",\"40\",\"1\",\"Training\",\"Stims/Figures/128-C-30-3.bmp\",\"za:haha\",\"Up\",\"40\",\"5\",\"2\",\"6A\",\"C2\",\"C\",\"66\"
\"\",\"\",\"approach-retreat\",\"70\",\"842649\",\"0.0-70.0\",\"\",\"\",\"1-2\",\"5064\",\"39\",\"0\",\"Training\",\"Stims/Figures/85-J-0-2.bmp\",\"fafa:va\",\"Left\",\"37\",\"5\",\"3\",\"6A\",\"C1\",\"C\",\"67\"
\"\",\"\",\"approach-retreat\",\"71\",\"849232\",\"0.0-71.0\",\"\",\"\",\"1-2\",\"5079\",\"37\",\"1\",\"Training\",\"Stims/Figures/139-J-0-2.bmp\",\"vafava\",\"Left\",\"37\",\"5\",\"4\",\"6A\",\"C1\",\"C\",\"68\"
\"\",\"\",\"approach-retreat\",\"72\",\"856614\",\"0.0-72.0\",\"\",\"\",\"1-2\",\"5863\",\"37\",\"1\",\"Training\",\"Stims/Figures/7-J-10-4.bmp\",\"va:fa:sha\",\"Left\",\"37\",\"5\",\"5\",\"6A\",\"C1\",\"C\",\"69\"
\"\",\"\",\"approach-retreat\",\"73\",\"862494\",\"0.0-73.0\",\"\",\"\",\"1-2\",\"4368\",\"39\",\"0\",\"Training\",\"Stims/Figures/100-C-30-3.bmp\",\"zaha:za\",\"Right\",\"37\",\"5\",\"6\",\"6A\",\"C2\",\"C\",\"70\"
\"\",\"\",\"approach-retreat\",\"74\",\"868430\",\"0.0-74.0\",\"\",\"\",\"1-2\",\"4425\",\"40\",\"1\",\"Training\",\"Stims/Figures/100-J-10-3.bmp\",\"vasha:va\",\"Down\",\"40\",\"5\",\"7\",\"6A\",\"C1\",\"C\",\"71\"
\"\",\"\",\"approach-retreat\",\"75\",\"875396\",\"0.0-75.0\",\"\",\"\",\"1-2\",\"5455\",\"40\",\"1\",\"Training\",\"Stims/Figures/7-C-20-4.bmp\",\"zaha:ha\",\"Up\",\"40\",\"5\",\"8\",\"6A\",\"C2\",\"C\",\"72\"
\"\",\"\",\"approach-retreat\",\"76\",\"884063\",\"0.0-76.0\",\"\",\"\",\"1-2\",\"7162\",\"40\",\"1\",\"Training\",\"Stims/Figures/87-J-10-4.bmp\",\"va:sha:sha\",\"Down\",\"40\",\"5\",\"9\",\"6A\",\"C1\",\"C\",\"73\"
\"\",\"\",\"approach-retreat\",\"77\",\"891644\",\"0.0-77.0\",\"\",\"\",\"1-2\",\"6077\",\"40\",\"1\",\"Training\",\"Stims/Figures/128-J-10-3.bmp\",\"fashasha\",\"Down\",\"40\",\"5\",\"10\",\"6A\",\"C1\",\"C\",\"74\"
\"\",\"\",\"approach-retreat\",\"78\",\"897717\",\"0.0-78.0\",\"\",\"\",\"1-2\",\"4568\",\"37\",\"1\",\"Training\",\"Stims/Figures/139-C-20-2.bmp\",\"zahaha\",\"Right\",\"37\",\"5\",\"11\",\"6A\",\"C2\",\"C\",\"75\"
\"\",\"\",\"approach-retreat\",\"79\",\"903429\",\"0.0-79.0\",\"\",\"\",\"1-2\",\"4194\",\"37\",\"1\",\"Training\",\"Stims/Figures/93-C-30-1.bmp\",\"sahaza\",\"Right\",\"37\",\"5\",\"12\",\"6A\",\"C2\",\"C\",\"76\"
\"\",\"\",\"approach-retreat\",\"80\",\"910410\",\"0.0-80.0\",\"\",\"\",\"1-2\",\"5476\",\"38\",\"1\",\"Training\",\"Stims/Figures/57-J-0-1.bmp\",\"fafava\",\"Up\",\"38\",\"5\",\"13\",\"6A\",\"C1\",\"C\",\"77\"
\"\",\"\",\"approach-retreat\",\"81\",\"916895\",\"0.0-81.0\",\"\",\"\",\"1-2\",\"4970\",\"37\",\"1\",\"Training\",\"Stims/Figures/57-C-30-1.bmp\",\"sa:haha\",\"Right\",\"37\",\"5\",\"14\",\"6A\",\"C2\",\"C\",\"78\"
\"\",\"\",\"approach-retreat\",\"82\",\"923677\",\"0.0-82.0\",\"\",\"\",\"1-2\",\"5278\",\"38\",\"1\",\"Training\",\"Stims/Figures/93-J-0-1.bmp\",\"fasha:va\",\"Up\",\"38\",\"5\",\"15\",\"6A\",\"C1\",\"C\",\"79\"
\"\",\"\",\"approach-retreat\",\"83\",\"929811\",\"0.0-83.0\",\"\",\"\",\"1-2\",\"4615\",\"38\",\"1\",\"Training\",\"Stims/Figures/87-C-20-4.bmp\",\"sa:saha\",\"Down\",\"38\",\"5\",\"16\",\"6A\",\"C2\",\"C\",\"80\"
\"\",\"\",\"approach-retreat\",\"84\",\"936777\",\"0.0-84.0\",\"\",\"\",\"1-2\",\"5449\",\"37\",\"1\",\"Training\",\"Stims/Figures/57-J-0-1.bmp\",\"fafava\",\"Left\",\"37\",\"6\",\"1\",\"6A\",\"C1\",\"C\",\"81\"
\"\",\"\",\"approach-retreat\",\"85\",\"942678\",\"0.0-85.0\",\"\",\"\",\"1-2\",\"4385\",\"39\",\"1\",\"Training\",\"Stims/Figures/93-C-30-1.bmp\",\"sahaza\",\"Left\",\"39\",\"6\",\"2\",\"6A\",\"C2\",\"C\",\"82\"
\"\",\"\",\"approach-retreat\",\"86\",\"950684\",\"0.0-86.0\",\"\",\"\",\"1-2\",\"6493\",\"40\",\"0\",\"Training\",\"Stims/Figures/139-J-0-2.bmp\",\"vafava\",\"Up\",\"38\",\"6\",\"3\",\"6A\",\"C1\",\"C\",\"83\"
\"\",\"\",\"approach-retreat\",\"87\",\"957329\",\"0.0-87.0\",\"\",\"\",\"1-2\",\"5138\",\"38\",\"1\",\"Training\",\"Stims/Figures/139-C-20-2.bmp\",\"zahaha\",\"Down\",\"38\",\"6\",\"4\",\"6A\",\"C2\",\"C\",\"84\"
\"\",\"\",\"approach-retreat\",\"88\",\"965059\",\"0.0-88.0\",\"\",\"\",\"1-2\",\"6219\",\"39\",\"1\",\"Training\",\"Stims/Figures/93-J-0-1.bmp\",\"fasha:va\",\"Right\",\"39\",\"6\",\"5\",\"6A\",\"C1\",\"C\",\"85\"
\"\",\"\",\"approach-retreat\",\"89\",\"973480\",\"0.0-89.0\",\"\",\"\",\"1-2\",\"6911\",\"38\",\"1\",\"Training\",\"Stims/Figures/128-J-10-3.bmp\",\"fashasha\",\"Up\",\"38\",\"6\",\"6\",\"6A\",\"C1\",\"C\",\"86\"
\"\",\"\",\"approach-retreat\",\"90\",\"979975\",\"0.0-90.0\",\"\",\"\",\"1-2\",\"4992\",\"38\",\"1\",\"Training\",\"Stims/Figures/87-J-10-4.bmp\",\"va:sha:sha\",\"Up\",\"38\",\"6\",\"7\",\"6A\",\"C1\",\"C\",\"87\"
\"\",\"\",\"approach-retreat\",\"91\",\"986794\",\"0.0-91.0\",\"\",\"\",\"1-2\",\"5314\",\"38\",\"1\",\"Training\",\"Stims/Figures/57-C-30-1.bmp\",\"sa:haha\",\"Down\",\"38\",\"6\",\"8\",\"6A\",\"C2\",\"C\",\"88\"
\"\",\"\",\"approach-retreat\",\"92\",\"993507\",\"0.0-92.0\",\"\",\"\",\"1-2\",\"5203\",\"39\",\"1\",\"Training\",\"Stims/Figures/7-J-10-4.bmp\",\"va:fa:sha\",\"Right\",\"39\",\"6\",\"9\",\"6A\",\"C1\",\"C\",\"89\"
\"\",\"\",\"approach-retreat\",\"93\",\"1001830\",\"0.0-93.0\",\"\",\"\",\"1-2\",\"6812\",\"40\",\"0\",\"Training\",\"Stims/Figures/85-C-20-2.bmp\",\"sasaza\",\"Down\",\"38\",\"6\",\"10\",\"6A\",\"C2\",\"C\",\"90\"
\"\",\"\",\"approach-retreat\",\"94\",\"1009342\",\"0.0-94.0\",\"\",\"\",\"1-2\",\"6007\",\"39\",\"1\",\"Training\",\"Stims/Figures/85-J-0-2.bmp\",\"fafa:va\",\"Right\",\"39\",\"6\",\"11\",\"6A\",\"C1\",\"C\",\"91\"
\"\",\"\",\"approach-retreat\",\"95\",\"1016455\",\"0.0-95.0\",\"\",\"\",\"1-2\",\"5605\",\"37\",\"1\",\"Training\",\"Stims/Figures/100-J-10-3.bmp\",\"vasha:va\",\"Left\",\"37\",\"6\",\"12\",\"6A\",\"C1\",\"C\",\"92\"
\"\",\"\",\"approach-retreat\",\"96\",\"1023075\",\"0.0-96.0\",\"\",\"\",\"1-2\",\"5113\",\"40\",\"1\",\"Training\",\"Stims/Figures/100-C-30-3.bmp\",\"zaha:za\",\"Up\",\"40\",\"6\",\"13\",\"6A\",\"C2\",\"C\",\"93\"
\"\",\"\",\"approach-retreat\",\"97\",\"1030140\",\"0.0-97.0\",\"\",\"\",\"1-2\",\"5559\",\"39\",\"1\",\"Training\",\"Stims/Figures/87-C-20-4.bmp\",\"sa:saha\",\"Left\",\"39\",\"6\",\"14\",\"6A\",\"C2\",\"C\",\"94\"
\"\",\"\",\"approach-retreat\",\"98\",\"1036370\",\"0.0-98.0\",\"\",\"\",\"1-2\",\"4716\",\"37\",\"1\",\"Training\",\"Stims/Figures/7-C-20-4.bmp\",\"zaha:ha\",\"Right\",\"37\",\"6\",\"15\",\"6A\",\"C2\",\"C\",\"95\"
\"\",\"\",\"approach-retreat\",\"99\",\"1042318\",\"0.0-99.0\",\"\",\"\",\"1-2\",\"4439\",\"38\",\"1\",\"Training\",\"Stims/Figures/128-C-30-3.bmp\",\"za:haha\",\"Down\",\"38\",\"6\",\"16\",\"6A\",\"C2\",\"C\",\"96\"
\"\",\"\",\"approach-retreat\",\"100\",\"1048603\",\"0.0-100.0\",\"\",\"\",\"1-2\",\"4769\",\"40\",\"1\",\"Training\",\"Stims/Figures/100-C-30-3.bmp\",\"zaha:za\",\"Up\",\"40\",\"7\",\"1\",\"6A\",\"C2\",\"C\",\"97\"
\"\",\"\",\"approach-retreat\",\"101\",\"1059021\",\"0.0-101.0\",\"\",\"\",\"1-2\",\"8908\",\"38\",\"1\",\"Training\",\"Stims/Figures/87-J-10-4.bmp\",\"va:sha:sha\",\"Up\",\"38\",\"7\",\"2\",\"6A\",\"C1\",\"C\",\"98\"
\"\",\"\",\"approach-retreat\",\"102\",\"1065057\",\"0.0-102.0\",\"\",\"\",\"1-2\",\"4528\",\"39\",\"1\",\"Training\",\"Stims/Figures/7-C-20-4.bmp\",\"zaha:ha\",\"Left\",\"39\",\"7\",\"3\",\"6A\",\"C2\",\"C\",\"99\"
\"\",\"\",\"approach-retreat\",\"103\",\"1070907\",\"0.0-103.0\",\"\",\"\",\"1-2\",\"4332\",\"39\",\"1\",\"Training\",\"Stims/Figures/139-C-20-2.bmp\",\"zahaha\",\"Left\",\"39\",\"7\",\"4\",\"6A\",\"C2\",\"C\",\"100\"
\"\",\"\",\"approach-retreat\",\"104\",\"1077142\",\"0.0-104.0\",\"\",\"\",\"1-2\",\"4731\",\"37\",\"1\",\"Training\",\"Stims/Figures/87-C-20-4.bmp\",\"sa:saha\",\"Right\",\"37\",\"7\",\"5\",\"6A\",\"C2\",\"C\",\"101\"
\"\",\"\",\"approach-retreat\",\"105\",\"1084516\",\"0.0-105.0\",\"\",\"\",\"1-2\",\"5869\",\"40\",\"0\",\"Training\",\"Stims/Figures/85-J-0-2.bmp\",\"fafa:va\",\"Up\",\"38\",\"7\",\"6\",\"6A\",\"C1\",\"C\",\"102\"
\"\",\"\",\"approach-retreat\",\"106\",\"1092363\",\"0.0-106.0\",\"\",\"\",\"1-2\",\"6342\",\"40\",\"1\",\"Training\",\"Stims/Figures/57-J-0-1.bmp\",\"fafava\",\"Down\",\"40\",\"7\",\"7\",\"6A\",\"C1\",\"C\",\"103\"
\"\",\"\",\"approach-retreat\",\"107\",\"1098606\",\"0.0-107.0\",\"\",\"\",\"1-2\",\"4734\",\"40\",\"1\",\"Training\",\"Stims/Figures/57-C-30-1.bmp\",\"sa:haha\",\"Up\",\"40\",\"7\",\"8\",\"6A\",\"C2\",\"C\",\"104\"
\"\",\"\",\"approach-retreat\",\"108\",\"1105740\",\"0.0-108.0\",\"\",\"\",\"1-2\",\"5629\",\"40\",\"1\",\"Training\",\"Stims/Figures/128-J-10-3.bmp\",\"fashasha\",\"Down\",\"40\",\"7\",\"9\",\"6A\",\"C1\",\"C\",\"105\"
\"\",\"\",\"approach-retreat\",\"109\",\"1112064\",\"0.0-109.0\",\"\",\"\",\"1-2\",\"4813\",\"37\",\"1\",\"Training\",\"Stims/Figures/93-C-30-1.bmp\",\"sahaza\",\"Right\",\"37\",\"7\",\"10\",\"6A\",\"C2\",\"C\",\"106\"
\"\",\"\",\"approach-retreat\",\"110\",\"1118067\",\"0.0-110.0\",\"\",\"\",\"1-2\",\"4489\",\"38\",\"1\",\"Training\",\"Stims/Figures/85-C-20-2.bmp\",\"sasaza\",\"Down\",\"38\",\"7\",\"11\",\"6A\",\"C2\",\"C\",\"107\"
\"\",\"\",\"approach-retreat\",\"111\",\"1124670\",\"0.0-111.0\",\"\",\"\",\"1-2\",\"5095\",\"40\",\"1\",\"Training\",\"Stims/Figures/7-J-10-4.bmp\",\"va:fa:sha\",\"Down\",\"40\",\"7\",\"12\",\"6A\",\"C1\",\"C\",\"108\"
\"\",\"\",\"approach-retreat\",\"112\",\"1132857\",\"0.0-112.0\",\"\",\"\",\"1-2\",\"6682\",\"39\",\"1\",\"Training\",\"Stims/Figures/93-J-0-1.bmp\",\"fasha:va\",\"Right\",\"39\",\"7\",\"13\",\"6A\",\"C1\",\"C\",\"109\"
\"\",\"\",\"approach-retreat\",\"113\",\"1139659\",\"0.0-113.0\",\"\",\"\",\"1-2\",\"5297\",\"37\",\"1\",\"Training\",\"Stims/Figures/100-J-10-3.bmp\",\"vasha:va\",\"Left\",\"37\",\"7\",\"14\",\"6A\",\"C1\",\"C\",\"110\"
\"\",\"\",\"approach-retreat\",\"114\",\"1146837\",\"0.0-114.0\",\"\",\"\",\"1-2\",\"5663\",\"37\",\"1\",\"Training\",\"Stims/Figures/139-J-0-2.bmp\",\"vafava\",\"Left\",\"37\",\"7\",\"15\",\"6A\",\"C1\",\"C\",\"111\"
\"\",\"\",\"approach-retreat\",\"115\",\"1153304\",\"0.0-115.0\",\"\",\"\",\"1-2\",\"4961\",\"37\",\"1\",\"Training\",\"Stims/Figures/128-C-30-3.bmp\",\"za:haha\",\"Right\",\"37\",\"7\",\"16\",\"6A\",\"C2\",\"C\",\"112\"
\"\",\"\",\"approach-retreat\",\"116\",\"1159931\",\"0.0-116.0\",\"\",\"\",\"1-2\",\"5116\",\"40\",\"1\",\"Training\",\"Stims/Figures/100-J-10-3.bmp\",\"vasha:va\",\"Down\",\"40\",\"8\",\"1\",\"6A\",\"C1\",\"C\",\"113\"
\"\",\"\",\"approach-retreat\",\"117\",\"1166438\",\"0.0-117.0\",\"\",\"\",\"1-2\",\"5004\",\"40\",\"1\",\"Training\",\"Stims/Figures/93-C-30-1.bmp\",\"sahaza\",\"Up\",\"40\",\"8\",\"2\",\"6A\",\"C2\",\"C\",\"114\"
\"\",\"\",\"approach-retreat\",\"118\",\"1172568\",\"0.0-118.0\",\"\",\"\",\"1-2\",\"4625\",\"39\",\"1\",\"Training\",\"Stims/Figures/139-J-0-2.bmp\",\"vafava\",\"Right\",\"39\",\"8\",\"3\",\"6A\",\"C1\",\"C\",\"115\"
\"\",\"\",\"approach-retreat\",\"119\",\"1178895\",\"0.0-119.0\",\"\",\"\",\"1-2\",\"4810\",\"39\",\"1\",\"Training\",\"Stims/Figures/128-C-30-3.bmp\",\"za:haha\",\"Left\",\"39\",\"8\",\"4\",\"6A\",\"C2\",\"C\",\"116\"
\"\",\"\",\"approach-retreat\",\"120\",\"1185167\",\"0.0-120.0\",\"\",\"\",\"1-2\",\"4755\",\"40\",\"1\",\"Training\",\"Stims/Figures/85-C-20-2.bmp\",\"sasaza\",\"Up\",\"40\",\"8\",\"5\",\"6A\",\"C2\",\"C\",\"117\"
\"\",\"\",\"approach-retreat\",\"121\",\"1192601\",\"0.0-121.0\",\"\",\"\",\"1-2\",\"5928\",\"40\",\"1\",\"Training\",\"Stims/Figures/57-J-0-1.bmp\",\"fafava\",\"Down\",\"40\",\"8\",\"6\",\"6A\",\"C1\",\"C\",\"118\"
\"\",\"\",\"approach-retreat\",\"122\",\"1199173\",\"0.0-122.0\",\"\",\"\",\"1-2\",\"5058\",\"40\",\"0\",\"Training\",\"Stims/Figures/85-J-0-2.bmp\",\"fafa:va\",\"Up\",\"38\",\"8\",\"7\",\"6A\",\"C1\",\"C\",\"119\"
\"\",\"\",\"approach-retreat\",\"123\",\"1206292\",\"0.0-123.0\",\"\",\"\",\"1-2\",\"5614\",\"39\",\"1\",\"Training\",\"Stims/Figures/7-C-20-4.bmp\",\"zaha:ha\",\"Left\",\"39\",\"8\",\"8\",\"6A\",\"C2\",\"C\",\"120\"
\"\",\"\",\"approach-retreat\",\"124\",\"1213015\",\"0.0-124.0\",\"\",\"\",\"1-2\",\"5216\",\"38\",\"1\",\"Training\",\"Stims/Figures/87-C-20-4.bmp\",\"sa:saha\",\"Down\",\"38\",\"8\",\"9\",\"6A\",\"C2\",\"C\",\"121\"
\"\",\"\",\"approach-retreat\",\"125\",\"1219344\",\"0.0-125.0\",\"\",\"\",\"1-2\",\"4825\",\"37\",\"1\",\"Training\",\"Stims/Figures/57-C-30-1.bmp\",\"sa:haha\",\"Right\",\"37\",\"8\",\"10\",\"6A\",\"C2\",\"C\",\"122\"
\"\",\"\",\"approach-retreat\",\"126\",\"1225003\",\"0.0-126.0\",\"\",\"\",\"1-2\",\"4146\",\"39\",\"1\",\"Training\",\"Stims/Figures/93-J-0-1.bmp\",\"fasha:va\",\"Right\",\"39\",\"8\",\"11\",\"6A\",\"C1\",\"C\",\"123\"
\"\",\"\",\"approach-retreat\",\"127\",\"1231215\",\"0.0-127.0\",\"\",\"\",\"1-2\",\"4706\",\"37\",\"1\",\"Training\",\"Stims/Figures/100-C-30-3.bmp\",\"zaha:za\",\"Right\",\"37\",\"8\",\"12\",\"6A\",\"C2\",\"C\",\"124\"
\"\",\"\",\"approach-retreat\",\"128\",\"1239244\",\"0.0-128.0\",\"\",\"\",\"1-2\",\"6523\",\"37\",\"1\",\"Training\",\"Stims/Figures/7-J-10-4.bmp\",\"va:fa:sha\",\"Left\",\"37\",\"8\",\"13\",\"6A\",\"C1\",\"C\",\"125\"
\"\",\"\",\"approach-retreat\",\"129\",\"1245607\",\"0.0-129.0\",\"\",\"\",\"1-2\",\"4850\",\"39\",\"1\",\"Training\",\"Stims/Figures/139-C-20-2.bmp\",\"zahaha\",\"Left\",\"39\",\"8\",\"14\",\"6A\",\"C2\",\"C\",\"126\"
\"\",\"\",\"approach-retreat\",\"130\",\"1253198\",\"0.0-130.0\",\"\",\"\",\"1-2\",\"6075\",\"38\",\"1\",\"Training\",\"Stims/Figures/87-J-10-4.bmp\",\"va:sha:sha\",\"Up\",\"38\",\"8\",\"15\",\"6A\",\"C1\",\"C\",\"127\"
\"\",\"\",\"approach-retreat\",\"131\",\"1260152\",\"0.0-131.0\",\"\",\"\",\"1-2\",\"5449\",\"40\",\"1\",\"Training\",\"Stims/Figures/128-J-10-3.bmp\",\"fashasha\",\"Down\",\"40\",\"8\",\"16\",\"6A\",\"C1\",\"C\",\"128\"
\"\",\"\",\"approach-retreat\",\"132\",\"1267264\",\"0.0-132.0\",\"\",\"\",\"1-2\",\"5604\",\"38\",\"1\",\"Training\",\"Stims/Figures/57-J-0-1.bmp\",\"fafava\",\"Up\",\"38\",\"9\",\"1\",\"6A\",\"C1\",\"C\",\"129\"
\"\",\"\",\"approach-retreat\",\"133\",\"1273604\",\"0.0-133.0\",\"\",\"\",\"1-2\",\"4828\",\"40\",\"1\",\"Training\",\"Stims/Figures/128-C-30-3.bmp\",\"za:haha\",\"Up\",\"40\",\"9\",\"2\",\"6A\",\"C2\",\"C\",\"130\"
\"\",\"\",\"approach-retreat\",\"134\",\"1281201\",\"0.0-134.0\",\"\",\"\",\"1-2\",\"6093\",\"40\",\"1\",\"Training\",\"Stims/Figures/87-C-20-4.bmp\",\"sa:saha\",\"Up\",\"40\",\"9\",\"3\",\"6A\",\"C2\",\"C\",\"131\"
\"\",\"\",\"approach-retreat\",\"135\",\"1287130\",\"0.0-135.0\",\"\",\"\",\"1-2\",\"4419\",\"37\",\"1\",\"Training\",\"Stims/Figures/85-C-20-2.bmp\",\"sasaza\",\"Right\",\"37\",\"9\",\"4\",\"6A\",\"C2\",\"C\",\"132\"
\"\",\"\",\"approach-retreat\",\"136\",\"1295247\",\"0.0-136.0\",\"\",\"\",\"1-2\",\"6612\",\"40\",\"1\",\"Training\",\"Stims/Figures/7-J-10-4.bmp\",\"va:fa:sha\",\"Down\",\"40\",\"9\",\"5\",\"6A\",\"C1\",\"C\",\"133\"
\"\",\"\",\"approach-retreat\",\"137\",\"1301481\",\"0.0-137.0\",\"\",\"\",\"1-2\",\"4730\",\"38\",\"1\",\"Training\",\"Stims/Figures/139-C-20-2.bmp\",\"zahaha\",\"Down\",\"38\",\"9\",\"6\",\"6A\",\"C2\",\"C\",\"134\"
\"\",\"\",\"approach-retreat\",\"138\",\"1308555\",\"0.0-138.0\",\"\",\"\",\"1-2\",\"5568\",\"39\",\"1\",\"Training\",\"Stims/Figures/93-C-30-1.bmp\",\"sahaza\",\"Left\",\"39\",\"9\",\"7\",\"6A\",\"C2\",\"C\",\"135\"
\"\",\"\",\"approach-retreat\",\"139\",\"1315013\",\"0.0-139.0\",\"\",\"\",\"1-2\",\"4949\",\"38\",\"1\",\"Training\",\"Stims/Figures/57-C-30-1.bmp\",\"sa:haha\",\"Down\",\"38\",\"9\",\"8\",\"6A\",\"C2\",\"C\",\"136\"
\"\",\"\",\"approach-retreat\",\"140\",\"1322163\",\"0.0-140.0\",\"\",\"\",\"1-2\",\"5645\",\"39\",\"1\",\"Training\",\"Stims/Figures/139-J-0-2.bmp\",\"vafava\",\"Right\",\"39\",\"9\",\"9\",\"6A\",\"C1\",\"C\",\"137\"
\"\",\"\",\"approach-retreat\",\"141\",\"1328927\",\"0.0-141.0\",\"\",\"\",\"1-2\",\"5248\",\"40\",\"1\",\"Training\",\"Stims/Figures/85-J-0-2.bmp\",\"fafa:va\",\"Down\",\"40\",\"9\",\"10\",\"6A\",\"C1\",\"C\",\"138\"
\"\",\"\",\"approach-retreat\",\"142\",\"1336926\",\"0.0-142.0\",\"\",\"\",\"1-2\",\"6486\",\"39\",\"1\",\"Training\",\"Stims/Figures/93-J-0-1.bmp\",\"fasha:va\",\"Right\",\"39\",\"9\",\"11\",\"6A\",\"C1\",\"C\",\"139\"
\"\",\"\",\"approach-retreat\",\"143\",\"1344062\",\"0.0-143.0\",\"\",\"\",\"1-2\",\"5623\",\"37\",\"1\",\"Training\",\"Stims/Figures/100-J-10-3.bmp\",\"vasha:va\",\"Left\",\"37\",\"9\",\"12\",\"6A\",\"C1\",\"C\",\"140\"
\"\",\"\",\"approach-retreat\",\"144\",\"1350943\",\"0.0-144.0\",\"\",\"\",\"1-2\",\"5367\",\"39\",\"1\",\"Training\",\"Stims/Figures/87-J-10-4.bmp\",\"va:sha:sha\",\"Right\",\"39\",\"9\",\"13\",\"6A\",\"C1\",\"C\",\"141\"
\"\",\"\",\"approach-retreat\",\"145\",\"1357672\",\"0.0-145.0\",\"\",\"\",\"1-2\",\"5221\",\"40\",\"1\",\"Training\",\"Stims/Figures/100-C-30-3.bmp\",\"zaha:za\",\"Up\",\"40\",\"9\",\"14\",\"6A\",\"C2\",\"C\",\"142\"
\"\",\"\",\"approach-retreat\",\"146\",\"1364192\",\"0.0-146.0\",\"\",\"\",\"1-2\",\"5010\",\"37\",\"1\",\"Training\",\"Stims/Figures/128-J-10-3.bmp\",\"fashasha\",\"Left\",\"37\",\"9\",\"15\",\"6A\",\"C1\",\"C\",\"143\"
\"\",\"\",\"approach-retreat\",\"147\",\"1371331\",\"0.0-147.0\",\"\",\"\",\"1-2\",\"5635\",\"39\",\"1\",\"Training\",\"Stims/Figures/7-C-20-4.bmp\",\"zaha:ha\",\"Left\",\"39\",\"9\",\"16\",\"6A\",\"C2\",\"C\",\"144\"
\"20138\",\"\",\"instructions\",\"148\",\"1391469\",\"0.0-148.0\",\"[{\"\"page_index\"\":0,\"\"viewing_time\"\":20138}]\",\"\",\"\",\"\",\"\",\"\",\"\",\"\",\"\",\"\",\"\",\"\",\"\",\"\",\"\",\"\",\"\"
\"\",\"\",\"approach-retreat\",\"149\",\"1399468\",\"0.0-149.0\",\"\",\"\",\"1-2\",\"6484\",\"39\",\"0\",\"Testing\",\"Stims/Figures/7-J-10-4.bmp\",\"va:fa:sha\",\"Left\",\"37\",\"1\",\"1\",\"6A\",\"C1\",\"C\",\"1\"
\"\",\"\",\"approach-retreat\",\"150\",\"1405757\",\"0.0-150.0\",\"\",\"\",\"1-2\",\"4777\",\"40\",\"1\",\"Testing\",\"Stims/Figures/27-J-0-1.bmp\",\"va:fava\",\"Down\",\"40\",\"1\",\"2\",\"6A\",\"C1\",\"C\",\"2\"
\"\",\"\",\"approach-retreat\",\"151\",\"1413598\",\"0.0-151.0\",\"\",\"\",\"1-2\",\"6331\",\"38\",\"1\",\"Testing\",\"Stims/Figures/118-J-0-2.bmp\",\"fa:sha:sha\",\"Up\",\"38\",\"1\",\"3\",\"6A\",\"C1\",\"C\",\"3\"
\"\",\"\",\"approach-retreat\",\"152\",\"1421525\",\"0.0-152.0\",\"\",\"\",\"1-2\",\"6414\",\"38\",\"1\",\"Testing\",\"Stims/Figures/74-C-20-4.bmp\",\"sasaha\",\"Down\",\"38\",\"1\",\"4\",\"6A\",\"C2\",\"C\",\"4\"
\"\",\"\",\"approach-retreat\",\"153\",\"1427939\",\"0.0-153.0\",\"\",\"\",\"1-2\",\"4908\",\"40\",\"1\",\"Testing\",\"Stims/Figures/139-C-20-2.bmp\",\"zahaha\",\"Up\",\"40\",\"1\",\"5\",\"6A\",\"C2\",\"C\",\"5\"
\"\",\"\",\"approach-retreat\",\"154\",\"1434677\",\"0.0-154.0\",\"\",\"\",\"1-2\",\"5232\",\"39\",\"1\",\"Testing\",\"Stims/Figures/57-J-0-1.bmp\",\"fafava\",\"Right\",\"39\",\"1\",\"6\",\"6A\",\"C1\",\"C\",\"6\"
\"\",\"\",\"approach-retreat\",\"155\",\"1442410\",\"0.0-155.0\",\"\",\"\",\"1-2\",\"6214\",\"40\",\"0\",\"Testing\",\"Stims/Figures/128-C-30-3.bmp\",\"za:haha\",\"Down\",\"38\",\"1\",\"7\",\"6A\",\"C2\",\"C\",\"7\"
\"\",\"\",\"approach-retreat\",\"156\",\"1448969\",\"0.0-156.0\",\"\",\"\",\"1-2\",\"5052\",\"39\",\"1\",\"Testing\",\"Stims/Figures/27-C-30-1.bmp\",\"sasa:za\",\"Left\",\"39\",\"1\",\"8\",\"6A\",\"C2\",\"C\",\"8\"
\"\",\"\",\"approach-retreat\",\"157\",\"1454883\",\"0.0-157.0\",\"\",\"\",\"1-2\",\"4395\",\"37\",\"1\",\"Testing\",\"Stims/Figures/87-C-20-4.bmp\",\"sa:saha\",\"Right\",\"37\",\"1\",\"9\",\"6A\",\"C2\",\"C\",\"9\"
\"\",\"\",\"approach-retreat\",\"158\",\"1461220\",\"0.0-158.0\",\"\",\"\",\"1-2\",\"4816\",\"40\",\"1\",\"Testing\",\"Stims/Figures/44-C-30-3.bmp\",\"za:sa:za\",\"Up\",\"40\",\"1\",\"10\",\"6A\",\"C2\",\"C\",\"10\"
\"\",\"\",\"approach-retreat\",\"159\",\"1469969\",\"0.0-159.0\",\"\",\"\",\"1-2\",\"7234\",\"40\",\"0\",\"Testing\",\"Stims/Figures/85-C-20-2.bmp\",\"sasaza\",\"Down\",\"38\",\"1\",\"11\",\"6A\",\"C2\",\"C\",\"11\"
\"\",\"\",\"approach-retreat\",\"160\",\"1475928\",\"0.0-160.0\",\"\",\"\",\"1-2\",\"4442\",\"39\",\"1\",\"Testing\",\"Stims/Figures/93-C-30-1.bmp\",\"sahaza\",\"Left\",\"39\",\"1\",\"12\",\"6A\",\"C2\",\"C\",\"12\"
\"\",\"\",\"approach-retreat\",\"161\",\"1482715\",\"0.0-161.0\",\"\",\"\",\"1-2\",\"5278\",\"39\",\"1\",\"Testing\",\"Stims/Figures/139-J-0-2.bmp\",\"vafava\",\"Right\",\"39\",\"1\",\"13\",\"6A\",\"C1\",\"C\",\"13\"
\"\",\"\",\"approach-retreat\",\"162\",\"1490056\",\"0.0-162.0\",\"\",\"\",\"1-2\",\"5825\",\"40\",\"1\",\"Testing\",\"Stims/Figures/100-J-10-3.bmp\",\"vasha:va\",\"Down\",\"40\",\"1\",\"14\",\"6A\",\"C1\",\"C\",\"14\"
\"\",\"\",\"approach-retreat\",\"163\",\"1497135\",\"0.0-163.0\",\"\",\"\",\"1-2\",\"5563\",\"38\",\"1\",\"Testing\",\"Stims/Figures/87-J-10-4.bmp\",\"va:sha:sha\",\"Up\",\"38\",\"1\",\"15\",\"6A\",\"C1\",\"C\",\"15\"
\"\",\"\",\"approach-retreat\",\"164\",\"1506211\",\"0.0-164.0\",\"\",\"\",\"1-2\",\"7564\",\"37\",\"1\",\"Testing\",\"Stims/Figures/74-J-10-4.bmp\",\"va:fa:va\",\"Left\",\"37\",\"1\",\"16\",\"6A\",\"C1\",\"C\",\"16\"
\"\",\"\",\"approach-retreat\",\"165\",\"1512093\",\"0.0-165.0\",\"\",\"\",\"1-2\",\"4375\",\"37\",\"1\",\"Testing\",\"Stims/Figures/93-J-0-1.bmp\",\"fasha:va\",\"Left\",\"37\",\"1\",\"17\",\"6A\",\"C1\",\"C\",\"17\"
\"\",\"\",\"approach-retreat\",\"166\",\"1518714\",\"0.0-166.0\",\"\",\"\",\"1-2\",\"5109\",\"37\",\"1\",\"Testing\",\"Stims/Figures/57-C-30-1.bmp\",\"sa:haha\",\"Right\",\"37\",\"1\",\"18\",\"6A\",\"C2\",\"C\",\"18\"
\"\",\"\",\"approach-retreat\",\"167\",\"1524954\",\"0.0-167.0\",\"\",\"\",\"1-2\",\"4731\",\"40\",\"1\",\"Testing\",\"Stims/Figures/100-C-30-3.bmp\",\"zaha:za\",\"Up\",\"40\",\"1\",\"19\",\"6A\",\"C2\",\"C\",\"19\"
\"\",\"\",\"approach-retreat\",\"168\",\"1531347\",\"0.0-168.0\",\"\",\"\",\"1-2\",\"4887\",\"37\",\"1\",\"Testing\",\"Stims/Figures/118-C-20-2.bmp\",\"zasaza\",\"Right\",\"37\",\"1\",\"20\",\"6A\",\"C2\",\"C\",\"20\"
\"\",\"\",\"approach-retreat\",\"169\",\"1537859\",\"0.0-169.0\",\"\",\"\",\"1-2\",\"5007\",\"40\",\"1\",\"Testing\",\"Stims/Figures/85-J-0-2.bmp\",\"fafa:va\",\"Down\",\"40\",\"1\",\"21\",\"6A\",\"C1\",\"C\",\"21\"
\"\",\"\",\"approach-retreat\",\"170\",\"1544465\",\"0.0-170.0\",\"\",\"\",\"1-2\",\"5089\",\"40\",\"0\",\"Testing\",\"Stims/Figures/44-J-10-3.bmp\",\"fa:fava\",\"Up\",\"38\",\"1\",\"22\",\"6A\",\"C1\",\"C\",\"22\"
\"\",\"\",\"approach-retreat\",\"171\",\"1550767\",\"0.0-171.0\",\"\",\"\",\"1-2\",\"4786\",\"39\",\"1\",\"Testing\",\"Stims/Figures/128-J-10-3.bmp\",\"fashasha\",\"Right\",\"39\",\"1\",\"23\",\"6A\",\"C1\",\"C\",\"23\"
\"\",\"\",\"approach-retreat\",\"172\",\"1557223\",\"0.0-172.0\",\"\",\"\",\"1-2\",\"4949\",\"39\",\"1\",\"Testing\",\"Stims/Figures/7-C-20-4.bmp\",\"zaha:ha\",\"Left\",\"39\",\"1\",\"24\",\"6A\",\"C2\",\"C\",\"24\"
\"\",\"\",\"approach-retreat\",\"173\",\"1563503\",\"0.0-173.0\",\"\",\"\",\"1-2\",\"4774\",\"40\",\"1\",\"Testing\",\"Stims/Figures/118-J-0-2.bmp\",\"fa:sha:sha\",\"Down\",\"40\",\"2\",\"1\",\"6A\",\"C1\",\"C\",\"25\"
\"\",\"\",\"approach-retreat\",\"174\",\"1570535\",\"0.0-174.0\",\"\",\"\",\"1-2\",\"5511\",\"37\",\"1\",\"Testing\",\"Stims/Figures/128-C-30-3.bmp\",\"za:haha\",\"Right\",\"37\",\"2\",\"2\",\"6A\",\"C2\",\"C\",\"26\"
\"\",\"\",\"approach-retreat\",\"175\",\"1576897\",\"0.0-175.0\",\"\",\"\",\"1-2\",\"4845\",\"40\",\"1\",\"Testing\",\"Stims/Figures/93-J-0-1.bmp\",\"fasha:va\",\"Down\",\"40\",\"2\",\"3\",\"6A\",\"C1\",\"C\",\"27\"
\"\",\"\",\"approach-retreat\",\"176\",\"1583310\",\"0.0-176.0\",\"\",\"\",\"1-2\",\"4897\",\"37\",\"1\",\"Testing\",\"Stims/Figures/85-J-0-2.bmp\",\"fafa:va\",\"Left\",\"37\",\"2\",\"4\",\"6A\",\"C1\",\"C\",\"28\"
\"\",\"\",\"approach-retreat\",\"177\",\"1589679\",\"0.0-177.0\",\"\",\"\",\"1-2\",\"4857\",\"39\",\"1\",\"Testing\",\"Stims/Figures/27-J-0-1.bmp\",\"va:fava\",\"Right\",\"39\",\"2\",\"5\",\"6A\",\"C1\",\"C\",\"29\"
\"\",\"\",\"approach-retreat\",\"178\",\"1596535\",\"0.0-178.0\",\"\",\"\",\"1-2\",\"5350\",\"37\",\"1\",\"Testing\",\"Stims/Figures/57-C-30-1.bmp\",\"sa:haha\",\"Right\",\"37\",\"2\",\"6\",\"6A\",\"C2\",\"C\",\"30\"
\"\",\"\",\"approach-retreat\",\"179\",\"1602801\",\"0.0-179.0\",\"\",\"\",\"1-2\",\"4759\",\"40\",\"1\",\"Testing\",\"Stims/Figures/100-C-30-3.bmp\",\"zaha:za\",\"Up\",\"40\",\"2\",\"7\",\"6A\",\"C2\",\"C\",\"31\"
\"\",\"\",\"approach-retreat\",\"180\",\"1609489\",\"0.0-180.0\",\"\",\"\",\"1-2\",\"5182\",\"39\",\"1\",\"Testing\",\"Stims/Figures/139-C-20-2.bmp\",\"zahaha\",\"Left\",\"39\",\"2\",\"8\",\"6A\",\"C2\",\"C\",\"32\"
\"\",\"\",\"approach-retreat\",\"181\",\"1617954\",\"0.0-181.0\",\"\",\"\",\"1-2\",\"6946\",\"40\",\"1\",\"Testing\",\"Stims/Figures/93-C-30-1.bmp\",\"sahaza\",\"Up\",\"40\",\"2\",\"9\",\"6A\",\"C2\",\"C\",\"33\"
\"\",\"\",\"approach-retreat\",\"182\",\"1627355\",\"0.0-182.0\",\"\",\"\",\"1-2\",\"7886\",\"39\",\"1\",\"Testing\",\"Stims/Figures/100-J-10-3.bmp\",\"vasha:va\",\"Right\",\"39\",\"2\",\"10\",\"6A\",\"C1\",\"C\",\"34\"
\"\",\"\",\"approach-retreat\",\"183\",\"1635121\",\"0.0-183.0\",\"\",\"\",\"1-2\",\"6260\",\"38\",\"1\",\"Testing\",\"Stims/Figures/87-J-10-4.bmp\",\"va:sha:sha\",\"Up\",\"38\",\"2\",\"11\",\"6A\",\"C1\",\"C\",\"35\"
\"\",\"\",\"approach-retreat\",\"184\",\"1641384\",\"0.0-184.0\",\"\",\"\",\"1-2\",\"4755\",\"37\",\"1\",\"Testing\",\"Stims/Figures/128-J-10-3.bmp\",\"fashasha\",\"Left\",\"37\",\"2\",\"12\",\"6A\",\"C1\",\"C\",\"36\"
\"\",\"\",\"approach-retreat\",\"185\",\"1648705\",\"0.0-185.0\",\"\",\"\",\"1-2\",\"5801\",\"38\",\"1\",\"Testing\",\"Stims/Figures/139-J-0-2.bmp\",\"vafava\",\"Up\",\"38\",\"2\",\"13\",\"6A\",\"C1\",\"C\",\"37\"
\"\",\"\",\"approach-retreat\",\"186\",\"1655281\",\"0.0-186.0\",\"\",\"\",\"1-2\",\"5058\",\"37\",\"1\",\"Testing\",\"Stims/Figures/87-C-20-4.bmp\",\"sa:saha\",\"Right\",\"37\",\"2\",\"14\",\"6A\",\"C2\",\"C\",\"38\"
\"\",\"\",\"approach-retreat\",\"187\",\"1661254\",\"0.0-187.0\",\"\",\"\",\"1-2\",\"4457\",\"37\",\"1\",\"Testing\",\"Stims/Figures/44-C-30-3.bmp\",\"za:sa:za\",\"Right\",\"37\",\"2\",\"15\",\"6A\",\"C2\",\"C\",\"39\"
\"\",\"\",\"approach-retreat\",\"188\",\"1668466\",\"0.0-188.0\",\"\",\"\",\"1-2\",\"5697\",\"39\",\"0\",\"Testing\",\"Stims/Figures/44-J-10-3.bmp\",\"fa:fava\",\"Left\",\"37\",\"2\",\"16\",\"6A\",\"C1\",\"C\",\"40\"
\"\",\"\",\"approach-retreat\",\"189\",\"1675688\",\"0.0-189.0\",\"\",\"\",\"1-2\",\"5708\",\"40\",\"1\",\"Testing\",\"Stims/Figures/74-C-20-4.bmp\",\"sasaha\",\"Up\",\"40\",\"2\",\"17\",\"6A\",\"C2\",\"C\",\"41\"
\"\",\"\",\"approach-retreat\",\"190\",\"1684402\",\"0.0-190.0\",\"\",\"\",\"1-2\",\"7202\",\"38\",\"0\",\"Testing\",\"Stims/Figures/7-J-10-4.bmp\",\"va:fa:sha\",\"Down\",\"40\",\"2\",\"18\",\"6A\",\"C1\",\"C\",\"42\"
\"\",\"\",\"approach-retreat\",\"191\",\"1691024\",\"0.0-191.0\",\"\",\"\",\"1-2\",\"5106\",\"38\",\"0\",\"Testing\",\"Stims/Figures/85-C-20-2.bmp\",\"sasaza\",\"Up\",\"40\",\"2\",\"19\",\"6A\",\"C2\",\"C\",\"43\"
\"\",\"\",\"approach-retreat\",\"192\",\"1696936\",\"0.0-192.0\",\"\",\"\",\"1-2\",\"4402\",\"38\",\"1\",\"Testing\",\"Stims/Figures/27-C-30-1.bmp\",\"sasa:za\",\"Down\",\"38\",\"2\",\"20\",\"6A\",\"C2\",\"C\",\"44\"
\"\",\"\",\"approach-retreat\",\"193\",\"1702789\",\"0.0-193.0\",\"\",\"\",\"1-2\",\"4339\",\"39\",\"1\",\"Testing\",\"Stims/Figures/7-C-20-4.bmp\",\"zaha:ha\",\"Left\",\"39\",\"2\",\"21\",\"6A\",\"C2\",\"C\",\"45\"
\"\",\"\",\"approach-retreat\",\"194\",\"1708628\",\"0.0-194.0\",\"\",\"\",\"1-2\",\"4321\",\"37\",\"1\",\"Testing\",\"Stims/Figures/57-J-0-1.bmp\",\"fafava\",\"Left\",\"37\",\"2\",\"22\",\"6A\",\"C1\",\"C\",\"46\"
\"\",\"\",\"approach-retreat\",\"195\",\"1714861\",\"0.0-195.0\",\"\",\"\",\"1-2\",\"4720\",\"40\",\"1\",\"Testing\",\"Stims/Figures/74-J-10-4.bmp\",\"va:fa:va\",\"Down\",\"40\",\"2\",\"23\",\"6A\",\"C1\",\"C\",\"47\"
\"\",\"\",\"approach-retreat\",\"196\",\"1720703\",\"0.0-196.0\",\"\",\"\",\"1-2\",\"4330\",\"38\",\"1\",\"Testing\",\"Stims/Figures/118-C-20-2.bmp\",\"zasaza\",\"Down\",\"38\",\"2\",\"24\",\"6A\",\"C2\",\"C\",\"48\"
\"\",\"\",\"approach-retreat\",\"197\",\"1726829\",\"0.0-197.0\",\"\",\"\",\"1-2\",\"4619\",\"39\",\"1\",\"Testing\",\"Stims/Figures/7-C-20-4.bmp\",\"zaha:ha\",\"Left\",\"39\",\"3\",\"1\",\"6A\",\"C2\",\"C\",\"49\"
\"\",\"\",\"approach-retreat\",\"198\",\"1733267\",\"0.0-198.0\",\"\",\"\",\"1-2\",\"4929\",\"40\",\"0\",\"Testing\",\"Stims/Figures/44-J-10-3.bmp\",\"fa:fava\",\"Up\",\"38\",\"3\",\"2\",\"6A\",\"C1\",\"C\",\"50\"
\"\",\"\",\"approach-retreat\",\"199\",\"1740060\",\"0.0-199.0\",\"\",\"\",\"1-2\",\"5277\",\"38\",\"1\",\"Testing\",\"Stims/Figures/85-J-0-2.bmp\",\"fafa:va\",\"Up\",\"38\",\"3\",\"3\",\"6A\",\"C1\",\"C\",\"51\"
\"\",\"\",\"approach-retreat\",\"200\",\"1746565\",\"0.0-200.0\",\"\",\"\",\"1-2\",\"4997\",\"37\",\"0\",\"Testing\",\"Stims/Figures/7-J-10-4.bmp\",\"va:fa:sha\",\"Right\",\"39\",\"3\",\"4\",\"6A\",\"C1\",\"C\",\"52\"
\"\",\"\",\"approach-retreat\",\"201\",\"1755665\",\"0.0-201.0\",\"\",\"\",\"1-2\",\"7592\",\"38\",\"1\",\"Testing\",\"Stims/Figures/57-J-0-1.bmp\",\"fafava\",\"Up\",\"38\",\"3\",\"5\",\"6A\",\"C1\",\"C\",\"53\"
\"\",\"\",\"approach-retreat\",\"202\",\"1761770\",\"0.0-202.0\",\"\",\"\",\"1-2\",\"4598\",\"40\",\"1\",\"Testing\",\"Stims/Figures/93-J-0-1.bmp\",\"fasha:va\",\"Down\",\"40\",\"3\",\"6\",\"6A\",\"C1\",\"C\",\"54\"
\"\",\"\",\"approach-retreat\",\"203\",\"1768577\",\"0.0-203.0\",\"\",\"\",\"1-2\",\"5302\",\"40\",\"1\",\"Testing\",\"Stims/Figures/118-J-0-2.bmp\",\"fa:sha:sha\",\"Down\",\"40\",\"3\",\"7\",\"6A\",\"C1\",\"C\",\"55\"
\"\",\"\",\"approach-retreat\",\"204\",\"1774704\",\"0.0-204.0\",\"\",\"\",\"1-2\",\"4608\",\"40\",\"1\",\"Testing\",\"Stims/Figures/27-J-0-1.bmp\",\"va:fava\",\"Down\",\"40\",\"3\",\"8\",\"6A\",\"C1\",\"C\",\"56\"
\"\",\"\",\"approach-retreat\",\"205\",\"1780831\",\"0.0-205.0\",\"\",\"\",\"1-2\",\"4617\",\"37\",\"1\",\"Testing\",\"Stims/Figures/93-C-30-1.bmp\",\"sahaza\",\"Right\",\"37\",\"3\",\"9\",\"6A\",\"C2\",\"C\",\"57\"
\"\",\"\",\"approach-retreat\",\"206\",\"1788176\",\"0.0-206.0\",\"\",\"\",\"1-2\",\"5838\",\"39\",\"1\",\"Testing\",\"Stims/Figures/118-C-20-2.bmp\",\"zasaza\",\"Left\",\"39\",\"3\",\"10\",\"6A\",\"C2\",\"C\",\"58\"
\"\",\"\",\"approach-retreat\",\"207\",\"1798318\",\"0.0-207.0\",\"\",\"\",\"1-2\",\"8634\",\"40\",\"0\",\"Testing\",\"Stims/Figures/100-J-10-3.bmp\",\"vasha:va\",\"Up\",\"38\",\"3\",\"11\",\"6A\",\"C1\",\"C\",\"59\"
\"\",\"\",\"approach-retreat\",\"208\",\"1804608\",\"0.0-208.0\",\"\",\"\",\"1-2\",\"4776\",\"40\",\"1\",\"Testing\",\"Stims/Figures/57-C-30-1.bmp\",\"sa:haha\",\"Up\",\"40\",\"3\",\"12\",\"6A\",\"C2\",\"C\",\"60\"
\"\",\"\",\"approach-retreat\",\"209\",\"1811109\",\"0.0-209.0\",\"\",\"\",\"1-2\",\"4987\",\"37\",\"1\",\"Testing\",\"Stims/Figures/139-C-20-2.bmp\",\"zahaha\",\"Right\",\"37\",\"3\",\"13\",\"6A\",\"C2\",\"C\",\"61\"
\"\",\"\",\"approach-retreat\",\"210\",\"1817049\",\"0.0-210.0\",\"\",\"\",\"1-2\",\"4423\",\"39\",\"0\",\"Testing\",\"Stims/Figures/85-C-20-2.bmp\",\"sasaza\",\"Right\",\"37\",\"3\",\"14\",\"6A\",\"C2\",\"C\",\"62\"
\"\",\"\",\"approach-retreat\",\"211\",\"1825598\",\"0.0-211.0\",\"\",\"\",\"1-2\",\"7037\",\"39\",\"0\",\"Testing\",\"Stims/Figures/87-J-10-4.bmp\",\"va:sha:sha\",\"Left\",\"37\",\"3\",\"15\",\"6A\",\"C1\",\"C\",\"63\"
\"\",\"\",\"approach-retreat\",\"212\",\"1831622\",\"0.0-212.0\",\"\",\"\",\"1-2\",\"4521\",\"40\",\"1\",\"Testing\",\"Stims/Figures/100-C-30-3.bmp\",\"zaha:za\",\"Up\",\"40\",\"3\",\"16\",\"6A\",\"C2\",\"C\",\"64\"
\"\",\"\",\"approach-retreat\",\"213\",\"1837940\",\"0.0-213.0\",\"\",\"\",\"1-2\",\"4803\",\"39\",\"1\",\"Testing\",\"Stims/Figures/139-J-0-2.bmp\",\"vafava\",\"Right\",\"39\",\"3\",\"17\",\"6A\",\"C1\",\"C\",\"65\"
\"\",\"\",\"approach-retreat\",\"214\",\"1843830\",\"0.0-214.0\",\"\",\"\",\"1-2\",\"4384\",\"37\",\"1\",\"Testing\",\"Stims/Figures/74-C-20-4.bmp\",\"sasaha\",\"Right\",\"37\",\"3\",\"18\",\"6A\",\"C2\",\"C\",\"66\"
\"\",\"\",\"approach-retreat\",\"215\",\"1851562\",\"0.0-215.0\",\"\",\"\",\"1-2\",\"6226\",\"39\",\"1\",\"Testing\",\"Stims/Figures/27-C-30-1.bmp\",\"sasa:za\",\"Left\",\"39\",\"3\",\"19\",\"6A\",\"C2\",\"C\",\"67\"
\"\",\"\",\"approach-retreat\",\"216\",\"1858490\",\"0.0-216.0\",\"\",\"\",\"1-2\",\"5420\",\"37\",\"1\",\"Testing\",\"Stims/Figures/128-J-10-3.bmp\",\"fashasha\",\"Left\",\"37\",\"3\",\"20\",\"6A\",\"C1\",\"C\",\"68\"
\"\",\"\",\"approach-retreat\",\"217\",\"1864726\",\"0.0-217.0\",\"\",\"\",\"1-2\",\"4729\",\"39\",\"1\",\"Testing\",\"Stims/Figures/128-C-30-3.bmp\",\"za:haha\",\"Left\",\"39\",\"3\",\"21\",\"6A\",\"C2\",\"C\",\"69\"
\"\",\"\",\"approach-retreat\",\"218\",\"1870547\",\"0.0-218.0\",\"\",\"\",\"1-2\",\"4309\",\"38\",\"1\",\"Testing\",\"Stims/Figures/44-C-30-3.bmp\",\"za:sa:za\",\"Down\",\"38\",\"3\",\"22\",\"6A\",\"C2\",\"C\",\"70\"
\"\",\"\",\"approach-retreat\",\"219\",\"1876981\",\"0.0-219.0\",\"\",\"\",\"1-2\",\"4918\",\"40\",\"1\",\"Testing\",\"Stims/Figures/74-J-10-4.bmp\",\"va:fa:va\",\"Down\",\"40\",\"3\",\"23\",\"6A\",\"C1\",\"C\",\"71\"
\"\",\"\",\"approach-retreat\",\"220\",\"1882922\",\"0.0-220.0\",\"\",\"\",\"1-2\",\"4432\",\"38\",\"1\",\"Testing\",\"Stims/Figures/87-C-20-4.bmp\",\"sa:saha\",\"Down\",\"38\",\"3\",\"24\",\"6A\",\"C2\",\"C\",\"72\"
\"\",\"\",\"approach-retreat\",\"221\",\"1890543\",\"0.0-221.0\",\"\",\"\",\"1-2\",\"6106\",\"38\",\"0\",\"Testing\",\"Stims/Figures/100-J-10-3.bmp\",\"vasha:va\",\"Down\",\"40\",\"4\",\"1\",\"6A\",\"C1\",\"C\",\"73\"
\"\",\"\",\"approach-retreat\",\"222\",\"1896593\",\"0.0-222.0\",\"\",\"\",\"1-2\",\"4532\",\"37\",\"1\",\"Testing\",\"Stims/Figures/118-C-20-2.bmp\",\"zasaza\",\"Right\",\"37\",\"4\",\"2\",\"6A\",\"C2\",\"C\",\"74\"
\"\",\"\",\"approach-retreat\",\"223\",\"1902714\",\"0.0-223.0\",\"\",\"\",\"1-2\",\"4607\",\"39\",\"1\",\"Testing\",\"Stims/Figures/139-C-20-2.bmp\",\"zahaha\",\"Left\",\"39\",\"4\",\"3\",\"6A\",\"C2\",\"C\",\"75\"
\"\",\"\",\"approach-retreat\",\"224\",\"1909239\",\"0.0-224.0\",\"\",\"\",\"1-2\",\"5017\",\"37\",\"1\",\"Testing\",\"Stims/Figures/27-J-0-1.bmp\",\"va:fava\",\"Left\",\"37\",\"4\",\"4\",\"6A\",\"C1\",\"C\",\"76\"
\"\",\"\",\"approach-retreat\",\"225\",\"1917259\",\"0.0-225.0\",\"\",\"\",\"1-2\",\"6507\",\"40\",\"0\",\"Testing\",\"Stims/Figures/139-J-0-2.bmp\",\"vafava\",\"Up\",\"38\",\"4\",\"5\",\"6A\",\"C1\",\"C\",\"77\"
\"\",\"\",\"approach-retreat\",\"226\",\"1923144\",\"0.0-226.0\",\"\",\"\",\"1-2\",\"4378\",\"38\",\"0\",\"Testing\",\"Stims/Figures/44-J-10-3.bmp\",\"fa:fava\",\"Down\",\"40\",\"4\",\"6\",\"6A\",\"C1\",\"C\",\"78\"
\"\",\"\",\"approach-retreat\",\"227\",\"1929453\",\"0.0-227.0\",\"\",\"\",\"1-2\",\"4792\",\"39\",\"1\",\"Testing\",\"Stims/Figures/74-C-20-4.bmp\",\"sasaha\",\"Left\",\"39\",\"4\",\"7\",\"6A\",\"C2\",\"C\",\"79\"
\"\",\"\",\"approach-retreat\",\"228\",\"1935651\",\"0.0-228.0\",\"\",\"\",\"1-2\",\"4684\",\"37\",\"1\",\"Testing\",\"Stims/Figures/118-J-0-2.bmp\",\"fa:sha:sha\",\"Left\",\"37\",\"4\",\"8\",\"6A\",\"C1\",\"C\",\"80\"
\"\",\"\",\"approach-retreat\",\"229\",\"1941391\",\"0.0-229.0\",\"\",\"\",\"1-2\",\"4222\",\"39\",\"1\",\"Testing\",\"Stims/Figures/44-C-30-3.bmp\",\"za:sa:za\",\"Left\",\"39\",\"4\",\"9\",\"6A\",\"C2\",\"C\",\"81\"
\"\",\"\",\"approach-retreat\",\"230\",\"1947429\",\"0.0-230.0\",\"\",\"\",\"1-2\",\"4530\",\"37\",\"0\",\"Testing\",\"Stims/Figures/128-J-10-3.bmp\",\"fashasha\",\"Right\",\"39\",\"4\",\"10\",\"6A\",\"C1\",\"C\",\"82\"
\"\",\"\",\"approach-retreat\",\"231\",\"1953565\",\"0.0-231.0\",\"\",\"\",\"1-2\",\"4630\",\"37\",\"1\",\"Testing\",\"Stims/Figures/100-C-30-3.bmp\",\"zaha:za\",\"Right\",\"37\",\"4\",\"11\",\"6A\",\"C2\",\"C\",\"83\"
\"\",\"\",\"approach-retreat\",\"232\",\"1962045\",\"0.0-232.0\",\"\",\"\",\"1-2\",\"6970\",\"40\",\"0\",\"Testing\",\"Stims/Figures/85-J-0-2.bmp\",\"fafa:va\",\"Up\",\"38\",\"4\",\"12\",\"6A\",\"C1\",\"C\",\"84\"
\"\",\"\",\"approach-retreat\",\"233\",\"1969006\",\"0.0-233.0\",\"\",\"\",\"1-2\",\"5449\",\"39\",\"1\",\"Testing\",\"Stims/Figures/87-C-20-4.bmp\",\"sa:saha\",\"Left\",\"39\",\"4\",\"13\",\"6A\",\"C2\",\"C\",\"85\"
\"\",\"\",\"approach-retreat\",\"234\",\"1975520\",\"0.0-234.0\",\"\",\"\",\"1-2\",\"5006\",\"40\",\"1\",\"Testing\",\"Stims/Figures/57-C-30-1.bmp\",\"sa:haha\",\"Up\",\"40\",\"4\",\"14\",\"6A\",\"C2\",\"C\",\"86\"
\"\",\"\",\"approach-retreat\",\"235\",\"1982159\",\"0.0-235.0\",\"\",\"\",\"1-2\",\"5131\",\"38\",\"0\",\"Testing\",\"Stims/Figures/85-C-20-2.bmp\",\"sasaza\",\"Up\",\"40\",\"4\",\"15\",\"6A\",\"C2\",\"C\",\"87\"
\"\",\"\",\"approach-retreat\",\"236\",\"1988607\",\"0.0-236.0\",\"\",\"\",\"1-2\",\"4930\",\"37\",\"1\",\"Testing\",\"Stims/Figures/7-C-20-4.bmp\",\"zaha:ha\",\"Right\",\"37\",\"4\",\"16\",\"6A\",\"C2\",\"C\",\"88\"
\"\",\"\",\"approach-retreat\",\"237\",\"1995386\",\"0.0-237.0\",\"\",\"\",\"1-2\",\"5268\",\"38\",\"1\",\"Testing\",\"Stims/Figures/128-C-30-3.bmp\",\"za:haha\",\"Down\",\"38\",\"4\",\"17\",\"6A\",\"C2\",\"C\",\"89\"
\"\",\"\",\"approach-retreat\",\"238\",\"2001376\",\"0.0-238.0\",\"\",\"\",\"1-2\",\"4485\",\"38\",\"0\",\"Testing\",\"Stims/Figures/7-J-10-4.bmp\",\"va:fa:sha\",\"Down\",\"40\",\"4\",\"18\",\"6A\",\"C1\",\"C\",\"90\"
\"\",\"\",\"approach-retreat\",\"239\",\"2008015\",\"0.0-239.0\",\"\",\"\",\"1-2\",\"5119\",\"40\",\"0\",\"Testing\",\"Stims/Figures/93-J-0-1.bmp\",\"fasha:va\",\"Up\",\"38\",\"4\",\"19\",\"6A\",\"C1\",\"C\",\"91\"
\"\",\"\",\"approach-retreat\",\"240\",\"2014812\",\"0.0-240.0\",\"\",\"\",\"1-2\",\"5281\",\"39\",\"1\",\"Testing\",\"Stims/Figures/74-J-10-4.bmp\",\"va:fa:va\",\"Right\",\"39\",\"4\",\"20\",\"6A\",\"C1\",\"C\",\"92\"
\"\",\"\",\"approach-retreat\",\"241\",\"2023212\",\"0.0-241.0\",\"\",\"\",\"1-2\",\"6893\",\"37\",\"0\",\"Testing\",\"Stims/Figures/87-J-10-4.bmp\",\"va:sha:sha\",\"Right\",\"39\",\"4\",\"21\",\"6A\",\"C1\",\"C\",\"93\"
\"\",\"\",\"approach-retreat\",\"242\",\"2029404\",\"0.0-242.0\",\"\",\"\",\"1-2\",\"4678\",\"40\",\"1\",\"Testing\",\"Stims/Figures/57-J-0-1.bmp\",\"fafava\",\"Down\",\"40\",\"4\",\"22\",\"6A\",\"C1\",\"C\",\"94\"
\"\",\"\",\"approach-retreat\",\"243\",\"2036515\",\"0.0-243.0\",\"\",\"\",\"1-2\",\"5605\",\"38\",\"0\",\"Testing\",\"Stims/Figures/27-C-30-1.bmp\",\"sasa:za\",\"Up\",\"40\",\"4\",\"23\",\"6A\",\"C2\",\"C\",\"95\"
\"\",\"\",\"approach-retreat\",\"244\",\"2043675\",\"0.0-244.0\",\"\",\"\",\"1-2\",\"5655\",\"38\",\"1\",\"Testing\",\"Stims/Figures/93-C-30-1.bmp\",\"sahaza\",\"Down\",\"38\",\"4\",\"24\",\"6A\",\"C2\",\"C\",\"96\"
\"27154\",\"\",\"survey-text\",\"245\",\"2070834\",\"0.0-245.0\",\"\",\"{\"\"Q0\"\":\"\"PS160045\"\"}\",\"\",\"\",\"\",\"\",\"\",\"\",\"\",\"\",\"\",\"\",\"\",\"\",\"\",\"\",\"\"
