\"rt\",\"key_press\",\"trial_type\",\"trial_index\",\"time_elapsed\",\"internal_node_id\",\"view_history\",\"responses\",\"Id\",\"Rt\",\"ResKeyCode\",\"ResCorr\",\"TrialType2\",\"Image\",\"Label\",\"Location\",\"CorrectResponse\",\"Block\",\"BlockTrial\",\"Condition\",\"LabelType\",\"Subcondition\",\"trialNum\"
\"7687\",\"32\",\"text\",\"0\",\"7694\",\"0.0-0.0-0.0\",\"\",\"\",\"\",\"\",\"\",\"\",\"\",\"\",\"\",\"\",\"\",\"\",\"\",\"\",\"\",\"\",\"\"
\"3081\",\"\",\"instructions\",\"1\",\"10779\",\"0.0-1.0\",\"[{\"\"page_index\"\":0,\"\"viewing_time\"\":3080}]\",\"\",\"\",\"\",\"\",\"\",\"\",\"\",\"\",\"\",\"\",\"\",\"\",\"\",\"\",\"\",\"\"
\"11240\",\"\",\"survey-multi-choice\",\"2\",\"22083\",\"0.0-2.0\",\"\",\"{\"\"Q0\"\":\"\"Da\"\",\"\"Q1\"\":\"\"Da\"\",\"\"Q2\"\":\"\"Da\"\",\"\"Q3\"\":\"\"Da\"\",\"\"Q4\"\":\"\"Da\"\",\"\"Q5\"\":\"\"Da\"\"}\",\"\",\"\",\"\",\"\",\"\",\"\",\"\",\"\",\"\",\"\",\"\",\"\",\"\",\"\",\"\"
\"\",\"\",\"bio\",\"3\",\"27332\",\"0.0-3.0\",\"\",\"{\"\"age\"\":\"\"23\"\",\"\"gender\"\":\"\"f\"\",\"\"specify\"\":\"\"\"\"}\",\"\",\"\",\"\",\"\",\"\",\"\",\"\",\"\",\"\",\"\",\"\",\"\",\"\",\"\",\"\"
\"\",\"\",\"approach-retreat\",\"4\",\"34402\",\"0.0-4.0\",\"\",\"\",\"3-4\",\"5553\",\"39\",\"1\",\"Training\",\"Stims/Figures/139-C-20-2.bmp\",\"va:shasha\",\"Left\",\"39\",\"1\",\"1\",\"3B\",\"C1\",\"C\",\"1\"
\"\",\"\",\"approach-retreat\",\"5\",\"41570\",\"0.0-5.0\",\"\",\"\",\"3-4\",\"5644\",\"39\",\"1\",\"Training\",\"Stims/Figures/71-J-0-1.bmp\",\"sa:saza\",\"Right\",\"39\",\"1\",\"2\",\"3B\",\"C2\",\"C\",\"2\"
\"\",\"\",\"approach-retreat\",\"6\",\"50390\",\"0.0-6.0\",\"\",\"\",\"3-4\",\"7303\",\"40\",\"0\",\"Training\",\"Stims/Figures/74-J-10-4.bmp\",\"sa:saza\",\"Up\",\"38\",\"1\",\"3\",\"3B\",\"C2\",\"C\",\"3\"
\"\",\"\",\"approach-retreat\",\"7\",\"56039\",\"0.0-7.0\",\"\",\"\",\"3-4\",\"4137\",\"37\",\"1\",\"Training\",\"Stims/Figures/44-C-30-3.bmp\",\"va:shasha\",\"Right\",\"37\",\"1\",\"4\",\"3B\",\"C1\",\"C\",\"4\"
\"\",\"\",\"approach-retreat\",\"8\",\"61713\",\"0.0-8.0\",\"\",\"\",\"3-4\",\"4161\",\"39\",\"1\",\"Training\",\"Stims/Figures/139-J-0-2.bmp\",\"sa:saza\",\"Right\",\"39\",\"1\",\"5\",\"3B\",\"C2\",\"C\",\"5\"
\"\",\"\",\"approach-retreat\",\"9\",\"67564\",\"0.0-9.0\",\"\",\"\",\"3-4\",\"4335\",\"37\",\"1\",\"Training\",\"Stims/Figures/44-J-10-3.bmp\",\"sa:saza\",\"Left\",\"37\",\"1\",\"6\",\"3B\",\"C2\",\"C\",\"6\"
\"\",\"\",\"approach-retreat\",\"10\",\"73292\",\"0.0-10.0\",\"\",\"\",\"3-4\",\"4206\",\"38\",\"1\",\"Training\",\"Stims/Figures/118-J-0-2.bmp\",\"sa:saza\",\"Up\",\"38\",\"1\",\"7\",\"3B\",\"C2\",\"C\",\"7\"
\"\",\"\",\"approach-retreat\",\"11\",\"79370\",\"0.0-11.0\",\"\",\"\",\"3-4\",\"4542\",\"38\",\"1\",\"Training\",\"Stims/Figures/93-C-30-1.bmp\",\"va:shasha\",\"Down\",\"38\",\"1\",\"8\",\"3B\",\"C1\",\"C\",\"8\"
\"\",\"\",\"approach-retreat\",\"12\",\"85992\",\"0.0-12.0\",\"\",\"\",\"3-4\",\"5083\",\"37\",\"0\",\"Training\",\"Stims/Figures/128-C-30-3.bmp\",\"va:shasha\",\"Left\",\"39\",\"1\",\"9\",\"3B\",\"C1\",\"C\",\"9\"
\"\",\"\",\"approach-retreat\",\"13\",\"92760\",\"0.0-13.0\",\"\",\"\",\"3-4\",\"5257\",\"38\",\"1\",\"Training\",\"Stims/Figures/93-J-0-1.bmp\",\"sa:saza\",\"Up\",\"38\",\"1\",\"10\",\"3B\",\"C2\",\"C\",\"10\"
\"\",\"\",\"approach-retreat\",\"14\",\"98651\",\"0.0-14.0\",\"\",\"\",\"3-4\",\"4375\",\"38\",\"1\",\"Training\",\"Stims/Figures/118-C-20-2.bmp\",\"va:shasha\",\"Down\",\"38\",\"1\",\"11\",\"3B\",\"C1\",\"C\",\"11\"
\"\",\"\",\"approach-retreat\",\"15\",\"105673\",\"0.0-15.0\",\"\",\"\",\"3-4\",\"5491\",\"39\",\"1\",\"Training\",\"Stims/Figures/74-C-20-4.bmp\",\"va:shasha\",\"Left\",\"39\",\"1\",\"12\",\"3B\",\"C1\",\"C\",\"12\"
\"\",\"\",\"approach-retreat\",\"16\",\"112055\",\"0.0-16.0\",\"\",\"\",\"3-4\",\"4870\",\"40\",\"0\",\"Training\",\"Stims/Figures/87-J-10-4.bmp\",\"sa:saza\",\"Up\",\"38\",\"1\",\"13\",\"3B\",\"C2\",\"C\",\"13\"
\"\",\"\",\"approach-retreat\",\"17\",\"118120\",\"0.0-17.0\",\"\",\"\",\"3-4\",\"4552\",\"38\",\"0\",\"Training\",\"Stims/Figures/128-J-10-3.bmp\",\"sa:saza\",\"Down\",\"40\",\"1\",\"14\",\"3B\",\"C2\",\"C\",\"14\"
\"\",\"\",\"approach-retreat\",\"18\",\"124031\",\"0.0-18.0\",\"\",\"\",\"3-4\",\"4400\",\"37\",\"1\",\"Training\",\"Stims/Figures/71-C-30-1.bmp\",\"va:shasha\",\"Right\",\"37\",\"1\",\"15\",\"3B\",\"C1\",\"C\",\"15\"
\"\",\"\",\"approach-retreat\",\"19\",\"129814\",\"0.0-19.0\",\"\",\"\",\"3-4\",\"4263\",\"38\",\"1\",\"Training\",\"Stims/Figures/87-C-20-4.bmp\",\"va:shasha\",\"Down\",\"38\",\"1\",\"16\",\"3B\",\"C1\",\"C\",\"16\"
\"\",\"\",\"approach-retreat\",\"20\",\"136256\",\"0.0-20.0\",\"\",\"\",\"3-4\",\"4928\",\"37\",\"1\",\"Training\",\"Stims/Figures/74-J-10-4.bmp\",\"sa:saza\",\"Left\",\"37\",\"2\",\"1\",\"3B\",\"C2\",\"C\",\"17\"
\"\",\"\",\"approach-retreat\",\"21\",\"142228\",\"0.0-21.0\",\"\",\"\",\"3-4\",\"4461\",\"37\",\"1\",\"Training\",\"Stims/Figures/128-J-10-3.bmp\",\"sa:saza\",\"Left\",\"37\",\"2\",\"2\",\"3B\",\"C2\",\"C\",\"18\"
\"\",\"\",\"approach-retreat\",\"22\",\"147984\",\"0.0-22.0\",\"\",\"\",\"3-4\",\"4244\",\"38\",\"1\",\"Training\",\"Stims/Figures/93-J-0-1.bmp\",\"sa:saza\",\"Up\",\"38\",\"2\",\"3\",\"3B\",\"C2\",\"C\",\"19\"
\"\",\"\",\"approach-retreat\",\"23\",\"153870\",\"0.0-23.0\",\"\",\"\",\"3-4\",\"4363\",\"39\",\"1\",\"Training\",\"Stims/Figures/74-C-20-4.bmp\",\"va:shasha\",\"Left\",\"39\",\"2\",\"4\",\"3B\",\"C1\",\"C\",\"20\"
\"\",\"\",\"approach-retreat\",\"24\",\"159650\",\"0.0-24.0\",\"\",\"\",\"3-4\",\"4267\",\"38\",\"1\",\"Training\",\"Stims/Figures/87-C-20-4.bmp\",\"va:shasha\",\"Down\",\"38\",\"2\",\"5\",\"3B\",\"C1\",\"C\",\"21\"
\"\",\"\",\"approach-retreat\",\"25\",\"165488\",\"0.0-25.0\",\"\",\"\",\"3-4\",\"4323\",\"40\",\"1\",\"Training\",\"Stims/Figures/128-C-30-3.bmp\",\"va:shasha\",\"Up\",\"40\",\"2\",\"6\",\"3B\",\"C1\",\"C\",\"22\"
\"\",\"\",\"approach-retreat\",\"26\",\"172703\",\"0.0-26.0\",\"\",\"\",\"3-4\",\"5692\",\"40\",\"1\",\"Training\",\"Stims/Figures/44-J-10-3.bmp\",\"sa:saza\",\"Down\",\"40\",\"2\",\"7\",\"3B\",\"C2\",\"C\",\"23\"
\"\",\"\",\"approach-retreat\",\"27\",\"179060\",\"0.0-27.0\",\"\",\"\",\"3-4\",\"4842\",\"39\",\"1\",\"Training\",\"Stims/Figures/118-J-0-2.bmp\",\"sa:saza\",\"Right\",\"39\",\"2\",\"8\",\"3B\",\"C2\",\"C\",\"24\"
\"\",\"\",\"approach-retreat\",\"28\",\"184768\",\"0.0-28.0\",\"\",\"\",\"3-4\",\"4181\",\"37\",\"1\",\"Training\",\"Stims/Figures/93-C-30-1.bmp\",\"va:shasha\",\"Right\",\"37\",\"2\",\"9\",\"3B\",\"C1\",\"C\",\"25\"
\"\",\"\",\"approach-retreat\",\"29\",\"190433\",\"0.0-29.0\",\"\",\"\",\"3-4\",\"4132\",\"37\",\"1\",\"Training\",\"Stims/Figures/44-C-30-3.bmp\",\"va:shasha\",\"Right\",\"37\",\"2\",\"10\",\"3B\",\"C1\",\"C\",\"26\"
\"\",\"\",\"approach-retreat\",\"30\",\"196858\",\"0.0-30.0\",\"\",\"\",\"3-4\",\"4899\",\"40\",\"1\",\"Training\",\"Stims/Figures/139-J-0-2.bmp\",\"sa:saza\",\"Down\",\"40\",\"2\",\"11\",\"3B\",\"C2\",\"C\",\"27\"
\"\",\"\",\"approach-retreat\",\"31\",\"202631\",\"0.0-31.0\",\"\",\"\",\"3-4\",\"4241\",\"38\",\"1\",\"Training\",\"Stims/Figures/87-J-10-4.bmp\",\"sa:saza\",\"Up\",\"38\",\"2\",\"12\",\"3B\",\"C2\",\"C\",\"28\"
\"\",\"\",\"approach-retreat\",\"32\",\"208658\",\"0.0-32.0\",\"\",\"\",\"3-4\",\"4501\",\"39\",\"1\",\"Training\",\"Stims/Figures/71-C-30-1.bmp\",\"va:shasha\",\"Left\",\"39\",\"2\",\"13\",\"3B\",\"C1\",\"C\",\"29\"
\"\",\"\",\"approach-retreat\",\"33\",\"214444\",\"0.0-33.0\",\"\",\"\",\"3-4\",\"4260\",\"40\",\"1\",\"Training\",\"Stims/Figures/139-C-20-2.bmp\",\"va:shasha\",\"Up\",\"40\",\"2\",\"14\",\"3B\",\"C1\",\"C\",\"30\"
\"\",\"\",\"approach-retreat\",\"34\",\"220715\",\"0.0-34.0\",\"\",\"\",\"3-4\",\"4756\",\"40\",\"1\",\"Training\",\"Stims/Figures/71-J-0-1.bmp\",\"sa:saza\",\"Down\",\"40\",\"2\",\"15\",\"3B\",\"C2\",\"C\",\"31\"
\"\",\"\",\"approach-retreat\",\"35\",\"229582\",\"0.0-35.0\",\"\",\"\",\"3-4\",\"7334\",\"37\",\"1\",\"Training\",\"Stims/Figures/118-C-20-2.bmp\",\"va:shasha\",\"Right\",\"37\",\"2\",\"16\",\"3B\",\"C1\",\"C\",\"32\"
\"\",\"\",\"approach-retreat\",\"36\",\"237083\",\"0.0-36.0\",\"\",\"\",\"3-4\",\"5971\",\"37\",\"1\",\"Training\",\"Stims/Figures/74-J-10-4.bmp\",\"sa:saza\",\"Left\",\"37\",\"3\",\"1\",\"3B\",\"C2\",\"C\",\"33\"
\"\",\"\",\"approach-retreat\",\"37\",\"242709\",\"0.0-37.0\",\"\",\"\",\"3-4\",\"4099\",\"37\",\"1\",\"Training\",\"Stims/Figures/93-C-30-1.bmp\",\"va:shasha\",\"Right\",\"37\",\"3\",\"2\",\"3B\",\"C1\",\"C\",\"34\"
\"\",\"\",\"approach-retreat\",\"38\",\"249918\",\"0.0-38.0\",\"\",\"\",\"3-4\",\"5683\",\"38\",\"1\",\"Training\",\"Stims/Figures/87-J-10-4.bmp\",\"sa:saza\",\"Up\",\"38\",\"3\",\"3\",\"3B\",\"C2\",\"C\",\"35\"
\"\",\"\",\"approach-retreat\",\"39\",\"255447\",\"0.0-39.0\",\"\",\"\",\"3-4\",\"4012\",\"37\",\"1\",\"Training\",\"Stims/Figures/44-C-30-3.bmp\",\"va:shasha\",\"Right\",\"37\",\"3\",\"4\",\"3B\",\"C1\",\"C\",\"36\"
\"\",\"\",\"approach-retreat\",\"40\",\"261551\",\"0.0-40.0\",\"\",\"\",\"3-4\",\"4591\",\"39\",\"1\",\"Training\",\"Stims/Figures/118-C-20-2.bmp\",\"va:shasha\",\"Left\",\"39\",\"3\",\"5\",\"3B\",\"C1\",\"C\",\"37\"
\"\",\"\",\"approach-retreat\",\"41\",\"267267\",\"0.0-41.0\",\"\",\"\",\"3-4\",\"4204\",\"37\",\"1\",\"Training\",\"Stims/Figures/139-C-20-2.bmp\",\"va:shasha\",\"Right\",\"37\",\"3\",\"6\",\"3B\",\"C1\",\"C\",\"38\"
\"\",\"\",\"approach-retreat\",\"42\",\"272930\",\"0.0-42.0\",\"\",\"\",\"3-4\",\"4150\",\"38\",\"1\",\"Training\",\"Stims/Figures/93-J-0-1.bmp\",\"sa:saza\",\"Up\",\"38\",\"3\",\"7\",\"3B\",\"C2\",\"C\",\"39\"
\"\",\"\",\"approach-retreat\",\"43\",\"278640\",\"0.0-43.0\",\"\",\"\",\"3-4\",\"4186\",\"38\",\"1\",\"Training\",\"Stims/Figures/128-J-10-3.bmp\",\"sa:saza\",\"Up\",\"38\",\"3\",\"8\",\"3B\",\"C2\",\"C\",\"40\"
\"\",\"\",\"approach-retreat\",\"44\",\"284514\",\"0.0-44.0\",\"\",\"\",\"3-4\",\"4353\",\"40\",\"1\",\"Training\",\"Stims/Figures/71-J-0-1.bmp\",\"sa:saza\",\"Down\",\"40\",\"3\",\"9\",\"3B\",\"C2\",\"C\",\"41\"
\"\",\"\",\"approach-retreat\",\"45\",\"290313\",\"0.0-45.0\",\"\",\"\",\"3-4\",\"4282\",\"40\",\"1\",\"Training\",\"Stims/Figures/118-J-0-2.bmp\",\"sa:saza\",\"Down\",\"40\",\"3\",\"10\",\"3B\",\"C2\",\"C\",\"42\"
\"\",\"\",\"approach-retreat\",\"46\",\"296211\",\"0.0-46.0\",\"\",\"\",\"3-4\",\"4385\",\"39\",\"1\",\"Training\",\"Stims/Figures/44-J-10-3.bmp\",\"sa:saza\",\"Right\",\"39\",\"3\",\"11\",\"3B\",\"C2\",\"C\",\"43\"
\"\",\"\",\"approach-retreat\",\"47\",\"301990\",\"0.0-47.0\",\"\",\"\",\"3-4\",\"4242\",\"38\",\"1\",\"Training\",\"Stims/Figures/71-C-30-1.bmp\",\"va:shasha\",\"Down\",\"38\",\"3\",\"12\",\"3B\",\"C1\",\"C\",\"44\"
\"\",\"\",\"approach-retreat\",\"48\",\"307756\",\"0.0-48.0\",\"\",\"\",\"3-4\",\"4247\",\"39\",\"1\",\"Training\",\"Stims/Figures/128-C-30-3.bmp\",\"va:shasha\",\"Left\",\"39\",\"3\",\"13\",\"3B\",\"C1\",\"C\",\"45\"
\"\",\"\",\"approach-retreat\",\"49\",\"313411\",\"0.0-49.0\",\"\",\"\",\"3-4\",\"4120\",\"38\",\"1\",\"Training\",\"Stims/Figures/74-C-20-4.bmp\",\"va:shasha\",\"Down\",\"38\",\"3\",\"14\",\"3B\",\"C1\",\"C\",\"46\"
\"\",\"\",\"approach-retreat\",\"50\",\"319090\",\"0.0-50.0\",\"\",\"\",\"3-4\",\"4163\",\"37\",\"1\",\"Training\",\"Stims/Figures/139-J-0-2.bmp\",\"sa:saza\",\"Left\",\"37\",\"3\",\"15\",\"3B\",\"C2\",\"C\",\"47\"
\"\",\"\",\"approach-retreat\",\"51\",\"324859\",\"0.0-51.0\",\"\",\"\",\"3-4\",\"4242\",\"40\",\"1\",\"Training\",\"Stims/Figures/87-C-20-4.bmp\",\"va:shasha\",\"Up\",\"40\",\"3\",\"16\",\"3B\",\"C1\",\"C\",\"48\"
\"\",\"\",\"approach-retreat\",\"52\",\"330528\",\"0.0-52.0\",\"\",\"\",\"3-4\",\"4147\",\"37\",\"1\",\"Training\",\"Stims/Figures/44-C-30-3.bmp\",\"va:shasha\",\"Right\",\"37\",\"4\",\"1\",\"3B\",\"C1\",\"C\",\"49\"
\"\",\"\",\"approach-retreat\",\"53\",\"336242\",\"0.0-53.0\",\"\",\"\",\"3-4\",\"4184\",\"38\",\"1\",\"Training\",\"Stims/Figures/128-J-10-3.bmp\",\"sa:saza\",\"Up\",\"38\",\"4\",\"2\",\"3B\",\"C2\",\"C\",\"50\"
\"\",\"\",\"approach-retreat\",\"54\",\"342151\",\"0.0-54.0\",\"\",\"\",\"3-4\",\"4398\",\"40\",\"1\",\"Training\",\"Stims/Figures/44-J-10-3.bmp\",\"sa:saza\",\"Down\",\"40\",\"4\",\"3\",\"3B\",\"C2\",\"C\",\"51\"
\"\",\"\",\"approach-retreat\",\"55\",\"347928\",\"0.0-55.0\",\"\",\"\",\"3-4\",\"4250\",\"39\",\"1\",\"Training\",\"Stims/Figures/93-J-0-1.bmp\",\"sa:saza\",\"Right\",\"39\",\"4\",\"4\",\"3B\",\"C2\",\"C\",\"52\"
\"\",\"\",\"approach-retreat\",\"56\",\"353844\",\"0.0-56.0\",\"\",\"\",\"3-4\",\"4367\",\"38\",\"1\",\"Training\",\"Stims/Figures/74-C-20-4.bmp\",\"va:shasha\",\"Down\",\"38\",\"4\",\"5\",\"3B\",\"C1\",\"C\",\"53\"
\"\",\"\",\"approach-retreat\",\"57\",\"359815\",\"0.0-57.0\",\"\",\"\",\"3-4\",\"4460\",\"38\",\"1\",\"Training\",\"Stims/Figures/139-J-0-2.bmp\",\"sa:saza\",\"Up\",\"38\",\"4\",\"6\",\"3B\",\"C2\",\"C\",\"54\"
\"\",\"\",\"approach-retreat\",\"58\",\"366959\",\"0.0-58.0\",\"\",\"\",\"3-4\",\"5633\",\"38\",\"1\",\"Training\",\"Stims/Figures/74-J-10-4.bmp\",\"sa:saza\",\"Up\",\"38\",\"4\",\"7\",\"3B\",\"C2\",\"C\",\"55\"
\"\",\"\",\"approach-retreat\",\"59\",\"372998\",\"0.0-59.0\",\"\",\"\",\"3-4\",\"4527\",\"39\",\"1\",\"Training\",\"Stims/Figures/71-J-0-1.bmp\",\"sa:saza\",\"Right\",\"39\",\"4\",\"8\",\"3B\",\"C2\",\"C\",\"56\"
\"\",\"\",\"approach-retreat\",\"60\",\"378551\",\"0.0-60.0\",\"\",\"\",\"3-4\",\"4042\",\"37\",\"1\",\"Training\",\"Stims/Figures/118-J-0-2.bmp\",\"sa:saza\",\"Left\",\"37\",\"4\",\"9\",\"3B\",\"C2\",\"C\",\"57\"
\"\",\"\",\"approach-retreat\",\"61\",\"384535\",\"0.0-61.0\",\"\",\"\",\"3-4\",\"4471\",\"37\",\"1\",\"Training\",\"Stims/Figures/139-C-20-2.bmp\",\"va:shasha\",\"Right\",\"37\",\"4\",\"10\",\"3B\",\"C1\",\"C\",\"58\"
\"\",\"\",\"approach-retreat\",\"62\",\"390704\",\"0.0-62.0\",\"\",\"\",\"3-4\",\"4633\",\"38\",\"1\",\"Training\",\"Stims/Figures/87-J-10-4.bmp\",\"sa:saza\",\"Up\",\"38\",\"4\",\"11\",\"3B\",\"C2\",\"C\",\"59\"
\"\",\"\",\"approach-retreat\",\"63\",\"396960\",\"0.0-63.0\",\"\",\"\",\"3-4\",\"4743\",\"39\",\"1\",\"Training\",\"Stims/Figures/93-C-30-1.bmp\",\"va:shasha\",\"Left\",\"39\",\"4\",\"12\",\"3B\",\"C1\",\"C\",\"60\"
\"\",\"\",\"approach-retreat\",\"64\",\"403080\",\"0.0-64.0\",\"\",\"\",\"3-4\",\"4607\",\"38\",\"1\",\"Training\",\"Stims/Figures/87-C-20-4.bmp\",\"va:shasha\",\"Down\",\"38\",\"4\",\"13\",\"3B\",\"C1\",\"C\",\"61\"
\"\",\"\",\"approach-retreat\",\"65\",\"408893\",\"0.0-65.0\",\"\",\"\",\"3-4\",\"4284\",\"39\",\"1\",\"Training\",\"Stims/Figures/71-C-30-1.bmp\",\"va:shasha\",\"Left\",\"39\",\"4\",\"14\",\"3B\",\"C1\",\"C\",\"62\"
\"\",\"\",\"approach-retreat\",\"66\",\"414507\",\"0.0-66.0\",\"\",\"\",\"3-4\",\"4096\",\"39\",\"1\",\"Training\",\"Stims/Figures/118-C-20-2.bmp\",\"va:shasha\",\"Left\",\"39\",\"4\",\"15\",\"3B\",\"C1\",\"C\",\"63\"
\"\",\"\",\"approach-retreat\",\"67\",\"420577\",\"0.0-67.0\",\"\",\"\",\"3-4\",\"4529\",\"38\",\"1\",\"Training\",\"Stims/Figures/128-C-30-3.bmp\",\"va:shasha\",\"Down\",\"38\",\"4\",\"16\",\"3B\",\"C1\",\"C\",\"64\"
\"\",\"\",\"approach-retreat\",\"68\",\"426360\",\"0.0-68.0\",\"\",\"\",\"3-4\",\"4267\",\"40\",\"1\",\"Training\",\"Stims/Figures/44-C-30-3.bmp\",\"va:shasha\",\"Up\",\"40\",\"5\",\"1\",\"3B\",\"C1\",\"C\",\"65\"
\"\",\"\",\"approach-retreat\",\"69\",\"432683\",\"0.0-69.0\",\"\",\"\",\"3-4\",\"4812\",\"37\",\"1\",\"Training\",\"Stims/Figures/118-J-0-2.bmp\",\"sa:saza\",\"Left\",\"37\",\"5\",\"2\",\"3B\",\"C2\",\"C\",\"66\"
\"\",\"\",\"approach-retreat\",\"70\",\"438425\",\"0.0-70.0\",\"\",\"\",\"3-4\",\"4228\",\"39\",\"1\",\"Training\",\"Stims/Figures/128-C-30-3.bmp\",\"va:shasha\",\"Left\",\"39\",\"5\",\"3\",\"3B\",\"C1\",\"C\",\"67\"
\"\",\"\",\"approach-retreat\",\"71\",\"444219\",\"0.0-71.0\",\"\",\"\",\"3-4\",\"4279\",\"37\",\"1\",\"Training\",\"Stims/Figures/71-J-0-1.bmp\",\"sa:saza\",\"Left\",\"37\",\"5\",\"4\",\"3B\",\"C2\",\"C\",\"68\"
\"\",\"\",\"approach-retreat\",\"72\",\"450271\",\"0.0-72.0\",\"\",\"\",\"3-4\",\"4531\",\"38\",\"1\",\"Training\",\"Stims/Figures/74-C-20-4.bmp\",\"va:shasha\",\"Down\",\"38\",\"5\",\"5\",\"3B\",\"C1\",\"C\",\"69\"
\"\",\"\",\"approach-retreat\",\"73\",\"456288\",\"0.0-73.0\",\"\",\"\",\"3-4\",\"4505\",\"37\",\"1\",\"Training\",\"Stims/Figures/139-J-0-2.bmp\",\"sa:saza\",\"Left\",\"37\",\"5\",\"6\",\"3B\",\"C2\",\"C\",\"70\"
\"\",\"\",\"approach-retreat\",\"74\",\"462131\",\"0.0-74.0\",\"\",\"\",\"3-4\",\"4306\",\"38\",\"1\",\"Training\",\"Stims/Figures/44-J-10-3.bmp\",\"sa:saza\",\"Up\",\"38\",\"5\",\"7\",\"3B\",\"C2\",\"C\",\"71\"
\"\",\"\",\"approach-retreat\",\"75\",\"468106\",\"0.0-75.0\",\"\",\"\",\"3-4\",\"4463\",\"39\",\"1\",\"Training\",\"Stims/Figures/74-J-10-4.bmp\",\"sa:saza\",\"Right\",\"39\",\"5\",\"8\",\"3B\",\"C2\",\"C\",\"72\"
\"\",\"\",\"approach-retreat\",\"76\",\"473872\",\"0.0-76.0\",\"\",\"\",\"3-4\",\"4251\",\"40\",\"1\",\"Training\",\"Stims/Figures/118-C-20-2.bmp\",\"va:shasha\",\"Up\",\"40\",\"5\",\"9\",\"3B\",\"C1\",\"C\",\"73\"
\"\",\"\",\"approach-retreat\",\"77\",\"479824\",\"0.0-77.0\",\"\",\"\",\"3-4\",\"4439\",\"38\",\"1\",\"Training\",\"Stims/Figures/87-J-10-4.bmp\",\"sa:saza\",\"Up\",\"38\",\"5\",\"10\",\"3B\",\"C2\",\"C\",\"74\"
\"\",\"\",\"approach-retreat\",\"78\",\"486096\",\"0.0-78.0\",\"\",\"\",\"3-4\",\"4759\",\"39\",\"1\",\"Training\",\"Stims/Figures/128-J-10-3.bmp\",\"sa:saza\",\"Right\",\"39\",\"5\",\"11\",\"3B\",\"C2\",\"C\",\"75\"
\"\",\"\",\"approach-retreat\",\"79\",\"492552\",\"0.0-79.0\",\"\",\"\",\"3-4\",\"4944\",\"38\",\"1\",\"Training\",\"Stims/Figures/93-C-30-1.bmp\",\"va:shasha\",\"Down\",\"38\",\"5\",\"12\",\"3B\",\"C1\",\"C\",\"76\"
\"\",\"\",\"approach-retreat\",\"80\",\"498288\",\"0.0-80.0\",\"\",\"\",\"3-4\",\"4221\",\"38\",\"1\",\"Training\",\"Stims/Figures/71-C-30-1.bmp\",\"va:shasha\",\"Down\",\"38\",\"5\",\"13\",\"3B\",\"C1\",\"C\",\"77\"
\"\",\"\",\"approach-retreat\",\"81\",\"503995\",\"0.0-81.0\",\"\",\"\",\"3-4\",\"4186\",\"37\",\"1\",\"Training\",\"Stims/Figures/87-C-20-4.bmp\",\"va:shasha\",\"Right\",\"37\",\"5\",\"14\",\"3B\",\"C1\",\"C\",\"78\"
\"\",\"\",\"approach-retreat\",\"82\",\"510065\",\"0.0-82.0\",\"\",\"\",\"3-4\",\"4531\",\"39\",\"1\",\"Training\",\"Stims/Figures/93-J-0-1.bmp\",\"sa:saza\",\"Right\",\"39\",\"5\",\"15\",\"3B\",\"C2\",\"C\",\"79\"
\"\",\"\",\"approach-retreat\",\"83\",\"515969\",\"0.0-83.0\",\"\",\"\",\"3-4\",\"4392\",\"38\",\"1\",\"Training\",\"Stims/Figures/139-C-20-2.bmp\",\"va:shasha\",\"Down\",\"38\",\"5\",\"16\",\"3B\",\"C1\",\"C\",\"80\"
\"\",\"\",\"approach-retreat\",\"84\",\"521816\",\"0.0-84.0\",\"\",\"\",\"3-4\",\"4309\",\"40\",\"1\",\"Training\",\"Stims/Figures/118-C-20-2.bmp\",\"va:shasha\",\"Up\",\"40\",\"6\",\"1\",\"3B\",\"C1\",\"C\",\"81\"
\"\",\"\",\"approach-retreat\",\"85\",\"528258\",\"0.0-85.0\",\"\",\"\",\"3-4\",\"4923\",\"39\",\"1\",\"Training\",\"Stims/Figures/118-J-0-2.bmp\",\"sa:saza\",\"Right\",\"39\",\"6\",\"2\",\"3B\",\"C2\",\"C\",\"82\"
\"\",\"\",\"approach-retreat\",\"86\",\"534224\",\"0.0-86.0\",\"\",\"\",\"3-4\",\"4455\",\"40\",\"1\",\"Training\",\"Stims/Figures/139-J-0-2.bmp\",\"sa:saza\",\"Down\",\"40\",\"6\",\"3\",\"3B\",\"C2\",\"C\",\"83\"
\"\",\"\",\"approach-retreat\",\"87\",\"539959\",\"0.0-87.0\",\"\",\"\",\"3-4\",\"4219\",\"38\",\"1\",\"Training\",\"Stims/Figures/87-J-10-4.bmp\",\"sa:saza\",\"Up\",\"38\",\"6\",\"4\",\"3B\",\"C2\",\"C\",\"84\"
\"\",\"\",\"approach-retreat\",\"88\",\"545833\",\"0.0-88.0\",\"\",\"\",\"3-4\",\"4351\",\"39\",\"1\",\"Training\",\"Stims/Figures/44-J-10-3.bmp\",\"sa:saza\",\"Right\",\"39\",\"6\",\"5\",\"3B\",\"C2\",\"C\",\"85\"
\"\",\"\",\"approach-retreat\",\"89\",\"551650\",\"0.0-89.0\",\"\",\"\",\"3-4\",\"4296\",\"40\",\"1\",\"Training\",\"Stims/Figures/44-C-30-3.bmp\",\"va:shasha\",\"Up\",\"40\",\"6\",\"6\",\"3B\",\"C1\",\"C\",\"86\"
\"\",\"\",\"approach-retreat\",\"90\",\"557930\",\"0.0-90.0\",\"\",\"\",\"3-4\",\"4769\",\"40\",\"1\",\"Training\",\"Stims/Figures/93-J-0-1.bmp\",\"sa:saza\",\"Down\",\"40\",\"6\",\"7\",\"3B\",\"C2\",\"C\",\"87\"
\"\",\"\",\"approach-retreat\",\"91\",\"563588\",\"0.0-91.0\",\"\",\"\",\"3-4\",\"4115\",\"37\",\"1\",\"Training\",\"Stims/Figures/128-J-10-3.bmp\",\"sa:saza\",\"Left\",\"37\",\"6\",\"8\",\"3B\",\"C2\",\"C\",\"88\"
\"\",\"\",\"approach-retreat\",\"92\",\"569225\",\"0.0-92.0\",\"\",\"\",\"3-4\",\"4104\",\"37\",\"1\",\"Training\",\"Stims/Figures/71-J-0-1.bmp\",\"sa:saza\",\"Left\",\"37\",\"6\",\"9\",\"3B\",\"C2\",\"C\",\"89\"
\"\",\"\",\"approach-retreat\",\"93\",\"574848\",\"0.0-93.0\",\"\",\"\",\"3-4\",\"4109\",\"38\",\"1\",\"Training\",\"Stims/Figures/128-C-30-3.bmp\",\"va:shasha\",\"Down\",\"38\",\"6\",\"10\",\"3B\",\"C1\",\"C\",\"90\"
\"\",\"\",\"approach-retreat\",\"94\",\"580566\",\"0.0-94.0\",\"\",\"\",\"3-4\",\"4177\",\"38\",\"1\",\"Training\",\"Stims/Figures/74-C-20-4.bmp\",\"va:shasha\",\"Down\",\"38\",\"6\",\"11\",\"3B\",\"C1\",\"C\",\"91\"
\"\",\"\",\"approach-retreat\",\"95\",\"586306\",\"0.0-95.0\",\"\",\"\",\"3-4\",\"4207\",\"37\",\"1\",\"Training\",\"Stims/Figures/74-J-10-4.bmp\",\"sa:saza\",\"Left\",\"37\",\"6\",\"12\",\"3B\",\"C2\",\"C\",\"92\"
\"\",\"\",\"approach-retreat\",\"96\",\"592144\",\"0.0-96.0\",\"\",\"\",\"3-4\",\"4307\",\"37\",\"1\",\"Training\",\"Stims/Figures/87-C-20-4.bmp\",\"va:shasha\",\"Right\",\"37\",\"6\",\"13\",\"3B\",\"C1\",\"C\",\"93\"
\"\",\"\",\"approach-retreat\",\"97\",\"597775\",\"0.0-97.0\",\"\",\"\",\"3-4\",\"4119\",\"37\",\"1\",\"Training\",\"Stims/Figures/139-C-20-2.bmp\",\"va:shasha\",\"Right\",\"37\",\"6\",\"14\",\"3B\",\"C1\",\"C\",\"94\"
\"\",\"\",\"approach-retreat\",\"98\",\"603569\",\"0.0-98.0\",\"\",\"\",\"3-4\",\"4279\",\"39\",\"1\",\"Training\",\"Stims/Figures/71-C-30-1.bmp\",\"va:shasha\",\"Left\",\"39\",\"6\",\"15\",\"3B\",\"C1\",\"C\",\"95\"
\"\",\"\",\"approach-retreat\",\"99\",\"609255\",\"0.0-99.0\",\"\",\"\",\"3-4\",\"4175\",\"40\",\"1\",\"Training\",\"Stims/Figures/93-C-30-1.bmp\",\"va:shasha\",\"Up\",\"40\",\"6\",\"16\",\"3B\",\"C1\",\"C\",\"96\"
\"\",\"\",\"approach-retreat\",\"100\",\"614915\",\"0.0-100.0\",\"\",\"\",\"3-4\",\"4142\",\"38\",\"1\",\"Training\",\"Stims/Figures/44-C-30-3.bmp\",\"va:shasha\",\"Down\",\"38\",\"7\",\"1\",\"3B\",\"C1\",\"C\",\"97\"
\"\",\"\",\"approach-retreat\",\"101\",\"620576\",\"0.0-101.0\",\"\",\"\",\"3-4\",\"4148\",\"40\",\"1\",\"Training\",\"Stims/Figures/93-J-0-1.bmp\",\"sa:saza\",\"Down\",\"40\",\"7\",\"2\",\"3B\",\"C2\",\"C\",\"98\"
\"\",\"\",\"approach-retreat\",\"102\",\"626403\",\"0.0-102.0\",\"\",\"\",\"3-4\",\"4315\",\"40\",\"1\",\"Training\",\"Stims/Figures/71-J-0-1.bmp\",\"sa:saza\",\"Down\",\"40\",\"7\",\"3\",\"3B\",\"C2\",\"C\",\"99\"
\"\",\"\",\"approach-retreat\",\"103\",\"632186\",\"0.0-103.0\",\"\",\"\",\"3-4\",\"4253\",\"37\",\"1\",\"Training\",\"Stims/Figures/139-C-20-2.bmp\",\"va:shasha\",\"Right\",\"37\",\"7\",\"4\",\"3B\",\"C1\",\"C\",\"100\"
\"\",\"\",\"approach-retreat\",\"104\",\"637984\",\"0.0-104.0\",\"\",\"\",\"3-4\",\"4264\",\"39\",\"1\",\"Training\",\"Stims/Figures/128-C-30-3.bmp\",\"va:shasha\",\"Left\",\"39\",\"7\",\"5\",\"3B\",\"C1\",\"C\",\"101\"
\"\",\"\",\"approach-retreat\",\"105\",\"644473\",\"0.0-105.0\",\"\",\"\",\"3-4\",\"4975\",\"38\",\"1\",\"Training\",\"Stims/Figures/74-J-10-4.bmp\",\"sa:saza\",\"Up\",\"38\",\"7\",\"6\",\"3B\",\"C2\",\"C\",\"102\"
\"\",\"\",\"approach-retreat\",\"106\",\"650569\",\"0.0-106.0\",\"\",\"\",\"3-4\",\"4557\",\"39\",\"1\",\"Training\",\"Stims/Figures/118-J-0-2.bmp\",\"sa:saza\",\"Right\",\"39\",\"7\",\"7\",\"3B\",\"C2\",\"C\",\"103\"
\"\",\"\",\"approach-retreat\",\"107\",\"656463\",\"0.0-107.0\",\"\",\"\",\"3-4\",\"4378\",\"39\",\"1\",\"Training\",\"Stims/Figures/87-J-10-4.bmp\",\"sa:saza\",\"Right\",\"39\",\"7\",\"8\",\"3B\",\"C2\",\"C\",\"104\"
\"\",\"\",\"approach-retreat\",\"108\",\"662214\",\"0.0-108.0\",\"\",\"\",\"3-4\",\"4223\",\"39\",\"1\",\"Training\",\"Stims/Figures/87-C-20-4.bmp\",\"va:shasha\",\"Left\",\"39\",\"7\",\"9\",\"3B\",\"C1\",\"C\",\"105\"
\"\",\"\",\"approach-retreat\",\"109\",\"668051\",\"0.0-109.0\",\"\",\"\",\"3-4\",\"4320\",\"38\",\"1\",\"Training\",\"Stims/Figures/71-C-30-1.bmp\",\"va:shasha\",\"Down\",\"38\",\"7\",\"10\",\"3B\",\"C1\",\"C\",\"106\"
\"\",\"\",\"approach-retreat\",\"110\",\"673889\",\"0.0-110.0\",\"\",\"\",\"3-4\",\"4319\",\"37\",\"1\",\"Training\",\"Stims/Figures/44-J-10-3.bmp\",\"sa:saza\",\"Left\",\"37\",\"7\",\"11\",\"3B\",\"C2\",\"C\",\"107\"
\"\",\"\",\"approach-retreat\",\"111\",\"679537\",\"0.0-111.0\",\"\",\"\",\"3-4\",\"4112\",\"37\",\"1\",\"Training\",\"Stims/Figures/128-J-10-3.bmp\",\"sa:saza\",\"Left\",\"37\",\"7\",\"12\",\"3B\",\"C2\",\"C\",\"108\"
\"\",\"\",\"approach-retreat\",\"112\",\"685218\",\"0.0-112.0\",\"\",\"\",\"3-4\",\"4146\",\"37\",\"1\",\"Training\",\"Stims/Figures/74-C-20-4.bmp\",\"va:shasha\",\"Right\",\"37\",\"7\",\"13\",\"3B\",\"C1\",\"C\",\"109\"
\"\",\"\",\"approach-retreat\",\"113\",\"691823\",\"0.0-113.0\",\"\",\"\",\"3-4\",\"5081\",\"40\",\"1\",\"Training\",\"Stims/Figures/93-C-30-1.bmp\",\"va:shasha\",\"Up\",\"40\",\"7\",\"14\",\"3B\",\"C1\",\"C\",\"110\"
\"\",\"\",\"approach-retreat\",\"114\",\"697519\",\"0.0-114.0\",\"\",\"\",\"3-4\",\"4155\",\"40\",\"1\",\"Training\",\"Stims/Figures/118-C-20-2.bmp\",\"va:shasha\",\"Up\",\"40\",\"7\",\"15\",\"3B\",\"C1\",\"C\",\"111\"
\"\",\"\",\"approach-retreat\",\"115\",\"703208\",\"0.0-115.0\",\"\",\"\",\"3-4\",\"4163\",\"38\",\"1\",\"Training\",\"Stims/Figures/139-J-0-2.bmp\",\"sa:saza\",\"Up\",\"38\",\"7\",\"16\",\"3B\",\"C2\",\"C\",\"112\"
\"\",\"\",\"approach-retreat\",\"116\",\"708973\",\"0.0-116.0\",\"\",\"\",\"3-4\",\"4252\",\"38\",\"1\",\"Training\",\"Stims/Figures/44-J-10-3.bmp\",\"sa:saza\",\"Up\",\"38\",\"8\",\"1\",\"3B\",\"C2\",\"C\",\"113\"
\"\",\"\",\"approach-retreat\",\"117\",\"715439\",\"0.0-117.0\",\"\",\"\",\"3-4\",\"4947\",\"40\",\"1\",\"Training\",\"Stims/Figures/139-J-0-2.bmp\",\"sa:saza\",\"Down\",\"40\",\"8\",\"2\",\"3B\",\"C2\",\"C\",\"114\"
\"\",\"\",\"approach-retreat\",\"118\",\"721272\",\"0.0-118.0\",\"\",\"\",\"3-4\",\"4316\",\"39\",\"1\",\"Training\",\"Stims/Figures/87-J-10-4.bmp\",\"sa:saza\",\"Right\",\"39\",\"8\",\"3\",\"3B\",\"C2\",\"C\",\"115\"
\"\",\"\",\"approach-retreat\",\"119\",\"727065\",\"0.0-119.0\",\"\",\"\",\"3-4\",\"4273\",\"39\",\"1\",\"Training\",\"Stims/Figures/74-J-10-4.bmp\",\"sa:saza\",\"Right\",\"39\",\"8\",\"4\",\"3B\",\"C2\",\"C\",\"116\"
\"\",\"\",\"approach-retreat\",\"120\",\"732857\",\"0.0-120.0\",\"\",\"\",\"3-4\",\"4258\",\"38\",\"0\",\"Training\",\"Stims/Figures/71-J-0-1.bmp\",\"sa:saza\",\"Down\",\"40\",\"8\",\"5\",\"3B\",\"C2\",\"C\",\"117\"
\"\",\"\",\"approach-retreat\",\"121\",\"738640\",\"0.0-121.0\",\"\",\"\",\"3-4\",\"4270\",\"39\",\"1\",\"Training\",\"Stims/Figures/118-J-0-2.bmp\",\"sa:saza\",\"Right\",\"39\",\"8\",\"6\",\"3B\",\"C2\",\"C\",\"118\"
\"\",\"\",\"approach-retreat\",\"122\",\"745210\",\"0.0-122.0\",\"\",\"\",\"3-4\",\"5055\",\"39\",\"1\",\"Training\",\"Stims/Figures/44-C-30-3.bmp\",\"va:shasha\",\"Left\",\"39\",\"8\",\"7\",\"3B\",\"C1\",\"C\",\"119\"
\"\",\"\",\"approach-retreat\",\"123\",\"751090\",\"0.0-123.0\",\"\",\"\",\"3-4\",\"4371\",\"39\",\"1\",\"Training\",\"Stims/Figures/139-C-20-2.bmp\",\"va:shasha\",\"Left\",\"39\",\"8\",\"8\",\"3B\",\"C1\",\"C\",\"120\"
\"\",\"\",\"approach-retreat\",\"124\",\"756746\",\"0.0-124.0\",\"\",\"\",\"3-4\",\"4140\",\"40\",\"1\",\"Training\",\"Stims/Figures/74-C-20-4.bmp\",\"va:shasha\",\"Up\",\"40\",\"8\",\"9\",\"3B\",\"C1\",\"C\",\"121\"
\"\",\"\",\"approach-retreat\",\"125\",\"762456\",\"0.0-125.0\",\"\",\"\",\"3-4\",\"4198\",\"40\",\"1\",\"Training\",\"Stims/Figures/128-J-10-3.bmp\",\"sa:saza\",\"Down\",\"40\",\"8\",\"10\",\"3B\",\"C2\",\"C\",\"122\"
\"\",\"\",\"approach-retreat\",\"126\",\"768538\",\"0.0-126.0\",\"\",\"\",\"3-4\",\"4562\",\"39\",\"1\",\"Training\",\"Stims/Figures/87-C-20-4.bmp\",\"va:shasha\",\"Left\",\"39\",\"8\",\"11\",\"3B\",\"C1\",\"C\",\"123\"
\"\",\"\",\"approach-retreat\",\"127\",\"774338\",\"0.0-127.0\",\"\",\"\",\"3-4\",\"4288\",\"40\",\"1\",\"Training\",\"Stims/Figures/128-C-30-3.bmp\",\"va:shasha\",\"Up\",\"40\",\"8\",\"12\",\"3B\",\"C1\",\"C\",\"124\"
\"\",\"\",\"approach-retreat\",\"128\",\"779942\",\"0.0-128.0\",\"\",\"\",\"3-4\",\"4093\",\"40\",\"1\",\"Training\",\"Stims/Figures/93-C-30-1.bmp\",\"va:shasha\",\"Up\",\"40\",\"8\",\"13\",\"3B\",\"C1\",\"C\",\"125\"
\"\",\"\",\"approach-retreat\",\"129\",\"786025\",\"0.0-129.0\",\"\",\"\",\"3-4\",\"4550\",\"37\",\"1\",\"Training\",\"Stims/Figures/93-J-0-1.bmp\",\"sa:saza\",\"Left\",\"37\",\"8\",\"14\",\"3B\",\"C2\",\"C\",\"126\"
\"\",\"\",\"approach-retreat\",\"130\",\"791624\",\"0.0-130.0\",\"\",\"\",\"3-4\",\"4081\",\"37\",\"1\",\"Training\",\"Stims/Figures/118-C-20-2.bmp\",\"va:shasha\",\"Right\",\"37\",\"8\",\"15\",\"3B\",\"C1\",\"C\",\"127\"
\"\",\"\",\"approach-retreat\",\"131\",\"797416\",\"0.0-131.0\",\"\",\"\",\"3-4\",\"4280\",\"38\",\"1\",\"Training\",\"Stims/Figures/71-C-30-1.bmp\",\"va:shasha\",\"Down\",\"38\",\"8\",\"16\",\"3B\",\"C1\",\"C\",\"128\"
\"\",\"\",\"approach-retreat\",\"132\",\"803221\",\"0.0-132.0\",\"\",\"\",\"3-4\",\"4265\",\"38\",\"1\",\"Training\",\"Stims/Figures/128-C-30-3.bmp\",\"va:shasha\",\"Down\",\"38\",\"9\",\"1\",\"3B\",\"C1\",\"C\",\"129\"
\"\",\"\",\"approach-retreat\",\"133\",\"809362\",\"0.0-133.0\",\"\",\"\",\"3-4\",\"4610\",\"38\",\"1\",\"Training\",\"Stims/Figures/87-J-10-4.bmp\",\"sa:saza\",\"Up\",\"38\",\"9\",\"2\",\"3B\",\"C2\",\"C\",\"130\"
\"\",\"\",\"approach-retreat\",\"134\",\"815098\",\"0.0-134.0\",\"\",\"\",\"3-4\",\"4216\",\"37\",\"1\",\"Training\",\"Stims/Figures/93-C-30-1.bmp\",\"va:shasha\",\"Right\",\"37\",\"9\",\"3\",\"3B\",\"C1\",\"C\",\"131\"
\"\",\"\",\"approach-retreat\",\"135\",\"820963\",\"0.0-135.0\",\"\",\"\",\"3-4\",\"4338\",\"39\",\"1\",\"Training\",\"Stims/Figures/87-C-20-4.bmp\",\"va:shasha\",\"Left\",\"39\",\"9\",\"4\",\"3B\",\"C1\",\"C\",\"132\"
\"\",\"\",\"approach-retreat\",\"136\",\"826739\",\"0.0-136.0\",\"\",\"\",\"3-4\",\"4258\",\"39\",\"1\",\"Training\",\"Stims/Figures/93-J-0-1.bmp\",\"sa:saza\",\"Right\",\"39\",\"9\",\"5\",\"3B\",\"C2\",\"C\",\"133\"
\"\",\"\",\"approach-retreat\",\"137\",\"833712\",\"0.0-137.0\",\"\",\"\",\"3-4\",\"5460\",\"40\",\"1\",\"Training\",\"Stims/Figures/74-C-20-4.bmp\",\"va:shasha\",\"Up\",\"40\",\"9\",\"6\",\"3B\",\"C1\",\"C\",\"134\"
\"\",\"\",\"approach-retreat\",\"138\",\"839665\",\"0.0-138.0\",\"\",\"\",\"3-4\",\"4439\",\"37\",\"1\",\"Training\",\"Stims/Figures/44-J-10-3.bmp\",\"sa:saza\",\"Left\",\"37\",\"9\",\"7\",\"3B\",\"C2\",\"C\",\"135\"
\"\",\"\",\"approach-retreat\",\"139\",\"845298\",\"0.0-139.0\",\"\",\"\",\"3-4\",\"4122\",\"37\",\"1\",\"Training\",\"Stims/Figures/71-J-0-1.bmp\",\"sa:saza\",\"Left\",\"37\",\"9\",\"8\",\"3B\",\"C2\",\"C\",\"136\"
\"\",\"\",\"approach-retreat\",\"140\",\"851065\",\"0.0-140.0\",\"\",\"\",\"3-4\",\"4239\",\"38\",\"1\",\"Training\",\"Stims/Figures/139-C-20-2.bmp\",\"va:shasha\",\"Down\",\"38\",\"9\",\"9\",\"3B\",\"C1\",\"C\",\"137\"
\"\",\"\",\"approach-retreat\",\"141\",\"856811\",\"0.0-141.0\",\"\",\"\",\"3-4\",\"4222\",\"40\",\"1\",\"Training\",\"Stims/Figures/44-C-30-3.bmp\",\"va:shasha\",\"Up\",\"40\",\"9\",\"10\",\"3B\",\"C1\",\"C\",\"138\"
\"\",\"\",\"approach-retreat\",\"142\",\"862443\",\"0.0-142.0\",\"\",\"\",\"3-4\",\"4119\",\"37\",\"1\",\"Training\",\"Stims/Figures/118-J-0-2.bmp\",\"sa:saza\",\"Left\",\"37\",\"9\",\"11\",\"3B\",\"C2\",\"C\",\"139\"
\"\",\"\",\"approach-retreat\",\"143\",\"868075\",\"0.0-143.0\",\"\",\"\",\"3-4\",\"4120\",\"37\",\"1\",\"Training\",\"Stims/Figures/71-C-30-1.bmp\",\"va:shasha\",\"Right\",\"37\",\"9\",\"12\",\"3B\",\"C1\",\"C\",\"140\"
\"\",\"\",\"approach-retreat\",\"144\",\"873841\",\"0.0-144.0\",\"\",\"\",\"3-4\",\"4250\",\"38\",\"1\",\"Training\",\"Stims/Figures/118-C-20-2.bmp\",\"va:shasha\",\"Down\",\"38\",\"9\",\"13\",\"3B\",\"C1\",\"C\",\"141\"
\"\",\"\",\"approach-retreat\",\"145\",\"879760\",\"0.0-145.0\",\"\",\"\",\"3-4\",\"4406\",\"40\",\"1\",\"Training\",\"Stims/Figures/128-J-10-3.bmp\",\"sa:saza\",\"Down\",\"40\",\"9\",\"14\",\"3B\",\"C2\",\"C\",\"142\"
\"\",\"\",\"approach-retreat\",\"146\",\"885626\",\"0.0-146.0\",\"\",\"\",\"3-4\",\"4343\",\"39\",\"1\",\"Training\",\"Stims/Figures/74-J-10-4.bmp\",\"sa:saza\",\"Right\",\"39\",\"9\",\"15\",\"3B\",\"C2\",\"C\",\"143\"
\"\",\"\",\"approach-retreat\",\"147\",\"891353\",\"0.0-147.0\",\"\",\"\",\"3-4\",\"4206\",\"38\",\"1\",\"Training\",\"Stims/Figures/139-J-0-2.bmp\",\"sa:saza\",\"Up\",\"38\",\"9\",\"16\",\"3B\",\"C2\",\"C\",\"144\"
\"5019\",\"\",\"instructions\",\"148\",\"896373\",\"0.0-148.0\",\"[{\"\"page_index\"\":0,\"\"viewing_time\"\":5018}]\",\"\",\"\",\"\",\"\",\"\",\"\",\"\",\"\",\"\",\"\",\"\",\"\",\"\",\"\",\"\",\"\"
\"\",\"\",\"approach-retreat\",\"149\",\"902723\",\"0.0-149.0\",\"\",\"\",\"3-4\",\"4840\",\"39\",\"1\",\"Testing\",\"Stims/Figures/87-C-20-4.bmp\",\"va:shasha\",\"Left\",\"39\",\"1\",\"1\",\"3B\",\"C1\",\"C\",\"1\"
\"\",\"\",\"approach-retreat\",\"150\",\"908469\",\"0.0-150.0\",\"\",\"\",\"3-4\",\"4215\",\"39\",\"1\",\"Testing\",\"Stims/Figures/139-C-20-2.bmp\",\"va:shasha\",\"Left\",\"39\",\"1\",\"2\",\"3B\",\"C1\",\"C\",\"2\"
\"\",\"\",\"approach-retreat\",\"151\",\"914216\",\"0.0-151.0\",\"\",\"\",\"3-4\",\"4219\",\"37\",\"1\",\"Testing\",\"Stims/Figures/74-J-10-4.bmp\",\"sa:saza\",\"Left\",\"37\",\"1\",\"3\",\"3B\",\"C2\",\"C\",\"3\"
\"\",\"\",\"approach-retreat\",\"152\",\"920016\",\"0.0-152.0\",\"\",\"\",\"3-4\",\"4287\",\"39\",\"1\",\"Testing\",\"Stims/Figures/27-C-30-1.bmp\",\"va:shasha\",\"Left\",\"39\",\"1\",\"4\",\"3B\",\"C1\",\"C\",\"4\"
\"\",\"\",\"approach-retreat\",\"153\",\"925784\",\"0.0-153.0\",\"\",\"\",\"3-4\",\"4238\",\"37\",\"1\",\"Testing\",\"Stims/Figures/118-J-0-2.bmp\",\"sa:saza\",\"Left\",\"37\",\"1\",\"5\",\"3B\",\"C2\",\"C\",\"5\"
\"\",\"\",\"approach-retreat\",\"154\",\"933192\",\"0.0-154.0\",\"\",\"\",\"3-4\",\"5889\",\"39\",\"1\",\"Testing\",\"Stims/Figures/19-J-10-4.bmp\",\"sa:saza\",\"Right\",\"39\",\"1\",\"6\",\"3B\",\"C2\",\"C\",\"6\"
\"\",\"\",\"approach-retreat\",\"155\",\"938858\",\"0.0-155.0\",\"\",\"\",\"3-4\",\"4145\",\"38\",\"1\",\"Testing\",\"Stims/Figures/74-C-20-4.bmp\",\"va:shasha\",\"Down\",\"38\",\"1\",\"7\",\"3B\",\"C1\",\"C\",\"7\"
\"\",\"\",\"approach-retreat\",\"156\",\"944719\",\"0.0-156.0\",\"\",\"\",\"3-4\",\"4343\",\"37\",\"1\",\"Testing\",\"Stims/Figures/85-C-20-2.bmp\",\"va:shasha\",\"Right\",\"37\",\"1\",\"8\",\"3B\",\"C1\",\"C\",\"8\"
\"\",\"\",\"approach-retreat\",\"157\",\"950568\",\"0.0-157.0\",\"\",\"\",\"3-4\",\"4310\",\"40\",\"1\",\"Testing\",\"Stims/Figures/27-J-0-1.bmp\",\"sa:saza\",\"Down\",\"40\",\"1\",\"9\",\"3B\",\"C2\",\"C\",\"9\"
\"\",\"\",\"approach-retreat\",\"158\",\"956663\",\"0.0-158.0\",\"\",\"\",\"3-4\",\"4587\",\"40\",\"1\",\"Testing\",\"Stims/Figures/93-C-30-1.bmp\",\"va:shasha\",\"Up\",\"40\",\"1\",\"10\",\"3B\",\"C1\",\"C\",\"10\"
\"\",\"\",\"approach-retreat\",\"159\",\"962431\",\"0.0-159.0\",\"\",\"\",\"3-4\",\"4259\",\"38\",\"1\",\"Testing\",\"Stims/Figures/118-C-20-2.bmp\",\"va:shasha\",\"Down\",\"38\",\"1\",\"11\",\"3B\",\"C1\",\"C\",\"11\"
\"\",\"\",\"approach-retreat\",\"160\",\"968176\",\"0.0-160.0\",\"\",\"\",\"3-4\",\"4236\",\"40\",\"1\",\"Testing\",\"Stims/Figures/44-C-30-3.bmp\",\"va:shasha\",\"Up\",\"40\",\"1\",\"12\",\"3B\",\"C1\",\"C\",\"12\"
\"\",\"\",\"approach-retreat\",\"161\",\"973846\",\"0.0-161.0\",\"\",\"\",\"3-4\",\"4161\",\"38\",\"1\",\"Testing\",\"Stims/Figures/100-C-30-3.bmp\",\"va:shasha\",\"Down\",\"38\",\"1\",\"13\",\"3B\",\"C1\",\"C\",\"13\"
\"\",\"\",\"approach-retreat\",\"162\",\"979913\",\"0.0-162.0\",\"\",\"\",\"3-4\",\"4556\",\"39\",\"1\",\"Testing\",\"Stims/Figures/93-J-0-1.bmp\",\"sa:saza\",\"Right\",\"39\",\"1\",\"14\",\"3B\",\"C2\",\"C\",\"14\"
\"\",\"\",\"approach-retreat\",\"163\",\"985637\",\"0.0-163.0\",\"\",\"\",\"3-4\",\"4212\",\"39\",\"1\",\"Testing\",\"Stims/Figures/100-J-10-3.bmp\",\"sa:saza\",\"Right\",\"39\",\"1\",\"15\",\"3B\",\"C2\",\"C\",\"15\"
\"\",\"\",\"approach-retreat\",\"164\",\"991542\",\"0.0-164.0\",\"\",\"\",\"3-4\",\"4394\",\"37\",\"1\",\"Testing\",\"Stims/Figures/19-C-20-4.bmp\",\"va:shasha\",\"Right\",\"37\",\"1\",\"16\",\"3B\",\"C1\",\"C\",\"16\"
\"\",\"\",\"approach-retreat\",\"165\",\"997145\",\"0.0-165.0\",\"\",\"\",\"3-4\",\"4084\",\"40\",\"1\",\"Testing\",\"Stims/Figures/128-C-30-3.bmp\",\"va:shasha\",\"Up\",\"40\",\"1\",\"17\",\"3B\",\"C1\",\"C\",\"17\"
\"\",\"\",\"approach-retreat\",\"166\",\"1002772\",\"0.0-166.0\",\"\",\"\",\"3-4\",\"4096\",\"38\",\"1\",\"Testing\",\"Stims/Figures/71-J-0-1.bmp\",\"sa:saza\",\"Up\",\"38\",\"1\",\"18\",\"3B\",\"C2\",\"C\",\"18\"
\"\",\"\",\"approach-retreat\",\"167\",\"1008383\",\"0.0-167.0\",\"\",\"\",\"3-4\",\"4068\",\"37\",\"1\",\"Testing\",\"Stims/Figures/128-J-10-3.bmp\",\"sa:saza\",\"Left\",\"37\",\"1\",\"19\",\"3B\",\"C2\",\"C\",\"19\"
\"\",\"\",\"approach-retreat\",\"168\",\"1014049\",\"0.0-168.0\",\"\",\"\",\"3-4\",\"4156\",\"38\",\"1\",\"Testing\",\"Stims/Figures/71-C-30-1.bmp\",\"va:shasha\",\"Down\",\"38\",\"1\",\"20\",\"3B\",\"C1\",\"C\",\"20\"
\"\",\"\",\"approach-retreat\",\"169\",\"1019690\",\"0.0-169.0\",\"\",\"\",\"3-4\",\"4130\",\"38\",\"1\",\"Testing\",\"Stims/Figures/85-J-0-2.bmp\",\"sa:saza\",\"Up\",\"38\",\"1\",\"21\",\"3B\",\"C2\",\"C\",\"21\"
\"\",\"\",\"approach-retreat\",\"170\",\"1025651\",\"0.0-170.0\",\"\",\"\",\"3-4\",\"4445\",\"38\",\"1\",\"Testing\",\"Stims/Figures/139-J-0-2.bmp\",\"sa:saza\",\"Up\",\"38\",\"1\",\"22\",\"3B\",\"C2\",\"C\",\"22\"
\"\",\"\",\"approach-retreat\",\"171\",\"1031640\",\"0.0-171.0\",\"\",\"\",\"3-4\",\"4481\",\"39\",\"1\",\"Testing\",\"Stims/Figures/87-J-10-4.bmp\",\"sa:saza\",\"Right\",\"39\",\"1\",\"23\",\"3B\",\"C2\",\"C\",\"23\"
\"\",\"\",\"approach-retreat\",\"172\",\"1037541\",\"0.0-172.0\",\"\",\"\",\"3-4\",\"4393\",\"40\",\"1\",\"Testing\",\"Stims/Figures/44-J-10-3.bmp\",\"sa:saza\",\"Down\",\"40\",\"1\",\"24\",\"3B\",\"C2\",\"C\",\"24\"
\"\",\"\",\"approach-retreat\",\"173\",\"1043169\",\"0.0-173.0\",\"\",\"\",\"3-4\",\"4095\",\"38\",\"1\",\"Testing\",\"Stims/Figures/139-C-20-2.bmp\",\"va:shasha\",\"Down\",\"38\",\"2\",\"1\",\"3B\",\"C1\",\"C\",\"25\"
\"\",\"\",\"approach-retreat\",\"174\",\"1048855\",\"0.0-174.0\",\"\",\"\",\"3-4\",\"4178\",\"39\",\"1\",\"Testing\",\"Stims/Figures/93-C-30-1.bmp\",\"va:shasha\",\"Left\",\"39\",\"2\",\"2\",\"3B\",\"C1\",\"C\",\"26\"
\"\",\"\",\"approach-retreat\",\"175\",\"1054541\",\"0.0-175.0\",\"\",\"\",\"3-4\",\"4175\",\"39\",\"1\",\"Testing\",\"Stims/Figures/128-C-30-3.bmp\",\"va:shasha\",\"Left\",\"39\",\"2\",\"3\",\"3B\",\"C1\",\"C\",\"27\"
\"\",\"\",\"approach-retreat\",\"176\",\"1060114\",\"0.0-176.0\",\"\",\"\",\"3-4\",\"4047\",\"40\",\"1\",\"Testing\",\"Stims/Figures/44-C-30-3.bmp\",\"va:shasha\",\"Up\",\"40\",\"2\",\"4\",\"3B\",\"C1\",\"C\",\"28\"
\"\",\"\",\"approach-retreat\",\"177\",\"1065866\",\"0.0-177.0\",\"\",\"\",\"3-4\",\"4241\",\"40\",\"1\",\"Testing\",\"Stims/Figures/128-J-10-3.bmp\",\"sa:saza\",\"Down\",\"40\",\"2\",\"5\",\"3B\",\"C2\",\"C\",\"29\"
\"\",\"\",\"approach-retreat\",\"178\",\"1071439\",\"0.0-178.0\",\"\",\"\",\"3-4\",\"4045\",\"37\",\"1\",\"Testing\",\"Stims/Figures/139-J-0-2.bmp\",\"sa:saza\",\"Left\",\"37\",\"2\",\"6\",\"3B\",\"C2\",\"C\",\"30\"
\"\",\"\",\"approach-retreat\",\"179\",\"1077441\",\"0.0-179.0\",\"\",\"\",\"3-4\",\"4491\",\"38\",\"1\",\"Testing\",\"Stims/Figures/100-J-10-3.bmp\",\"sa:saza\",\"Up\",\"38\",\"2\",\"7\",\"3B\",\"C2\",\"C\",\"31\"
\"\",\"\",\"approach-retreat\",\"180\",\"1083120\",\"0.0-180.0\",\"\",\"\",\"3-4\",\"4168\",\"39\",\"1\",\"Testing\",\"Stims/Figures/27-C-30-1.bmp\",\"va:shasha\",\"Left\",\"39\",\"2\",\"8\",\"3B\",\"C1\",\"C\",\"32\"
\"\",\"\",\"approach-retreat\",\"181\",\"1088789\",\"0.0-181.0\",\"\",\"\",\"3-4\",\"4138\",\"39\",\"1\",\"Testing\",\"Stims/Figures/74-C-20-4.bmp\",\"va:shasha\",\"Left\",\"39\",\"2\",\"9\",\"3B\",\"C1\",\"C\",\"33\"
\"\",\"\",\"approach-retreat\",\"182\",\"1094439\",\"0.0-182.0\",\"\",\"\",\"3-4\",\"4126\",\"37\",\"1\",\"Testing\",\"Stims/Figures/87-C-20-4.bmp\",\"va:shasha\",\"Right\",\"37\",\"2\",\"10\",\"3B\",\"C1\",\"C\",\"34\"
\"\",\"\",\"approach-retreat\",\"183\",\"1100016\",\"0.0-183.0\",\"\",\"\",\"3-4\",\"4067\",\"40\",\"1\",\"Testing\",\"Stims/Figures/85-C-20-2.bmp\",\"va:shasha\",\"Up\",\"40\",\"2\",\"11\",\"3B\",\"C1\",\"C\",\"35\"
\"\",\"\",\"approach-retreat\",\"184\",\"1105674\",\"0.0-184.0\",\"\",\"\",\"3-4\",\"4145\",\"39\",\"1\",\"Testing\",\"Stims/Figures/44-J-10-3.bmp\",\"sa:saza\",\"Right\",\"39\",\"2\",\"12\",\"3B\",\"C2\",\"C\",\"36\"
\"\",\"\",\"approach-retreat\",\"185\",\"1111344\",\"0.0-185.0\",\"\",\"\",\"3-4\",\"4160\",\"40\",\"1\",\"Testing\",\"Stims/Figures/19-J-10-4.bmp\",\"sa:saza\",\"Down\",\"40\",\"2\",\"13\",\"3B\",\"C2\",\"C\",\"37\"
\"\",\"\",\"approach-retreat\",\"186\",\"1117106\",\"0.0-186.0\",\"\",\"\",\"3-4\",\"4225\",\"40\",\"1\",\"Testing\",\"Stims/Figures/71-C-30-1.bmp\",\"va:shasha\",\"Up\",\"40\",\"2\",\"14\",\"3B\",\"C1\",\"C\",\"38\"
\"\",\"\",\"approach-retreat\",\"187\",\"1122627\",\"0.0-187.0\",\"\",\"\",\"3-4\",\"4010\",\"38\",\"1\",\"Testing\",\"Stims/Figures/93-J-0-1.bmp\",\"sa:saza\",\"Up\",\"38\",\"2\",\"15\",\"3B\",\"C2\",\"C\",\"39\"
\"\",\"\",\"approach-retreat\",\"188\",\"1128437\",\"0.0-188.0\",\"\",\"\",\"3-4\",\"4276\",\"40\",\"1\",\"Testing\",\"Stims/Figures/71-J-0-1.bmp\",\"sa:saza\",\"Down\",\"40\",\"2\",\"16\",\"3B\",\"C2\",\"C\",\"40\"
\"\",\"\",\"approach-retreat\",\"189\",\"1134047\",\"0.0-189.0\",\"\",\"\",\"3-4\",\"4103\",\"38\",\"1\",\"Testing\",\"Stims/Figures/19-C-20-4.bmp\",\"va:shasha\",\"Down\",\"38\",\"2\",\"17\",\"3B\",\"C1\",\"C\",\"41\"
\"\",\"\",\"approach-retreat\",\"190\",\"1141452\",\"0.0-190.0\",\"\",\"\",\"3-4\",\"5888\",\"39\",\"1\",\"Testing\",\"Stims/Figures/87-J-10-4.bmp\",\"sa:saza\",\"Right\",\"39\",\"2\",\"18\",\"3B\",\"C2\",\"C\",\"42\"
\"\",\"\",\"approach-retreat\",\"191\",\"1147079\",\"0.0-191.0\",\"\",\"\",\"3-4\",\"4112\",\"37\",\"1\",\"Testing\",\"Stims/Figures/85-J-0-2.bmp\",\"sa:saza\",\"Left\",\"37\",\"2\",\"19\",\"3B\",\"C2\",\"C\",\"43\"
\"\",\"\",\"approach-retreat\",\"192\",\"1152724\",\"0.0-192.0\",\"\",\"\",\"3-4\",\"4123\",\"40\",\"1\",\"Testing\",\"Stims/Figures/100-C-30-3.bmp\",\"va:shasha\",\"Up\",\"40\",\"2\",\"20\",\"3B\",\"C1\",\"C\",\"44\"
\"\",\"\",\"approach-retreat\",\"193\",\"1158823\",\"0.0-193.0\",\"\",\"\",\"3-4\",\"4589\",\"39\",\"1\",\"Testing\",\"Stims/Figures/118-J-0-2.bmp\",\"sa:saza\",\"Right\",\"39\",\"2\",\"21\",\"3B\",\"C2\",\"C\",\"45\"
\"\",\"\",\"approach-retreat\",\"194\",\"1164472\",\"0.0-194.0\",\"\",\"\",\"3-4\",\"4139\",\"40\",\"1\",\"Testing\",\"Stims/Figures/74-J-10-4.bmp\",\"sa:saza\",\"Down\",\"40\",\"2\",\"22\",\"3B\",\"C2\",\"C\",\"46\"
\"\",\"\",\"approach-retreat\",\"195\",\"1170110\",\"0.0-195.0\",\"\",\"\",\"3-4\",\"4110\",\"37\",\"1\",\"Testing\",\"Stims/Figures/118-C-20-2.bmp\",\"va:shasha\",\"Right\",\"37\",\"2\",\"23\",\"3B\",\"C1\",\"C\",\"47\"
\"\",\"\",\"approach-retreat\",\"196\",\"1175685\",\"0.0-196.0\",\"\",\"\",\"3-4\",\"4064\",\"39\",\"1\",\"Testing\",\"Stims/Figures/27-J-0-1.bmp\",\"sa:saza\",\"Right\",\"39\",\"2\",\"24\",\"3B\",\"C2\",\"C\",\"48\"
\"\",\"\",\"approach-retreat\",\"197\",\"1181329\",\"0.0-197.0\",\"\",\"\",\"3-4\",\"4111\",\"38\",\"1\",\"Testing\",\"Stims/Figures/74-C-20-4.bmp\",\"va:shasha\",\"Down\",\"38\",\"3\",\"1\",\"3B\",\"C1\",\"C\",\"49\"
\"\",\"\",\"approach-retreat\",\"198\",\"1186965\",\"0.0-198.0\",\"\",\"\",\"3-4\",\"4109\",\"37\",\"1\",\"Testing\",\"Stims/Figures/139-J-0-2.bmp\",\"sa:saza\",\"Left\",\"37\",\"3\",\"2\",\"3B\",\"C2\",\"C\",\"50\"
\"\",\"\",\"approach-retreat\",\"199\",\"1192641\",\"0.0-199.0\",\"\",\"\",\"3-4\",\"4149\",\"38\",\"1\",\"Testing\",\"Stims/Figures/85-J-0-2.bmp\",\"sa:saza\",\"Up\",\"38\",\"3\",\"3\",\"3B\",\"C2\",\"C\",\"51\"
\"\",\"\",\"approach-retreat\",\"200\",\"1198465\",\"0.0-200.0\",\"\",\"\",\"3-4\",\"4301\",\"39\",\"1\",\"Testing\",\"Stims/Figures/71-C-30-1.bmp\",\"va:shasha\",\"Left\",\"39\",\"3\",\"4\",\"3B\",\"C1\",\"C\",\"52\"
\"\",\"\",\"approach-retreat\",\"201\",\"1204231\",\"0.0-201.0\",\"\",\"\",\"3-4\",\"4258\",\"38\",\"1\",\"Testing\",\"Stims/Figures/19-C-20-4.bmp\",\"va:shasha\",\"Down\",\"38\",\"3\",\"5\",\"3B\",\"C1\",\"C\",\"53\"
\"\",\"\",\"approach-retreat\",\"202\",\"1209888\",\"0.0-202.0\",\"\",\"\",\"3-4\",\"4150\",\"38\",\"1\",\"Testing\",\"Stims/Figures/128-C-30-3.bmp\",\"va:shasha\",\"Down\",\"38\",\"3\",\"6\",\"3B\",\"C1\",\"C\",\"54\"
\"\",\"\",\"approach-retreat\",\"203\",\"1215742\",\"0.0-203.0\",\"\",\"\",\"3-4\",\"4336\",\"40\",\"1\",\"Testing\",\"Stims/Figures/128-J-10-3.bmp\",\"sa:saza\",\"Down\",\"40\",\"3\",\"7\",\"3B\",\"C2\",\"C\",\"55\"
\"\",\"\",\"approach-retreat\",\"204\",\"1221474\",\"0.0-204.0\",\"\",\"\",\"3-4\",\"4222\",\"39\",\"1\",\"Testing\",\"Stims/Figures/118-C-20-2.bmp\",\"va:shasha\",\"Left\",\"39\",\"3\",\"8\",\"3B\",\"C1\",\"C\",\"56\"
\"\",\"\",\"approach-retreat\",\"205\",\"1227108\",\"0.0-205.0\",\"\",\"\",\"3-4\",\"4125\",\"37\",\"1\",\"Testing\",\"Stims/Figures/100-C-30-3.bmp\",\"va:shasha\",\"Right\",\"37\",\"3\",\"9\",\"3B\",\"C1\",\"C\",\"57\"
\"\",\"\",\"approach-retreat\",\"206\",\"1232775\",\"0.0-206.0\",\"\",\"\",\"3-4\",\"4139\",\"38\",\"1\",\"Testing\",\"Stims/Figures/44-C-30-3.bmp\",\"va:shasha\",\"Down\",\"38\",\"3\",\"10\",\"3B\",\"C1\",\"C\",\"58\"
\"\",\"\",\"approach-retreat\",\"207\",\"1239681\",\"0.0-207.0\",\"\",\"\",\"3-4\",\"5384\",\"38\",\"1\",\"Testing\",\"Stims/Figures/71-J-0-1.bmp\",\"sa:saza\",\"Up\",\"38\",\"3\",\"11\",\"3B\",\"C2\",\"C\",\"59\"
\"\",\"\",\"approach-retreat\",\"208\",\"1245459\",\"0.0-208.0\",\"\",\"\",\"3-4\",\"4270\",\"39\",\"1\",\"Testing\",\"Stims/Figures/93-C-30-1.bmp\",\"va:shasha\",\"Left\",\"39\",\"3\",\"12\",\"3B\",\"C1\",\"C\",\"60\"
\"\",\"\",\"approach-retreat\",\"209\",\"1251081\",\"0.0-209.0\",\"\",\"\",\"3-4\",\"4109\",\"39\",\"1\",\"Testing\",\"Stims/Figures/27-C-30-1.bmp\",\"va:shasha\",\"Left\",\"39\",\"3\",\"13\",\"3B\",\"C1\",\"C\",\"61\"
\"\",\"\",\"approach-retreat\",\"210\",\"1256692\",\"0.0-210.0\",\"\",\"\",\"3-4\",\"4091\",\"37\",\"1\",\"Testing\",\"Stims/Figures/44-J-10-3.bmp\",\"sa:saza\",\"Left\",\"37\",\"3\",\"14\",\"3B\",\"C2\",\"C\",\"62\"
\"\",\"\",\"approach-retreat\",\"211\",\"1262401\",\"0.0-211.0\",\"\",\"\",\"3-4\",\"4198\",\"38\",\"1\",\"Testing\",\"Stims/Figures/139-C-20-2.bmp\",\"va:shasha\",\"Down\",\"38\",\"3\",\"15\",\"3B\",\"C1\",\"C\",\"63\"
\"\",\"\",\"approach-retreat\",\"212\",\"1268167\",\"0.0-212.0\",\"\",\"\",\"3-4\",\"4237\",\"37\",\"1\",\"Testing\",\"Stims/Figures/87-C-20-4.bmp\",\"va:shasha\",\"Right\",\"37\",\"3\",\"16\",\"3B\",\"C1\",\"C\",\"64\"
\"\",\"\",\"approach-retreat\",\"213\",\"1273952\",\"0.0-213.0\",\"\",\"\",\"3-4\",\"4260\",\"39\",\"1\",\"Testing\",\"Stims/Figures/87-J-10-4.bmp\",\"sa:saza\",\"Right\",\"39\",\"3\",\"17\",\"3B\",\"C2\",\"C\",\"65\"
\"\",\"\",\"approach-retreat\",\"214\",\"1279466\",\"0.0-214.0\",\"\",\"\",\"3-4\",\"4002\",\"37\",\"1\",\"Testing\",\"Stims/Figures/85-C-20-2.bmp\",\"va:shasha\",\"Right\",\"37\",\"3\",\"18\",\"3B\",\"C1\",\"C\",\"66\"
\"\",\"\",\"approach-retreat\",\"215\",\"1286137\",\"0.0-215.0\",\"\",\"\",\"3-4\",\"5137\",\"39\",\"1\",\"Testing\",\"Stims/Figures/100-J-10-3.bmp\",\"sa:saza\",\"Right\",\"39\",\"3\",\"19\",\"3B\",\"C2\",\"C\",\"67\"
\"\",\"\",\"approach-retreat\",\"216\",\"1291782\",\"0.0-216.0\",\"\",\"\",\"3-4\",\"4135\",\"38\",\"1\",\"Testing\",\"Stims/Figures/74-J-10-4.bmp\",\"sa:saza\",\"Up\",\"38\",\"3\",\"20\",\"3B\",\"C2\",\"C\",\"68\"
\"\",\"\",\"approach-retreat\",\"217\",\"1297549\",\"0.0-217.0\",\"\",\"\",\"3-4\",\"4241\",\"38\",\"1\",\"Testing\",\"Stims/Figures/93-J-0-1.bmp\",\"sa:saza\",\"Up\",\"38\",\"3\",\"21\",\"3B\",\"C2\",\"C\",\"69\"
\"\",\"\",\"approach-retreat\",\"218\",\"1303236\",\"0.0-218.0\",\"\",\"\",\"3-4\",\"4177\",\"38\",\"1\",\"Testing\",\"Stims/Figures/27-J-0-1.bmp\",\"sa:saza\",\"Up\",\"38\",\"3\",\"22\",\"3B\",\"C2\",\"C\",\"70\"
\"\",\"\",\"approach-retreat\",\"219\",\"1311073\",\"0.0-219.0\",\"\",\"\",\"3-4\",\"6320\",\"37\",\"0\",\"Testing\",\"Stims/Figures/19-J-10-4.bmp\",\"sa:saza\",\"Right\",\"39\",\"3\",\"23\",\"3B\",\"C2\",\"C\",\"71\"
\"\",\"\",\"approach-retreat\",\"220\",\"1316916\",\"0.0-220.0\",\"\",\"\",\"3-4\",\"4314\",\"38\",\"1\",\"Testing\",\"Stims/Figures/118-J-0-2.bmp\",\"sa:saza\",\"Up\",\"38\",\"3\",\"24\",\"3B\",\"C2\",\"C\",\"72\"
\"\",\"\",\"approach-retreat\",\"221\",\"1324131\",\"0.0-221.0\",\"\",\"\",\"3-4\",\"5704\",\"37\",\"1\",\"Testing\",\"Stims/Figures/87-J-10-4.bmp\",\"sa:saza\",\"Left\",\"37\",\"4\",\"1\",\"3B\",\"C2\",\"C\",\"73\"
\"\",\"\",\"approach-retreat\",\"222\",\"1331247\",\"0.0-222.0\",\"\",\"\",\"3-4\",\"5605\",\"39\",\"1\",\"Testing\",\"Stims/Figures/128-J-10-3.bmp\",\"sa:saza\",\"Right\",\"39\",\"4\",\"2\",\"3B\",\"C2\",\"C\",\"74\"
\"\",\"\",\"approach-retreat\",\"223\",\"1336979\",\"0.0-223.0\",\"\",\"\",\"3-4\",\"4219\",\"38\",\"1\",\"Testing\",\"Stims/Figures/74-J-10-4.bmp\",\"sa:saza\",\"Up\",\"38\",\"4\",\"3\",\"3B\",\"C2\",\"C\",\"75\"
\"\",\"\",\"approach-retreat\",\"224\",\"1342737\",\"0.0-224.0\",\"\",\"\",\"3-4\",\"4248\",\"40\",\"1\",\"Testing\",\"Stims/Figures/118-J-0-2.bmp\",\"sa:saza\",\"Down\",\"40\",\"4\",\"4\",\"3B\",\"C2\",\"C\",\"76\"
\"\",\"\",\"approach-retreat\",\"225\",\"1348479\",\"0.0-225.0\",\"\",\"\",\"3-4\",\"4234\",\"40\",\"1\",\"Testing\",\"Stims/Figures/118-C-20-2.bmp\",\"va:shasha\",\"Up\",\"40\",\"4\",\"5\",\"3B\",\"C1\",\"C\",\"77\"
\"\",\"\",\"approach-retreat\",\"226\",\"1354144\",\"0.0-226.0\",\"\",\"\",\"3-4\",\"4156\",\"39\",\"1\",\"Testing\",\"Stims/Figures/44-C-30-3.bmp\",\"va:shasha\",\"Left\",\"39\",\"4\",\"6\",\"3B\",\"C1\",\"C\",\"78\"
\"\",\"\",\"approach-retreat\",\"227\",\"1359978\",\"0.0-227.0\",\"\",\"\",\"3-4\",\"4308\",\"38\",\"1\",\"Testing\",\"Stims/Figures/71-C-30-1.bmp\",\"va:shasha\",\"Down\",\"38\",\"4\",\"7\",\"3B\",\"C1\",\"C\",\"79\"
\"\",\"\",\"approach-retreat\",\"228\",\"1365555\",\"0.0-228.0\",\"\",\"\",\"3-4\",\"4051\",\"37\",\"1\",\"Testing\",\"Stims/Figures/87-C-20-4.bmp\",\"va:shasha\",\"Right\",\"37\",\"4\",\"8\",\"3B\",\"C1\",\"C\",\"80\"
\"\",\"\",\"approach-retreat\",\"229\",\"1371251\",\"0.0-229.0\",\"\",\"\",\"3-4\",\"4164\",\"39\",\"1\",\"Testing\",\"Stims/Figures/85-C-20-2.bmp\",\"va:shasha\",\"Left\",\"39\",\"4\",\"9\",\"3B\",\"C1\",\"C\",\"81\"
\"\",\"\",\"approach-retreat\",\"230\",\"1377013\",\"0.0-230.0\",\"\",\"\",\"3-4\",\"4241\",\"37\",\"1\",\"Testing\",\"Stims/Figures/27-J-0-1.bmp\",\"sa:saza\",\"Left\",\"37\",\"4\",\"10\",\"3B\",\"C2\",\"C\",\"82\"
\"\",\"\",\"approach-retreat\",\"231\",\"1382588\",\"0.0-231.0\",\"\",\"\",\"3-4\",\"4066\",\"39\",\"1\",\"Testing\",\"Stims/Figures/74-C-20-4.bmp\",\"va:shasha\",\"Left\",\"39\",\"4\",\"11\",\"3B\",\"C1\",\"C\",\"83\"
\"\",\"\",\"approach-retreat\",\"232\",\"1388722\",\"0.0-232.0\",\"\",\"\",\"3-4\",\"4603\",\"39\",\"1\",\"Testing\",\"Stims/Figures/85-J-0-2.bmp\",\"sa:saza\",\"Right\",\"39\",\"4\",\"12\",\"3B\",\"C2\",\"C\",\"84\"
\"\",\"\",\"approach-retreat\",\"233\",\"1394385\",\"0.0-233.0\",\"\",\"\",\"3-4\",\"4135\",\"38\",\"1\",\"Testing\",\"Stims/Figures/19-C-20-4.bmp\",\"va:shasha\",\"Down\",\"38\",\"4\",\"13\",\"3B\",\"C1\",\"C\",\"85\"
\"\",\"\",\"approach-retreat\",\"234\",\"1400591\",\"0.0-234.0\",\"\",\"\",\"3-4\",\"4696\",\"40\",\"1\",\"Testing\",\"Stims/Figures/139-J-0-2.bmp\",\"sa:saza\",\"Down\",\"40\",\"4\",\"14\",\"3B\",\"C2\",\"C\",\"86\"
\"\",\"\",\"approach-retreat\",\"235\",\"1406232\",\"0.0-235.0\",\"\",\"\",\"3-4\",\"4102\",\"39\",\"1\",\"Testing\",\"Stims/Figures/27-C-30-1.bmp\",\"va:shasha\",\"Left\",\"39\",\"4\",\"15\",\"3B\",\"C1\",\"C\",\"87\"
\"\",\"\",\"approach-retreat\",\"236\",\"1414945\",\"0.0-236.0\",\"\",\"\",\"3-4\",\"7183\",\"38\",\"1\",\"Testing\",\"Stims/Figures/19-J-10-4.bmp\",\"sa:saza\",\"Up\",\"38\",\"4\",\"16\",\"3B\",\"C2\",\"C\",\"88\"
\"\",\"\",\"approach-retreat\",\"237\",\"1420843\",\"0.0-237.0\",\"\",\"\",\"3-4\",\"4377\",\"40\",\"1\",\"Testing\",\"Stims/Figures/100-C-30-3.bmp\",\"va:shasha\",\"Up\",\"40\",\"4\",\"17\",\"3B\",\"C1\",\"C\",\"89\"
\"\",\"\",\"approach-retreat\",\"238\",\"1426435\",\"0.0-238.0\",\"\",\"\",\"3-4\",\"4080\",\"37\",\"1\",\"Testing\",\"Stims/Figures/128-C-30-3.bmp\",\"va:shasha\",\"Right\",\"37\",\"4\",\"18\",\"3B\",\"C1\",\"C\",\"90\"
\"\",\"\",\"approach-retreat\",\"239\",\"1432377\",\"0.0-239.0\",\"\",\"\",\"3-4\",\"4423\",\"40\",\"1\",\"Testing\",\"Stims/Figures/100-J-10-3.bmp\",\"sa:saza\",\"Down\",\"40\",\"4\",\"19\",\"3B\",\"C2\",\"C\",\"91\"
\"\",\"\",\"approach-retreat\",\"240\",\"1437929\",\"0.0-240.0\",\"\",\"\",\"3-4\",\"4043\",\"38\",\"1\",\"Testing\",\"Stims/Figures/71-J-0-1.bmp\",\"sa:saza\",\"Up\",\"38\",\"4\",\"20\",\"3B\",\"C2\",\"C\",\"92\"
\"\",\"\",\"approach-retreat\",\"241\",\"1443601\",\"0.0-241.0\",\"\",\"\",\"3-4\",\"4164\",\"38\",\"1\",\"Testing\",\"Stims/Figures/93-C-30-1.bmp\",\"va:shasha\",\"Down\",\"38\",\"4\",\"21\",\"3B\",\"C1\",\"C\",\"93\"
\"\",\"\",\"approach-retreat\",\"242\",\"1449529\",\"0.0-242.0\",\"\",\"\",\"3-4\",\"4420\",\"40\",\"1\",\"Testing\",\"Stims/Figures/139-C-20-2.bmp\",\"va:shasha\",\"Up\",\"40\",\"4\",\"22\",\"3B\",\"C1\",\"C\",\"94\"
\"\",\"\",\"approach-retreat\",\"243\",\"1455593\",\"0.0-243.0\",\"\",\"\",\"3-4\",\"4555\",\"39\",\"1\",\"Testing\",\"Stims/Figures/44-J-10-3.bmp\",\"sa:saza\",\"Right\",\"39\",\"4\",\"23\",\"3B\",\"C2\",\"C\",\"95\"
\"\",\"\",\"approach-retreat\",\"244\",\"1461241\",\"0.0-244.0\",\"\",\"\",\"3-4\",\"4140\",\"39\",\"1\",\"Testing\",\"Stims/Figures/93-J-0-1.bmp\",\"sa:saza\",\"Right\",\"39\",\"4\",\"24\",\"3B\",\"C2\",\"C\",\"96\"
\"29331\",\"\",\"survey-text\",\"245\",\"1490583\",\"0.0-245.0\",\"\",\"{\"\"Q0\"\":\"\"PS170051\"\"}\",\"\",\"\",\"\",\"\",\"\",\"\",\"\",\"\",\"\",\"\",\"\",\"\",\"\",\"\",\"\"
