\"rt\",\"key_press\",\"trial_type\",\"trial_index\",\"time_elapsed\",\"internal_node_id\",\"view_history\",\"responses\",\"Id\",\"Rt\",\"ResKeyCode\",\"ResCorr\",\"TrialType2\",\"Image\",\"Label\",\"Location\",\"CorrectResponse\",\"Block\",\"BlockTrial\",\"Condition\",\"LabelType\",\"Subcondition\",\"trialNum\"
\"36696\",\"32\",\"text\",\"0\",\"36701\",\"0.0-0.0-0.0\",\"\",\"\",\"\",\"\",\"\",\"\",\"\",\"\",\"\",\"\",\"\",\"\",\"\",\"\",\"\",\"\",\"\"
\"112316\",\"\",\"instructions\",\"1\",\"149024\",\"0.0-1.0\",\"[{\"\"page_index\"\":0,\"\"viewing_time\"\":112314}]\",\"\",\"\",\"\",\"\",\"\",\"\",\"\",\"\",\"\",\"\",\"\",\"\",\"\",\"\",\"\",\"\"
\"29553\",\"\",\"survey-multi-choice\",\"2\",\"178642\",\"0.0-2.0\",\"\",\"{\"\"Q0\"\":\"\"Da\"\",\"\"Q1\"\":\"\"Da\"\",\"\"Q2\"\":\"\"Da\"\",\"\"Q3\"\":\"\"Da\"\",\"\"Q4\"\":\"\"Da\"\",\"\"Q5\"\":\"\"Da\"\"}\",\"\",\"\",\"\",\"\",\"\",\"\",\"\",\"\",\"\",\"\",\"\",\"\",\"\",\"\",\"\"
\"\",\"\",\"bio\",\"3\",\"187657\",\"0.0-3.0\",\"\",\"{\"\"age\"\":\"\"21\"\",\"\"gender\"\":\"\"f\"\",\"\"specify\"\":\"\"\"\"}\",\"\",\"\",\"\",\"\",\"\",\"\",\"\",\"\",\"\",\"\",\"\",\"\",\"\",\"\",\"\"
\"\",\"\",\"approach-retreat\",\"4\",\"210567\",\"0.0-4.0\",\"\",\"\",\"2-5\",\"21396\",\"38\",\"1\",\"Training\",\"Stims/Figures/93-C-30-1.bmp\",\"paka:ka\",\"Down\",\"38\",\"1\",\"1\",\"7\",\"P\",\"C\",\"1\"
\"\",\"\",\"approach-retreat\",\"5\",\"229169\",\"0.0-5.0\",\"\",\"\",\"2-5\",\"17087\",\"37\",\"0\",\"Training\",\"Stims/Figures/7-C-20-4.bmp\",\"mama:na\",\"Left\",\"39\",\"1\",\"2\",\"7\",\"S\",\"C\",\"2\"
\"\",\"\",\"approach-retreat\",\"6\",\"239399\",\"0.0-6.0\",\"\",\"\",\"2-5\",\"8712\",\"39\",\"0\",\"Training\",\"Stims/Figures/19-J-10-4.bmp\",\"nalana\",\"Left\",\"37\",\"1\",\"3\",\"7\",\"S\",\"C\",\"3\"
\"\",\"\",\"approach-retreat\",\"7\",\"245823\",\"0.0-7.0\",\"\",\"\",\"2-5\",\"4914\",\"40\",\"1\",\"Training\",\"Stims/Figures/44-C-30-3.bmp\",\"mama:la\",\"Up\",\"40\",\"1\",\"4\",\"7\",\"S\",\"C\",\"4\"
\"\",\"\",\"approach-retreat\",\"8\",\"251838\",\"0.0-8.0\",\"\",\"\",\"2-5\",\"4507\",\"37\",\"0\",\"Training\",\"Stims/Figures/44-J-10-3.bmp\",\"ma:ma:na\",\"Right\",\"39\",\"1\",\"5\",\"7\",\"S\",\"C\",\"5\"
\"\",\"\",\"approach-retreat\",\"9\",\"260037\",\"0.0-9.0\",\"\",\"\",\"2-5\",\"6681\",\"37\",\"0\",\"Training\",\"Stims/Figures/71-J-0-1.bmp\",\"takata\",\"Right\",\"39\",\"1\",\"6\",\"7\",\"P\",\"C\",\"6\"
\"\",\"\",\"approach-retreat\",\"10\",\"283198\",\"0.0-10.0\",\"\",\"\",\"2-5\",\"21647\",\"39\",\"0\",\"Training\",\"Stims/Figures/84-J-0-2.bmp\",\"ta:pa:ta\",\"Left\",\"37\",\"1\",\"7\",\"7\",\"P\",\"C\",\"7\"
\"\",\"\",\"approach-retreat\",\"11\",\"291273\",\"0.0-11.0\",\"\",\"\",\"2-5\",\"6567\",\"40\",\"1\",\"Training\",\"Stims/Figures/7-J-10-4.bmp\",\"na:lana\",\"Down\",\"40\",\"1\",\"8\",\"7\",\"S\",\"C\",\"8\"
\"\",\"\",\"approach-retreat\",\"12\",\"297518\",\"0.0-12.0\",\"\",\"\",\"2-5\",\"4728\",\"40\",\"0\",\"Training\",\"Stims/Figures/93-J-0-1.bmp\",\"tapa:ta\",\"Up\",\"38\",\"1\",\"9\",\"7\",\"P\",\"C\",\"9\"
\"\",\"\",\"approach-retreat\",\"13\",\"303685\",\"0.0-13.0\",\"\",\"\",\"2-5\",\"4648\",\"38\",\"1\",\"Training\",\"Stims/Figures/118-J-0-2.bmp\",\"pa:kata\",\"Up\",\"38\",\"1\",\"10\",\"7\",\"P\",\"C\",\"10\"
\"\",\"\",\"approach-retreat\",\"14\",\"309591\",\"0.0-14.0\",\"\",\"\",\"2-5\",\"4382\",\"40\",\"1\",\"Training\",\"Stims/Figures/128-J-10-3.bmp\",\"na:ma:la\",\"Down\",\"40\",\"1\",\"11\",\"7\",\"S\",\"C\",\"11\"
\"\",\"\",\"approach-retreat\",\"15\",\"316710\",\"0.0-15.0\",\"\",\"\",\"2-5\",\"5607\",\"40\",\"1\",\"Training\",\"Stims/Figures/84-C-20-2.bmp\",\"pa:pata\",\"Up\",\"40\",\"1\",\"12\",\"7\",\"P\",\"C\",\"12\"
\"\",\"\",\"approach-retreat\",\"16\",\"322688\",\"0.0-16.0\",\"\",\"\",\"2-5\",\"4465\",\"40\",\"0\",\"Training\",\"Stims/Figures/71-C-30-1.bmp\",\"ta:ka:ta\",\"Down\",\"38\",\"1\",\"13\",\"7\",\"P\",\"C\",\"13\"
\"\",\"\",\"approach-retreat\",\"17\",\"328534\",\"0.0-17.0\",\"\",\"\",\"2-5\",\"4337\",\"37\",\"1\",\"Training\",\"Stims/Figures/128-C-30-3.bmp\",\"namala\",\"Right\",\"37\",\"1\",\"14\",\"7\",\"S\",\"C\",\"14\"
\"\",\"\",\"approach-retreat\",\"18\",\"334376\",\"0.0-18.0\",\"\",\"\",\"2-5\",\"4326\",\"39\",\"0\",\"Training\",\"Stims/Figures/19-C-20-4.bmp\",\"ma:ma:la\",\"Right\",\"37\",\"1\",\"15\",\"7\",\"S\",\"C\",\"15\"
\"\",\"\",\"approach-retreat\",\"19\",\"340147\",\"0.0-19.0\",\"\",\"\",\"2-5\",\"4258\",\"39\",\"1\",\"Training\",\"Stims/Figures/118-C-20-2.bmp\",\"pa:pa:ka\",\"Left\",\"39\",\"1\",\"16\",\"7\",\"P\",\"C\",\"16\"
\"\",\"\",\"approach-retreat\",\"20\",\"345775\",\"0.0-20.0\",\"\",\"\",\"2-5\",\"4122\",\"40\",\"1\",\"Training\",\"Stims/Figures/118-C-20-2.bmp\",\"pa:pa:ka\",\"Up\",\"40\",\"2\",\"1\",\"7\",\"P\",\"C\",\"17\"
\"\",\"\",\"approach-retreat\",\"21\",\"351504\",\"0.0-21.0\",\"\",\"\",\"2-5\",\"4221\",\"37\",\"1\",\"Training\",\"Stims/Figures/84-C-20-2.bmp\",\"pa:pata\",\"Right\",\"37\",\"2\",\"2\",\"7\",\"P\",\"C\",\"18\"
\"\",\"\",\"approach-retreat\",\"22\",\"361136\",\"0.0-22.0\",\"\",\"\",\"2-5\",\"8126\",\"37\",\"1\",\"Training\",\"Stims/Figures/128-J-10-3.bmp\",\"na:ma:la\",\"Left\",\"37\",\"2\",\"3\",\"7\",\"S\",\"C\",\"19\"
\"\",\"\",\"approach-retreat\",\"23\",\"366917\",\"0.0-23.0\",\"\",\"\",\"2-5\",\"4275\",\"39\",\"1\",\"Training\",\"Stims/Figures/93-J-0-1.bmp\",\"tapa:ta\",\"Right\",\"39\",\"2\",\"4\",\"7\",\"P\",\"C\",\"20\"
\"\",\"\",\"approach-retreat\",\"24\",\"373503\",\"0.0-24.0\",\"\",\"\",\"2-5\",\"5073\",\"40\",\"1\",\"Training\",\"Stims/Figures/71-C-30-1.bmp\",\"ta:ka:ta\",\"Up\",\"40\",\"2\",\"5\",\"7\",\"P\",\"C\",\"21\"
\"\",\"\",\"approach-retreat\",\"25\",\"379758\",\"0.0-25.0\",\"\",\"\",\"2-5\",\"4740\",\"37\",\"0\",\"Training\",\"Stims/Figures/93-C-30-1.bmp\",\"paka:ka\",\"Left\",\"39\",\"2\",\"6\",\"7\",\"P\",\"C\",\"22\"
\"\",\"\",\"approach-retreat\",\"26\",\"385216\",\"0.0-26.0\",\"\",\"\",\"2-5\",\"3952\",\"39\",\"1\",\"Training\",\"Stims/Figures/19-C-20-4.bmp\",\"ma:ma:la\",\"Left\",\"39\",\"2\",\"7\",\"7\",\"S\",\"C\",\"23\"
\"\",\"\",\"approach-retreat\",\"27\",\"390989\",\"0.0-27.0\",\"\",\"\",\"2-5\",\"4266\",\"40\",\"0\",\"Training\",\"Stims/Figures/44-J-10-3.bmp\",\"ma:ma:na\",\"Up\",\"38\",\"2\",\"8\",\"7\",\"S\",\"C\",\"24\"
\"\",\"\",\"approach-retreat\",\"28\",\"396763\",\"0.0-28.0\",\"\",\"\",\"2-5\",\"4260\",\"40\",\"1\",\"Training\",\"Stims/Figures/118-J-0-2.bmp\",\"pa:kata\",\"Down\",\"40\",\"2\",\"9\",\"7\",\"P\",\"C\",\"25\"
\"\",\"\",\"approach-retreat\",\"29\",\"403707\",\"0.0-29.0\",\"\",\"\",\"2-5\",\"5431\",\"37\",\"0\",\"Training\",\"Stims/Figures/128-C-30-3.bmp\",\"namala\",\"Left\",\"39\",\"2\",\"10\",\"7\",\"S\",\"C\",\"26\"
\"\",\"\",\"approach-retreat\",\"30\",\"409197\",\"0.0-30.0\",\"\",\"\",\"2-5\",\"3974\",\"40\",\"0\",\"Training\",\"Stims/Figures/7-C-20-4.bmp\",\"mama:na\",\"Down\",\"38\",\"2\",\"11\",\"7\",\"S\",\"C\",\"27\"
\"\",\"\",\"approach-retreat\",\"31\",\"414888\",\"0.0-31.0\",\"\",\"\",\"2-5\",\"4183\",\"37\",\"0\",\"Training\",\"Stims/Figures/84-J-0-2.bmp\",\"ta:pa:ta\",\"Right\",\"39\",\"2\",\"12\",\"7\",\"P\",\"C\",\"28\"
\"\",\"\",\"approach-retreat\",\"32\",\"421187\",\"0.0-32.0\",\"\",\"\",\"2-5\",\"4787\",\"40\",\"0\",\"Training\",\"Stims/Figures/19-J-10-4.bmp\",\"nalana\",\"Up\",\"38\",\"2\",\"13\",\"7\",\"S\",\"C\",\"29\"
\"\",\"\",\"approach-retreat\",\"33\",\"437968\",\"0.0-33.0\",\"\",\"\",\"2-5\",\"15266\",\"38\",\"0\",\"Training\",\"Stims/Figures/71-J-0-1.bmp\",\"takata\",\"Down\",\"40\",\"2\",\"14\",\"7\",\"P\",\"C\",\"30\"
\"\",\"\",\"approach-retreat\",\"34\",\"444251\",\"0.0-34.0\",\"\",\"\",\"2-5\",\"4776\",\"40\",\"1\",\"Training\",\"Stims/Figures/7-J-10-4.bmp\",\"na:lana\",\"Down\",\"40\",\"2\",\"15\",\"7\",\"S\",\"C\",\"31\"
\"\",\"\",\"approach-retreat\",\"35\",\"450135\",\"0.0-35.0\",\"\",\"\",\"2-5\",\"4377\",\"37\",\"1\",\"Training\",\"Stims/Figures/44-C-30-3.bmp\",\"mama:la\",\"Right\",\"37\",\"2\",\"16\",\"7\",\"S\",\"C\",\"32\"
\"\",\"\",\"approach-retreat\",\"36\",\"455939\",\"0.0-36.0\",\"\",\"\",\"2-5\",\"4297\",\"37\",\"1\",\"Training\",\"Stims/Figures/71-J-0-1.bmp\",\"takata\",\"Left\",\"37\",\"3\",\"1\",\"7\",\"P\",\"C\",\"33\"
\"\",\"\",\"approach-retreat\",\"37\",\"463145\",\"0.0-37.0\",\"\",\"\",\"2-5\",\"5693\",\"39\",\"1\",\"Training\",\"Stims/Figures/7-J-10-4.bmp\",\"na:lana\",\"Right\",\"39\",\"3\",\"2\",\"7\",\"S\",\"C\",\"34\"
\"\",\"\",\"approach-retreat\",\"38\",\"468946\",\"0.0-38.0\",\"\",\"\",\"2-5\",\"4291\",\"40\",\"1\",\"Training\",\"Stims/Figures/84-C-20-2.bmp\",\"pa:pata\",\"Up\",\"40\",\"3\",\"3\",\"7\",\"P\",\"C\",\"35\"
\"\",\"\",\"approach-retreat\",\"39\",\"474727\",\"0.0-39.0\",\"\",\"\",\"2-5\",\"4266\",\"40\",\"0\",\"Training\",\"Stims/Figures/118-J-0-2.bmp\",\"pa:kata\",\"Up\",\"38\",\"3\",\"4\",\"7\",\"P\",\"C\",\"36\"
\"\",\"\",\"approach-retreat\",\"40\",\"480667\",\"0.0-40.0\",\"\",\"\",\"2-5\",\"4427\",\"39\",\"0\",\"Training\",\"Stims/Figures/7-C-20-4.bmp\",\"mama:na\",\"Right\",\"37\",\"3\",\"5\",\"7\",\"S\",\"C\",\"37\"
\"\",\"\",\"approach-retreat\",\"41\",\"486386\",\"0.0-41.0\",\"\",\"\",\"2-5\",\"4212\",\"38\",\"0\",\"Training\",\"Stims/Figures/44-J-10-3.bmp\",\"ma:ma:na\",\"Down\",\"40\",\"3\",\"6\",\"7\",\"S\",\"C\",\"38\"
\"\",\"\",\"approach-retreat\",\"42\",\"491986\",\"0.0-42.0\",\"\",\"\",\"2-5\",\"4091\",\"39\",\"0\",\"Training\",\"Stims/Figures/93-C-30-1.bmp\",\"paka:ka\",\"Right\",\"37\",\"3\",\"7\",\"7\",\"P\",\"C\",\"39\"
\"\",\"\",\"approach-retreat\",\"43\",\"497758\",\"0.0-43.0\",\"\",\"\",\"2-5\",\"4259\",\"37\",\"0\",\"Training\",\"Stims/Figures/118-C-20-2.bmp\",\"pa:pa:ka\",\"Left\",\"39\",\"3\",\"8\",\"7\",\"P\",\"C\",\"40\"
\"\",\"\",\"approach-retreat\",\"44\",\"503486\",\"0.0-44.0\",\"\",\"\",\"2-5\",\"4214\",\"38\",\"0\",\"Training\",\"Stims/Figures/19-C-20-4.bmp\",\"ma:ma:la\",\"Up\",\"40\",\"3\",\"9\",\"7\",\"S\",\"C\",\"41\"
\"\",\"\",\"approach-retreat\",\"45\",\"509136\",\"0.0-45.0\",\"\",\"\",\"2-5\",\"4136\",\"38\",\"0\",\"Training\",\"Stims/Figures/93-J-0-1.bmp\",\"tapa:ta\",\"Down\",\"40\",\"3\",\"10\",\"7\",\"P\",\"C\",\"42\"
\"\",\"\",\"approach-retreat\",\"46\",\"514618\",\"0.0-46.0\",\"\",\"\",\"2-5\",\"3970\",\"39\",\"1\",\"Training\",\"Stims/Figures/128-J-10-3.bmp\",\"na:ma:la\",\"Right\",\"39\",\"3\",\"11\",\"7\",\"S\",\"C\",\"43\"
\"\",\"\",\"approach-retreat\",\"47\",\"520358\",\"0.0-47.0\",\"\",\"\",\"2-5\",\"4220\",\"37\",\"0\",\"Training\",\"Stims/Figures/128-C-30-3.bmp\",\"namala\",\"Left\",\"39\",\"3\",\"12\",\"7\",\"S\",\"C\",\"44\"
\"\",\"\",\"approach-retreat\",\"48\",\"526049\",\"0.0-48.0\",\"\",\"\",\"2-5\",\"4186\",\"37\",\"1\",\"Training\",\"Stims/Figures/19-J-10-4.bmp\",\"nalana\",\"Left\",\"37\",\"3\",\"13\",\"7\",\"S\",\"C\",\"45\"
\"\",\"\",\"approach-retreat\",\"49\",\"531598\",\"0.0-49.0\",\"\",\"\",\"2-5\",\"4045\",\"40\",\"1\",\"Training\",\"Stims/Figures/84-J-0-2.bmp\",\"ta:pa:ta\",\"Down\",\"40\",\"3\",\"14\",\"7\",\"P\",\"C\",\"46\"
\"\",\"\",\"approach-retreat\",\"50\",\"537127\",\"0.0-50.0\",\"\",\"\",\"2-5\",\"4019\",\"40\",\"0\",\"Training\",\"Stims/Figures/71-C-30-1.bmp\",\"ta:ka:ta\",\"Down\",\"38\",\"3\",\"15\",\"7\",\"P\",\"C\",\"47\"
\"\",\"\",\"approach-retreat\",\"51\",\"543186\",\"0.0-51.0\",\"\",\"\",\"2-5\",\"4547\",\"38\",\"0\",\"Training\",\"Stims/Figures/44-C-30-3.bmp\",\"mama:la\",\"Up\",\"40\",\"3\",\"16\",\"7\",\"S\",\"C\",\"48\"
\"\",\"\",\"approach-retreat\",\"52\",\"548569\",\"0.0-52.0\",\"\",\"\",\"2-5\",\"3877\",\"40\",\"1\",\"Training\",\"Stims/Figures/19-J-10-4.bmp\",\"nalana\",\"Down\",\"40\",\"4\",\"1\",\"7\",\"S\",\"C\",\"49\"
\"\",\"\",\"approach-retreat\",\"53\",\"556080\",\"0.0-53.0\",\"\",\"\",\"2-5\",\"6005\",\"38\",\"1\",\"Training\",\"Stims/Figures/71-J-0-1.bmp\",\"takata\",\"Up\",\"38\",\"4\",\"2\",\"7\",\"P\",\"C\",\"50\"
\"\",\"\",\"approach-retreat\",\"54\",\"561746\",\"0.0-54.0\",\"\",\"\",\"2-5\",\"4156\",\"37\",\"0\",\"Training\",\"Stims/Figures/84-C-20-2.bmp\",\"pa:pata\",\"Left\",\"39\",\"4\",\"3\",\"7\",\"P\",\"C\",\"51\"
\"\",\"\",\"approach-retreat\",\"55\",\"567302\",\"0.0-55.0\",\"\",\"\",\"2-5\",\"4050\",\"39\",\"1\",\"Training\",\"Stims/Figures/93-J-0-1.bmp\",\"tapa:ta\",\"Right\",\"39\",\"4\",\"4\",\"7\",\"P\",\"C\",\"52\"
\"\",\"\",\"approach-retreat\",\"56\",\"573349\",\"0.0-56.0\",\"\",\"\",\"2-5\",\"4541\",\"39\",\"1\",\"Training\",\"Stims/Figures/118-J-0-2.bmp\",\"pa:kata\",\"Right\",\"39\",\"4\",\"5\",\"7\",\"P\",\"C\",\"53\"
\"\",\"\",\"approach-retreat\",\"57\",\"579022\",\"0.0-57.0\",\"\",\"\",\"2-5\",\"4163\",\"39\",\"1\",\"Training\",\"Stims/Figures/19-C-20-4.bmp\",\"ma:ma:la\",\"Left\",\"39\",\"4\",\"6\",\"7\",\"S\",\"C\",\"54\"
\"\",\"\",\"approach-retreat\",\"58\",\"586856\",\"0.0-58.0\",\"\",\"\",\"2-5\",\"6325\",\"38\",\"0\",\"Training\",\"Stims/Figures/128-C-30-3.bmp\",\"namala\",\"Up\",\"40\",\"4\",\"7\",\"7\",\"S\",\"C\",\"55\"
\"\",\"\",\"approach-retreat\",\"59\",\"592736\",\"0.0-59.0\",\"\",\"\",\"2-5\",\"4374\",\"37\",\"0\",\"Training\",\"Stims/Figures/93-C-30-1.bmp\",\"paka:ka\",\"Left\",\"39\",\"4\",\"8\",\"7\",\"P\",\"C\",\"56\"
\"\",\"\",\"approach-retreat\",\"60\",\"598446\",\"0.0-60.0\",\"\",\"\",\"2-5\",\"4198\",\"39\",\"0\",\"Training\",\"Stims/Figures/128-J-10-3.bmp\",\"na:ma:la\",\"Left\",\"37\",\"4\",\"9\",\"7\",\"S\",\"C\",\"57\"
\"\",\"\",\"approach-retreat\",\"61\",\"604135\",\"0.0-61.0\",\"\",\"\",\"2-5\",\"4169\",\"40\",\"0\",\"Training\",\"Stims/Figures/44-J-10-3.bmp\",\"ma:ma:na\",\"Up\",\"38\",\"4\",\"10\",\"7\",\"S\",\"C\",\"58\"
\"\",\"\",\"approach-retreat\",\"62\",\"609984\",\"0.0-62.0\",\"\",\"\",\"2-5\",\"4345\",\"38\",\"1\",\"Training\",\"Stims/Figures/44-C-30-3.bmp\",\"mama:la\",\"Down\",\"38\",\"4\",\"11\",\"7\",\"S\",\"C\",\"59\"
\"\",\"\",\"approach-retreat\",\"63\",\"615785\",\"0.0-63.0\",\"\",\"\",\"2-5\",\"4287\",\"39\",\"0\",\"Training\",\"Stims/Figures/118-C-20-2.bmp\",\"pa:pa:ka\",\"Right\",\"37\",\"4\",\"12\",\"7\",\"P\",\"C\",\"60\"
\"\",\"\",\"approach-retreat\",\"64\",\"621377\",\"0.0-64.0\",\"\",\"\",\"2-5\",\"4077\",\"38\",\"0\",\"Training\",\"Stims/Figures/84-J-0-2.bmp\",\"ta:pa:ta\",\"Down\",\"40\",\"4\",\"13\",\"7\",\"P\",\"C\",\"61\"
\"\",\"\",\"approach-retreat\",\"65\",\"627765\",\"0.0-65.0\",\"\",\"\",\"2-5\",\"4882\",\"38\",\"1\",\"Training\",\"Stims/Figures/71-C-30-1.bmp\",\"ta:ka:ta\",\"Down\",\"38\",\"4\",\"14\",\"7\",\"P\",\"C\",\"62\"
\"\",\"\",\"approach-retreat\",\"66\",\"633636\",\"0.0-66.0\",\"\",\"\",\"2-5\",\"4359\",\"40\",\"0\",\"Training\",\"Stims/Figures/7-J-10-4.bmp\",\"na:lana\",\"Up\",\"38\",\"4\",\"15\",\"7\",\"S\",\"C\",\"63\"
\"\",\"\",\"approach-retreat\",\"67\",\"639992\",\"0.0-67.0\",\"\",\"\",\"2-5\",\"4851\",\"37\",\"1\",\"Training\",\"Stims/Figures/7-C-20-4.bmp\",\"mama:na\",\"Right\",\"37\",\"4\",\"16\",\"7\",\"S\",\"C\",\"64\"
\"\",\"\",\"approach-retreat\",\"68\",\"646070\",\"0.0-68.0\",\"\",\"\",\"2-5\",\"4570\",\"38\",\"1\",\"Training\",\"Stims/Figures/19-C-20-4.bmp\",\"ma:ma:la\",\"Down\",\"38\",\"5\",\"1\",\"7\",\"S\",\"C\",\"65\"
\"\",\"\",\"approach-retreat\",\"69\",\"651454\",\"0.0-69.0\",\"\",\"\",\"2-5\",\"3869\",\"40\",\"0\",\"Training\",\"Stims/Figures/19-J-10-4.bmp\",\"nalana\",\"Up\",\"38\",\"5\",\"2\",\"7\",\"S\",\"C\",\"66\"
\"\",\"\",\"approach-retreat\",\"70\",\"658601\",\"0.0-70.0\",\"\",\"\",\"2-5\",\"5642\",\"37\",\"1\",\"Training\",\"Stims/Figures/118-C-20-2.bmp\",\"pa:pa:ka\",\"Right\",\"37\",\"5\",\"3\",\"7\",\"P\",\"C\",\"67\"
\"\",\"\",\"approach-retreat\",\"71\",\"667375\",\"0.0-71.0\",\"\",\"\",\"2-5\",\"7267\",\"38\",\"1\",\"Training\",\"Stims/Figures/128-J-10-3.bmp\",\"na:ma:la\",\"Up\",\"38\",\"5\",\"4\",\"7\",\"S\",\"C\",\"68\"
\"\",\"\",\"approach-retreat\",\"72\",\"673616\",\"0.0-72.0\",\"\",\"\",\"2-5\",\"4736\",\"39\",\"1\",\"Training\",\"Stims/Figures/7-J-10-4.bmp\",\"na:lana\",\"Right\",\"39\",\"5\",\"5\",\"7\",\"S\",\"C\",\"69\"
\"\",\"\",\"approach-retreat\",\"73\",\"679327\",\"0.0-73.0\",\"\",\"\",\"2-5\",\"4206\",\"40\",\"1\",\"Training\",\"Stims/Figures/44-C-30-3.bmp\",\"mama:la\",\"Up\",\"40\",\"5\",\"6\",\"7\",\"S\",\"C\",\"70\"
\"\",\"\",\"approach-retreat\",\"74\",\"685181\",\"0.0-74.0\",\"\",\"\",\"2-5\",\"4349\",\"38\",\"1\",\"Training\",\"Stims/Figures/93-C-30-1.bmp\",\"paka:ka\",\"Down\",\"38\",\"5\",\"7\",\"7\",\"P\",\"C\",\"71\"
\"\",\"\",\"approach-retreat\",\"75\",\"691145\",\"0.0-75.0\",\"\",\"\",\"2-5\",\"4450\",\"37\",\"0\",\"Training\",\"Stims/Figures/71-J-0-1.bmp\",\"takata\",\"Right\",\"39\",\"5\",\"8\",\"7\",\"P\",\"C\",\"72\"
\"\",\"\",\"approach-retreat\",\"76\",\"696735\",\"0.0-76.0\",\"\",\"\",\"2-5\",\"4078\",\"39\",\"0\",\"Training\",\"Stims/Figures/44-J-10-3.bmp\",\"ma:ma:na\",\"Left\",\"37\",\"5\",\"9\",\"7\",\"S\",\"C\",\"73\"
\"\",\"\",\"approach-retreat\",\"77\",\"702724\",\"0.0-77.0\",\"\",\"\",\"2-5\",\"4484\",\"38\",\"1\",\"Training\",\"Stims/Figures/118-J-0-2.bmp\",\"pa:kata\",\"Up\",\"38\",\"5\",\"10\",\"7\",\"P\",\"C\",\"74\"
\"\",\"\",\"approach-retreat\",\"78\",\"709395\",\"0.0-78.0\",\"\",\"\",\"2-5\",\"5164\",\"39\",\"0\",\"Training\",\"Stims/Figures/84-J-0-2.bmp\",\"ta:pa:ta\",\"Left\",\"37\",\"5\",\"11\",\"7\",\"P\",\"C\",\"75\"
\"\",\"\",\"approach-retreat\",\"79\",\"715612\",\"0.0-79.0\",\"\",\"\",\"2-5\",\"4712\",\"38\",\"1\",\"Training\",\"Stims/Figures/71-C-30-1.bmp\",\"ta:ka:ta\",\"Down\",\"38\",\"5\",\"12\",\"7\",\"P\",\"C\",\"76\"
\"\",\"\",\"approach-retreat\",\"80\",\"728225\",\"0.0-80.0\",\"\",\"\",\"2-5\",\"11102\",\"39\",\"0\",\"Training\",\"Stims/Figures/93-J-0-1.bmp\",\"tapa:ta\",\"Left\",\"37\",\"5\",\"13\",\"7\",\"P\",\"C\",\"77\"
\"\",\"\",\"approach-retreat\",\"81\",\"734535\",\"0.0-81.0\",\"\",\"\",\"2-5\",\"4801\",\"37\",\"0\",\"Training\",\"Stims/Figures/128-C-30-3.bmp\",\"namala\",\"Left\",\"39\",\"5\",\"14\",\"7\",\"S\",\"C\",\"78\"
\"\",\"\",\"approach-retreat\",\"82\",\"743681\",\"0.0-82.0\",\"\",\"\",\"2-5\",\"7641\",\"37\",\"1\",\"Training\",\"Stims/Figures/84-C-20-2.bmp\",\"pa:pata\",\"Right\",\"37\",\"5\",\"15\",\"7\",\"P\",\"C\",\"79\"
\"\",\"\",\"approach-retreat\",\"83\",\"749575\",\"0.0-83.0\",\"\",\"\",\"2-5\",\"4389\",\"38\",\"1\",\"Training\",\"Stims/Figures/7-C-20-4.bmp\",\"mama:na\",\"Down\",\"38\",\"5\",\"16\",\"7\",\"S\",\"C\",\"80\"
\"\",\"\",\"approach-retreat\",\"84\",\"755449\",\"0.0-84.0\",\"\",\"\",\"2-5\",\"4369\",\"39\",\"1\",\"Training\",\"Stims/Figures/7-C-20-4.bmp\",\"mama:na\",\"Left\",\"39\",\"6\",\"1\",\"7\",\"S\",\"C\",\"81\"
\"\",\"\",\"approach-retreat\",\"85\",\"761682\",\"0.0-85.0\",\"\",\"\",\"2-5\",\"4726\",\"38\",\"1\",\"Training\",\"Stims/Figures/84-J-0-2.bmp\",\"ta:pa:ta\",\"Up\",\"38\",\"6\",\"2\",\"7\",\"P\",\"C\",\"82\"
\"\",\"\",\"approach-retreat\",\"86\",\"768145\",\"0.0-86.0\",\"\",\"\",\"2-5\",\"4951\",\"39\",\"0\",\"Training\",\"Stims/Figures/128-J-10-3.bmp\",\"na:ma:la\",\"Left\",\"37\",\"6\",\"3\",\"7\",\"S\",\"C\",\"83\"
\"\",\"\",\"approach-retreat\",\"87\",\"773816\",\"0.0-87.0\",\"\",\"\",\"2-5\",\"4156\",\"37\",\"0\",\"Training\",\"Stims/Figures/93-J-0-1.bmp\",\"tapa:ta\",\"Right\",\"39\",\"6\",\"4\",\"7\",\"P\",\"C\",\"84\"
\"\",\"\",\"approach-retreat\",\"88\",\"779545\",\"0.0-88.0\",\"\",\"\",\"2-5\",\"4223\",\"40\",\"0\",\"Training\",\"Stims/Figures/118-J-0-2.bmp\",\"pa:kata\",\"Up\",\"38\",\"6\",\"5\",\"7\",\"P\",\"C\",\"85\"
\"\",\"\",\"approach-retreat\",\"89\",\"785491\",\"0.0-89.0\",\"\",\"\",\"2-5\",\"4441\",\"38\",\"1\",\"Training\",\"Stims/Figures/93-C-30-1.bmp\",\"paka:ka\",\"Down\",\"38\",\"6\",\"6\",\"7\",\"P\",\"C\",\"86\"
\"\",\"\",\"approach-retreat\",\"90\",\"791143\",\"0.0-90.0\",\"\",\"\",\"2-5\",\"4147\",\"37\",\"1\",\"Training\",\"Stims/Figures/44-C-30-3.bmp\",\"mama:la\",\"Right\",\"37\",\"6\",\"7\",\"7\",\"S\",\"C\",\"87\"
\"\",\"\",\"approach-retreat\",\"91\",\"796724\",\"0.0-91.0\",\"\",\"\",\"2-5\",\"4075\",\"40\",\"1\",\"Training\",\"Stims/Figures/71-J-0-1.bmp\",\"takata\",\"Down\",\"40\",\"6\",\"8\",\"7\",\"P\",\"C\",\"88\"
\"\",\"\",\"approach-retreat\",\"92\",\"802315\",\"0.0-92.0\",\"\",\"\",\"2-5\",\"4085\",\"38\",\"1\",\"Training\",\"Stims/Figures/19-C-20-4.bmp\",\"ma:ma:la\",\"Down\",\"38\",\"6\",\"9\",\"7\",\"S\",\"C\",\"89\"
\"\",\"\",\"approach-retreat\",\"93\",\"808066\",\"0.0-93.0\",\"\",\"\",\"2-5\",\"4236\",\"39\",\"0\",\"Training\",\"Stims/Figures/19-J-10-4.bmp\",\"nalana\",\"Left\",\"37\",\"6\",\"10\",\"7\",\"S\",\"C\",\"90\"
\"\",\"\",\"approach-retreat\",\"94\",\"813814\",\"0.0-94.0\",\"\",\"\",\"2-5\",\"4239\",\"38\",\"0\",\"Training\",\"Stims/Figures/118-C-20-2.bmp\",\"pa:pa:ka\",\"Up\",\"40\",\"6\",\"11\",\"7\",\"P\",\"C\",\"91\"
\"\",\"\",\"approach-retreat\",\"95\",\"822016\",\"0.0-95.0\",\"\",\"\",\"2-5\",\"6690\",\"38\",\"0\",\"Training\",\"Stims/Figures/128-C-30-3.bmp\",\"namala\",\"Up\",\"40\",\"6\",\"12\",\"7\",\"S\",\"C\",\"92\"
\"\",\"\",\"approach-retreat\",\"96\",\"828891\",\"0.0-96.0\",\"\",\"\",\"2-5\",\"5373\",\"38\",\"1\",\"Training\",\"Stims/Figures/84-C-20-2.bmp\",\"pa:pata\",\"Down\",\"38\",\"6\",\"13\",\"7\",\"P\",\"C\",\"93\"
\"\",\"\",\"approach-retreat\",\"97\",\"835924\",\"0.0-97.0\",\"\",\"\",\"2-5\",\"5527\",\"37\",\"1\",\"Training\",\"Stims/Figures/71-C-30-1.bmp\",\"ta:ka:ta\",\"Right\",\"37\",\"6\",\"14\",\"7\",\"P\",\"C\",\"94\"
\"\",\"\",\"approach-retreat\",\"98\",\"843975\",\"0.0-98.0\",\"\",\"\",\"2-5\",\"6545\",\"37\",\"1\",\"Training\",\"Stims/Figures/7-J-10-4.bmp\",\"na:lana\",\"Left\",\"37\",\"6\",\"15\",\"7\",\"S\",\"C\",\"95\"
\"\",\"\",\"approach-retreat\",\"99\",\"850582\",\"0.0-99.0\",\"\",\"\",\"2-5\",\"5101\",\"39\",\"1\",\"Training\",\"Stims/Figures/44-J-10-3.bmp\",\"ma:ma:na\",\"Right\",\"39\",\"6\",\"16\",\"7\",\"S\",\"C\",\"96\"
\"\",\"\",\"approach-retreat\",\"100\",\"857056\",\"0.0-100.0\",\"\",\"\",\"2-5\",\"4970\",\"40\",\"1\",\"Training\",\"Stims/Figures/19-C-20-4.bmp\",\"ma:ma:la\",\"Up\",\"40\",\"7\",\"1\",\"7\",\"S\",\"C\",\"97\"
\"\",\"\",\"approach-retreat\",\"101\",\"862714\",\"0.0-101.0\",\"\",\"\",\"2-5\",\"4146\",\"40\",\"0\",\"Training\",\"Stims/Figures/93-C-30-1.bmp\",\"paka:ka\",\"Down\",\"38\",\"7\",\"2\",\"7\",\"P\",\"C\",\"98\"
\"\",\"\",\"approach-retreat\",\"102\",\"868584\",\"0.0-102.0\",\"\",\"\",\"2-5\",\"4361\",\"37\",\"0\",\"Training\",\"Stims/Figures/128-J-10-3.bmp\",\"na:ma:la\",\"Right\",\"39\",\"7\",\"3\",\"7\",\"S\",\"C\",\"99\"
\"\",\"\",\"approach-retreat\",\"103\",\"874195\",\"0.0-103.0\",\"\",\"\",\"2-5\",\"4102\",\"37\",\"0\",\"Training\",\"Stims/Figures/118-C-20-2.bmp\",\"pa:pa:ka\",\"Left\",\"39\",\"7\",\"4\",\"7\",\"P\",\"C\",\"100\"
\"\",\"\",\"approach-retreat\",\"104\",\"879914\",\"0.0-104.0\",\"\",\"\",\"2-5\",\"4211\",\"39\",\"1\",\"Training\",\"Stims/Figures/118-J-0-2.bmp\",\"pa:kata\",\"Right\",\"39\",\"7\",\"5\",\"7\",\"P\",\"C\",\"101\"
\"\",\"\",\"approach-retreat\",\"105\",\"885775\",\"0.0-105.0\",\"\",\"\",\"2-5\",\"4350\",\"39\",\"0\",\"Training\",\"Stims/Figures/19-J-10-4.bmp\",\"nalana\",\"Left\",\"37\",\"7\",\"6\",\"7\",\"S\",\"C\",\"102\"
\"\",\"\",\"approach-retreat\",\"106\",\"892263\",\"0.0-106.0\",\"\",\"\",\"2-5\",\"4983\",\"37\",\"0\",\"Training\",\"Stims/Figures/71-C-30-1.bmp\",\"ta:ka:ta\",\"Left\",\"39\",\"7\",\"7\",\"7\",\"P\",\"C\",\"103\"
\"\",\"\",\"approach-retreat\",\"107\",\"900241\",\"0.0-107.0\",\"\",\"\",\"2-5\",\"6473\",\"39\",\"1\",\"Training\",\"Stims/Figures/44-J-10-3.bmp\",\"ma:ma:na\",\"Right\",\"39\",\"7\",\"8\",\"7\",\"S\",\"C\",\"104\"
\"\",\"\",\"approach-retreat\",\"108\",\"906726\",\"0.0-108.0\",\"\",\"\",\"2-5\",\"4980\",\"40\",\"1\",\"Training\",\"Stims/Figures/84-J-0-2.bmp\",\"ta:pa:ta\",\"Down\",\"40\",\"7\",\"9\",\"7\",\"P\",\"C\",\"105\"
\"\",\"\",\"approach-retreat\",\"109\",\"913765\",\"0.0-109.0\",\"\",\"\",\"2-5\",\"5533\",\"38\",\"0\",\"Training\",\"Stims/Figures/71-J-0-1.bmp\",\"takata\",\"Down\",\"40\",\"7\",\"10\",\"7\",\"P\",\"C\",\"106\"
\"\",\"\",\"approach-retreat\",\"110\",\"919484\",\"0.0-110.0\",\"\",\"\",\"2-5\",\"4209\",\"40\",\"0\",\"Training\",\"Stims/Figures/7-J-10-4.bmp\",\"na:lana\",\"Up\",\"38\",\"7\",\"11\",\"7\",\"S\",\"C\",\"107\"
\"\",\"\",\"approach-retreat\",\"111\",\"925066\",\"0.0-111.0\",\"\",\"\",\"2-5\",\"4076\",\"40\",\"1\",\"Training\",\"Stims/Figures/7-C-20-4.bmp\",\"mama:na\",\"Up\",\"40\",\"7\",\"12\",\"7\",\"S\",\"C\",\"108\"
\"\",\"\",\"approach-retreat\",\"112\",\"930605\",\"0.0-112.0\",\"\",\"\",\"2-5\",\"4036\",\"40\",\"1\",\"Training\",\"Stims/Figures/128-C-30-3.bmp\",\"namala\",\"Up\",\"40\",\"7\",\"13\",\"7\",\"S\",\"C\",\"109\"
\"\",\"\",\"approach-retreat\",\"113\",\"937020\",\"0.0-113.0\",\"\",\"\",\"2-5\",\"4911\",\"38\",\"1\",\"Training\",\"Stims/Figures/84-C-20-2.bmp\",\"pa:pata\",\"Down\",\"38\",\"7\",\"14\",\"7\",\"P\",\"C\",\"110\"
\"\",\"\",\"approach-retreat\",\"114\",\"942601\",\"0.0-114.0\",\"\",\"\",\"2-5\",\"4076\",\"39\",\"1\",\"Training\",\"Stims/Figures/93-J-0-1.bmp\",\"tapa:ta\",\"Right\",\"39\",\"7\",\"15\",\"7\",\"P\",\"C\",\"111\"
\"\",\"\",\"approach-retreat\",\"115\",\"948171\",\"0.0-115.0\",\"\",\"\",\"2-5\",\"4065\",\"39\",\"1\",\"Training\",\"Stims/Figures/44-C-30-3.bmp\",\"mama:la\",\"Left\",\"39\",\"7\",\"16\",\"7\",\"S\",\"C\",\"112\"
\"\",\"\",\"approach-retreat\",\"116\",\"953956\",\"0.0-116.0\",\"\",\"\",\"2-5\",\"4280\",\"37\",\"1\",\"Training\",\"Stims/Figures/7-J-10-4.bmp\",\"na:lana\",\"Left\",\"37\",\"8\",\"1\",\"7\",\"S\",\"C\",\"113\"
\"\",\"\",\"approach-retreat\",\"117\",\"959954\",\"0.0-117.0\",\"\",\"\",\"2-5\",\"4491\",\"40\",\"0\",\"Training\",\"Stims/Figures/7-C-20-4.bmp\",\"mama:na\",\"Down\",\"38\",\"8\",\"2\",\"7\",\"S\",\"C\",\"114\"
\"\",\"\",\"approach-retreat\",\"118\",\"965340\",\"0.0-118.0\",\"\",\"\",\"2-5\",\"3882\",\"38\",\"1\",\"Training\",\"Stims/Figures/19-C-20-4.bmp\",\"ma:ma:la\",\"Down\",\"38\",\"8\",\"3\",\"7\",\"S\",\"C\",\"115\"
\"\",\"\",\"approach-retreat\",\"119\",\"971692\",\"0.0-119.0\",\"\",\"\",\"2-5\",\"4848\",\"40\",\"1\",\"Training\",\"Stims/Figures/128-C-30-3.bmp\",\"namala\",\"Up\",\"40\",\"8\",\"4\",\"7\",\"S\",\"C\",\"116\"
\"\",\"\",\"approach-retreat\",\"120\",\"979004\",\"0.0-120.0\",\"\",\"\",\"2-5\",\"5803\",\"40\",\"0\",\"Training\",\"Stims/Figures/93-C-30-1.bmp\",\"paka:ka\",\"Down\",\"38\",\"8\",\"5\",\"7\",\"P\",\"C\",\"117\"
\"\",\"\",\"approach-retreat\",\"121\",\"984774\",\"0.0-121.0\",\"\",\"\",\"2-5\",\"4265\",\"40\",\"1\",\"Training\",\"Stims/Figures/44-C-30-3.bmp\",\"mama:la\",\"Up\",\"40\",\"8\",\"6\",\"7\",\"S\",\"C\",\"118\"
\"\",\"\",\"approach-retreat\",\"122\",\"991174\",\"0.0-122.0\",\"\",\"\",\"2-5\",\"4891\",\"37\",\"0\",\"Training\",\"Stims/Figures/128-J-10-3.bmp\",\"na:ma:la\",\"Right\",\"39\",\"8\",\"7\",\"7\",\"S\",\"C\",\"119\"
\"\",\"\",\"approach-retreat\",\"123\",\"996804\",\"0.0-123.0\",\"\",\"\",\"2-5\",\"4122\",\"39\",\"0\",\"Training\",\"Stims/Figures/84-J-0-2.bmp\",\"ta:pa:ta\",\"Left\",\"37\",\"8\",\"8\",\"7\",\"P\",\"C\",\"120\"
\"\",\"\",\"approach-retreat\",\"124\",\"1002931\",\"0.0-124.0\",\"\",\"\",\"2-5\",\"4623\",\"37\",\"1\",\"Training\",\"Stims/Figures/19-J-10-4.bmp\",\"nalana\",\"Left\",\"37\",\"8\",\"9\",\"7\",\"S\",\"C\",\"121\"
\"\",\"\",\"approach-retreat\",\"125\",\"1008825\",\"0.0-125.0\",\"\",\"\",\"2-5\",\"4388\",\"38\",\"1\",\"Training\",\"Stims/Figures/71-J-0-1.bmp\",\"takata\",\"Up\",\"38\",\"8\",\"10\",\"7\",\"P\",\"C\",\"122\"
\"\",\"\",\"approach-retreat\",\"126\",\"1015623\",\"0.0-126.0\",\"\",\"\",\"2-5\",\"5293\",\"39\",\"1\",\"Training\",\"Stims/Figures/44-J-10-3.bmp\",\"ma:ma:na\",\"Right\",\"39\",\"8\",\"11\",\"7\",\"S\",\"C\",\"123\"
\"\",\"\",\"approach-retreat\",\"127\",\"1021164\",\"0.0-127.0\",\"\",\"\",\"2-5\",\"4034\",\"40\",\"1\",\"Training\",\"Stims/Figures/71-C-30-1.bmp\",\"ta:ka:ta\",\"Up\",\"40\",\"8\",\"12\",\"7\",\"P\",\"C\",\"124\"
\"\",\"\",\"approach-retreat\",\"128\",\"1030332\",\"0.0-128.0\",\"\",\"\",\"2-5\",\"7663\",\"37\",\"1\",\"Training\",\"Stims/Figures/118-C-20-2.bmp\",\"pa:pa:ka\",\"Right\",\"37\",\"8\",\"13\",\"7\",\"P\",\"C\",\"125\"
\"\",\"\",\"approach-retreat\",\"129\",\"1035961\",\"0.0-129.0\",\"\",\"\",\"2-5\",\"4125\",\"38\",\"1\",\"Training\",\"Stims/Figures/84-C-20-2.bmp\",\"pa:pata\",\"Down\",\"38\",\"8\",\"14\",\"7\",\"P\",\"C\",\"126\"
\"\",\"\",\"approach-retreat\",\"130\",\"1042322\",\"0.0-130.0\",\"\",\"\",\"2-5\",\"4856\",\"37\",\"1\",\"Training\",\"Stims/Figures/93-J-0-1.bmp\",\"tapa:ta\",\"Left\",\"37\",\"8\",\"15\",\"7\",\"P\",\"C\",\"127\"
\"\",\"\",\"approach-retreat\",\"131\",\"1048503\",\"0.0-131.0\",\"\",\"\",\"2-5\",\"4667\",\"37\",\"0\",\"Training\",\"Stims/Figures/118-J-0-2.bmp\",\"pa:kata\",\"Right\",\"39\",\"8\",\"16\",\"7\",\"P\",\"C\",\"128\"
\"\",\"\",\"approach-retreat\",\"132\",\"1056037\",\"0.0-132.0\",\"\",\"\",\"2-5\",\"6030\",\"38\",\"1\",\"Training\",\"Stims/Figures/128-J-10-3.bmp\",\"na:ma:la\",\"Up\",\"38\",\"9\",\"1\",\"7\",\"S\",\"C\",\"129\"
\"\",\"\",\"approach-retreat\",\"133\",\"1063124\",\"0.0-133.0\",\"\",\"\",\"2-5\",\"5575\",\"38\",\"0\",\"Training\",\"Stims/Figures/7-C-20-4.bmp\",\"mama:na\",\"Up\",\"40\",\"9\",\"2\",\"7\",\"S\",\"C\",\"130\"
\"\",\"\",\"approach-retreat\",\"134\",\"1072234\",\"0.0-134.0\",\"\",\"\",\"2-5\",\"7606\",\"39\",\"1\",\"Training\",\"Stims/Figures/93-J-0-1.bmp\",\"tapa:ta\",\"Right\",\"39\",\"9\",\"3\",\"7\",\"P\",\"C\",\"131\"
\"\",\"\",\"approach-retreat\",\"135\",\"1080931\",\"0.0-135.0\",\"\",\"\",\"2-5\",\"7191\",\"40\",\"1\",\"Training\",\"Stims/Figures/7-J-10-4.bmp\",\"na:lana\",\"Down\",\"40\",\"9\",\"4\",\"7\",\"S\",\"C\",\"132\"
\"\",\"\",\"approach-retreat\",\"136\",\"1087814\",\"0.0-136.0\",\"\",\"\",\"2-5\",\"5365\",\"37\",\"1\",\"Training\",\"Stims/Figures/19-J-10-4.bmp\",\"nalana\",\"Left\",\"37\",\"9\",\"5\",\"7\",\"S\",\"C\",\"133\"
\"\",\"\",\"approach-retreat\",\"137\",\"1094463\",\"0.0-137.0\",\"\",\"\",\"2-5\",\"5137\",\"37\",\"1\",\"Training\",\"Stims/Figures/118-C-20-2.bmp\",\"pa:pa:ka\",\"Right\",\"37\",\"9\",\"6\",\"7\",\"P\",\"C\",\"134\"
\"\",\"\",\"approach-retreat\",\"138\",\"1101464\",\"0.0-138.0\",\"\",\"\",\"2-5\",\"5483\",\"37\",\"0\",\"Training\",\"Stims/Figures/93-C-30-1.bmp\",\"paka:ka\",\"Left\",\"39\",\"9\",\"7\",\"7\",\"P\",\"C\",\"135\"
\"\",\"\",\"approach-retreat\",\"139\",\"1109874\",\"0.0-139.0\",\"\",\"\",\"2-5\",\"6897\",\"40\",\"1\",\"Training\",\"Stims/Figures/71-C-30-1.bmp\",\"ta:ka:ta\",\"Up\",\"40\",\"9\",\"8\",\"7\",\"P\",\"C\",\"136\"
\"\",\"\",\"approach-retreat\",\"140\",\"1115416\",\"0.0-140.0\",\"\",\"\",\"2-5\",\"4034\",\"38\",\"0\",\"Training\",\"Stims/Figures/118-J-0-2.bmp\",\"pa:kata\",\"Down\",\"40\",\"9\",\"9\",\"7\",\"P\",\"C\",\"137\"
\"\",\"\",\"approach-retreat\",\"141\",\"1124464\",\"0.0-141.0\",\"\",\"\",\"2-5\",\"7539\",\"39\",\"0\",\"Training\",\"Stims/Figures/44-J-10-3.bmp\",\"ma:ma:na\",\"Left\",\"37\",\"9\",\"10\",\"7\",\"S\",\"C\",\"138\"
\"\",\"\",\"approach-retreat\",\"142\",\"1132926\",\"0.0-142.0\",\"\",\"\",\"2-5\",\"6954\",\"40\",\"1\",\"Training\",\"Stims/Figures/128-C-30-3.bmp\",\"namala\",\"Up\",\"40\",\"9\",\"11\",\"7\",\"S\",\"C\",\"139\"
\"\",\"\",\"approach-retreat\",\"143\",\"1138427\",\"0.0-143.0\",\"\",\"\",\"2-5\",\"3991\",\"38\",\"1\",\"Training\",\"Stims/Figures/44-C-30-3.bmp\",\"mama:la\",\"Down\",\"38\",\"9\",\"12\",\"7\",\"S\",\"C\",\"140\"
\"\",\"\",\"approach-retreat\",\"144\",\"1144180\",\"0.0-144.0\",\"\",\"\",\"2-5\",\"4223\",\"37\",\"1\",\"Training\",\"Stims/Figures/19-C-20-4.bmp\",\"ma:ma:la\",\"Right\",\"37\",\"9\",\"13\",\"7\",\"S\",\"C\",\"141\"
\"\",\"\",\"approach-retreat\",\"145\",\"1150544\",\"0.0-145.0\",\"\",\"\",\"2-5\",\"4844\",\"38\",\"1\",\"Training\",\"Stims/Figures/84-C-20-2.bmp\",\"pa:pata\",\"Down\",\"38\",\"9\",\"14\",\"7\",\"P\",\"C\",\"142\"
\"\",\"\",\"approach-retreat\",\"146\",\"1158363\",\"0.0-146.0\",\"\",\"\",\"2-5\",\"6294\",\"37\",\"0\",\"Training\",\"Stims/Figures/71-J-0-1.bmp\",\"takata\",\"Right\",\"39\",\"9\",\"15\",\"7\",\"P\",\"C\",\"143\"
\"\",\"\",\"approach-retreat\",\"147\",\"1164623\",\"0.0-147.0\",\"\",\"\",\"2-5\",\"4741\",\"39\",\"0\",\"Training\",\"Stims/Figures/84-J-0-2.bmp\",\"ta:pa:ta\",\"Left\",\"37\",\"9\",\"16\",\"7\",\"P\",\"C\",\"144\"
\"17035\",\"\",\"instructions\",\"148\",\"1181659\",\"0.0-148.0\",\"[{\"\"page_index\"\":0,\"\"viewing_time\"\":17034}]\",\"\",\"\",\"\",\"\",\"\",\"\",\"\",\"\",\"\",\"\",\"\",\"\",\"\",\"\",\"\",\"\"
\"\",\"\",\"approach-retreat\",\"149\",\"1193433\",\"0.0-149.0\",\"\",\"\",\"2-5\",\"10243\",\"37\",\"0\",\"Testing\",\"Stims/Figures/7-J-10-4.bmp\",\"na:lana\",\"Right\",\"39\",\"1\",\"1\",\"7\",\"S\",\"C\",\"1\"
\"\",\"\",\"approach-retreat\",\"150\",\"1199083\",\"0.0-150.0\",\"\",\"\",\"2-5\",\"4137\",\"40\",\"0\",\"Testing\",\"Stims/Figures/93-J-0-1.bmp\",\"tapa:ta\",\"Up\",\"38\",\"1\",\"2\",\"7\",\"P\",\"C\",\"2\"
\"\",\"\",\"approach-retreat\",\"151\",\"1205363\",\"0.0-151.0\",\"\",\"\",\"2-5\",\"4764\",\"38\",\"1\",\"Testing\",\"Stims/Figures/57-C-30-1.bmp\",\"taka:ta\",\"Down\",\"38\",\"1\",\"3\",\"7\",\"P\",\"C\",\"3\"
\"\",\"\",\"approach-retreat\",\"152\",\"1210894\",\"0.0-152.0\",\"\",\"\",\"2-5\",\"4021\",\"37\",\"1\",\"Testing\",\"Stims/Figures/71-C-30-1.bmp\",\"ta:ka:ta\",\"Right\",\"37\",\"1\",\"4\",\"7\",\"P\",\"C\",\"4\"
\"\",\"\",\"approach-retreat\",\"153\",\"1217114\",\"0.0-153.0\",\"\",\"\",\"2-5\",\"4711\",\"40\",\"1\",\"Testing\",\"Stims/Figures/118-J-0-2.bmp\",\"pa:kata\",\"Down\",\"40\",\"1\",\"5\",\"7\",\"P\",\"C\",\"5\"
\"\",\"\",\"approach-retreat\",\"154\",\"1224183\",\"0.0-154.0\",\"\",\"\",\"2-5\",\"5556\",\"38\",\"0\",\"Testing\",\"Stims/Figures/118-C-20-2.bmp\",\"pa:pa:ka\",\"Up\",\"40\",\"1\",\"6\",\"7\",\"P\",\"C\",\"6\"
\"\",\"\",\"approach-retreat\",\"155\",\"1229963\",\"0.0-155.0\",\"\",\"\",\"2-5\",\"4267\",\"38\",\"1\",\"Testing\",\"Stims/Figures/57-J-0-1.bmp\",\"ta:kaka\",\"Up\",\"38\",\"1\",\"7\",\"7\",\"P\",\"C\",\"7\"
\"\",\"\",\"approach-retreat\",\"156\",\"1235533\",\"0.0-156.0\",\"\",\"\",\"2-5\",\"4049\",\"39\",\"1\",\"Testing\",\"Stims/Figures/102-J-10-4.bmp\",\"na:mana\",\"Right\",\"39\",\"1\",\"8\",\"7\",\"S\",\"C\",\"8\"
\"\",\"\",\"approach-retreat\",\"157\",\"1241563\",\"0.0-157.0\",\"\",\"\",\"2-5\",\"4513\",\"37\",\"1\",\"Testing\",\"Stims/Figures/100-J-10-3.bmp\",\"mala:la\",\"Left\",\"37\",\"1\",\"9\",\"7\",\"S\",\"C\",\"9\"
\"\",\"\",\"approach-retreat\",\"158\",\"1247023\",\"0.0-158.0\",\"\",\"\",\"2-5\",\"3945\",\"40\",\"1\",\"Testing\",\"Stims/Figures/128-J-10-3.bmp\",\"na:ma:la\",\"Down\",\"40\",\"1\",\"10\",\"7\",\"S\",\"C\",\"10\"
\"\",\"\",\"approach-retreat\",\"159\",\"1252684\",\"0.0-159.0\",\"\",\"\",\"2-5\",\"4152\",\"37\",\"0\",\"Testing\",\"Stims/Figures/44-J-10-3.bmp\",\"ma:ma:na\",\"Right\",\"39\",\"1\",\"11\",\"7\",\"S\",\"C\",\"11\"
\"\",\"\",\"approach-retreat\",\"160\",\"1258193\",\"0.0-160.0\",\"\",\"\",\"2-5\",\"4003\",\"39\",\"1\",\"Testing\",\"Stims/Figures/93-C-30-1.bmp\",\"paka:ka\",\"Left\",\"39\",\"1\",\"12\",\"7\",\"P\",\"C\",\"12\"
\"\",\"\",\"approach-retreat\",\"161\",\"1263713\",\"0.0-161.0\",\"\",\"\",\"2-5\",\"4011\",\"40\",\"0\",\"Testing\",\"Stims/Figures/85-J-0-2.bmp\",\"ta:pata\",\"Up\",\"38\",\"1\",\"13\",\"7\",\"P\",\"C\",\"13\"
\"\",\"\",\"approach-retreat\",\"162\",\"1269753\",\"0.0-162.0\",\"\",\"\",\"2-5\",\"4533\",\"39\",\"1\",\"Testing\",\"Stims/Figures/71-J-0-1.bmp\",\"takata\",\"Right\",\"39\",\"1\",\"14\",\"7\",\"P\",\"C\",\"14\"
\"\",\"\",\"approach-retreat\",\"163\",\"1275363\",\"0.0-163.0\",\"\",\"\",\"2-5\",\"4103\",\"38\",\"1\",\"Testing\",\"Stims/Figures/100-C-30-3.bmp\",\"na:la:la\",\"Down\",\"38\",\"1\",\"15\",\"7\",\"S\",\"C\",\"15\"
\"\",\"\",\"approach-retreat\",\"164\",\"1282813\",\"0.0-164.0\",\"\",\"\",\"2-5\",\"5936\",\"40\",\"0\",\"Testing\",\"Stims/Figures/84-J-0-2.bmp\",\"ta:pa:ta\",\"Up\",\"38\",\"1\",\"16\",\"7\",\"P\",\"C\",\"16\"
\"\",\"\",\"approach-retreat\",\"165\",\"1289403\",\"0.0-165.0\",\"\",\"\",\"2-5\",\"5074\",\"39\",\"1\",\"Testing\",\"Stims/Figures/7-C-20-4.bmp\",\"mama:na\",\"Left\",\"39\",\"1\",\"17\",\"7\",\"S\",\"C\",\"17\"
\"\",\"\",\"approach-retreat\",\"166\",\"1294843\",\"0.0-166.0\",\"\",\"\",\"2-5\",\"3927\",\"40\",\"1\",\"Testing\",\"Stims/Figures/128-C-30-3.bmp\",\"namala\",\"Up\",\"40\",\"1\",\"18\",\"7\",\"S\",\"C\",\"18\"
\"\",\"\",\"approach-retreat\",\"167\",\"1300534\",\"0.0-167.0\",\"\",\"\",\"2-5\",\"4179\",\"39\",\"0\",\"Testing\",\"Stims/Figures/102-C-20-4.bmp\",\"nama:la\",\"Right\",\"37\",\"1\",\"19\",\"7\",\"S\",\"C\",\"19\"
\"\",\"\",\"approach-retreat\",\"168\",\"1306084\",\"0.0-168.0\",\"\",\"\",\"2-5\",\"4038\",\"39\",\"1\",\"Testing\",\"Stims/Figures/85-C-20-2.bmp\",\"ta:ka:ka\",\"Left\",\"39\",\"1\",\"20\",\"7\",\"P\",\"C\",\"20\"
\"\",\"\",\"approach-retreat\",\"169\",\"1311615\",\"0.0-169.0\",\"\",\"\",\"2-5\",\"4023\",\"38\",\"0\",\"Testing\",\"Stims/Figures/19-J-10-4.bmp\",\"nalana\",\"Down\",\"40\",\"1\",\"21\",\"7\",\"S\",\"C\",\"21\"
\"\",\"\",\"approach-retreat\",\"170\",\"1317085\",\"0.0-170.0\",\"\",\"\",\"2-5\",\"3963\",\"39\",\"1\",\"Testing\",\"Stims/Figures/44-C-30-3.bmp\",\"mama:la\",\"Left\",\"39\",\"1\",\"22\",\"7\",\"S\",\"C\",\"22\"
\"\",\"\",\"approach-retreat\",\"171\",\"1322555\",\"0.0-171.0\",\"\",\"\",\"2-5\",\"3963\",\"38\",\"1\",\"Testing\",\"Stims/Figures/19-C-20-4.bmp\",\"ma:ma:la\",\"Down\",\"38\",\"1\",\"23\",\"7\",\"S\",\"C\",\"23\"
\"\",\"\",\"approach-retreat\",\"172\",\"1328024\",\"0.0-172.0\",\"\",\"\",\"2-5\",\"3964\",\"39\",\"1\",\"Testing\",\"Stims/Figures/84-C-20-2.bmp\",\"pa:pata\",\"Left\",\"39\",\"1\",\"24\",\"7\",\"P\",\"C\",\"24\"
\"\",\"\",\"approach-retreat\",\"173\",\"1333516\",\"0.0-173.0\",\"\",\"\",\"2-5\",\"3986\",\"39\",\"0\",\"Testing\",\"Stims/Figures/118-J-0-2.bmp\",\"pa:kata\",\"Left\",\"37\",\"2\",\"1\",\"7\",\"P\",\"C\",\"25\"
\"\",\"\",\"approach-retreat\",\"174\",\"1338975\",\"0.0-174.0\",\"\",\"\",\"2-5\",\"3946\",\"38\",\"1\",\"Testing\",\"Stims/Figures/118-C-20-2.bmp\",\"pa:pa:ka\",\"Down\",\"38\",\"2\",\"2\",\"7\",\"P\",\"C\",\"26\"
\"\",\"\",\"approach-retreat\",\"175\",\"1344535\",\"0.0-175.0\",\"\",\"\",\"2-5\",\"4049\",\"40\",\"1\",\"Testing\",\"Stims/Figures/93-C-30-1.bmp\",\"paka:ka\",\"Up\",\"40\",\"2\",\"3\",\"7\",\"P\",\"C\",\"27\"
\"\",\"\",\"approach-retreat\",\"176\",\"1349987\",\"0.0-176.0\",\"\",\"\",\"2-5\",\"3938\",\"37\",\"0\",\"Testing\",\"Stims/Figures/84-J-0-2.bmp\",\"ta:pa:ta\",\"Right\",\"39\",\"2\",\"4\",\"7\",\"P\",\"C\",\"28\"
\"\",\"\",\"approach-retreat\",\"177\",\"1356237\",\"0.0-177.0\",\"\",\"\",\"2-5\",\"4740\",\"40\",\"1\",\"Testing\",\"Stims/Figures/128-J-10-3.bmp\",\"na:ma:la\",\"Down\",\"40\",\"2\",\"5\",\"7\",\"S\",\"C\",\"29\"
\"\",\"\",\"approach-retreat\",\"178\",\"1362736\",\"0.0-178.0\",\"\",\"\",\"2-5\",\"4989\",\"37\",\"0\",\"Testing\",\"Stims/Figures/71-J-0-1.bmp\",\"takata\",\"Right\",\"39\",\"2\",\"6\",\"7\",\"P\",\"C\",\"30\"
\"\",\"\",\"approach-retreat\",\"179\",\"1368307\",\"0.0-179.0\",\"\",\"\",\"2-5\",\"4060\",\"39\",\"0\",\"Testing\",\"Stims/Figures/19-C-20-4.bmp\",\"ma:ma:la\",\"Right\",\"37\",\"2\",\"7\",\"7\",\"S\",\"C\",\"31\"
\"\",\"\",\"approach-retreat\",\"180\",\"1374008\",\"0.0-180.0\",\"\",\"\",\"2-5\",\"4187\",\"38\",\"0\",\"Testing\",\"Stims/Figures/100-C-30-3.bmp\",\"na:la:la\",\"Up\",\"40\",\"2\",\"8\",\"7\",\"S\",\"C\",\"32\"
\"\",\"\",\"approach-retreat\",\"181\",\"1379638\",\"0.0-181.0\",\"\",\"\",\"2-5\",\"4120\",\"37\",\"0\",\"Testing\",\"Stims/Figures/102-C-20-4.bmp\",\"nama:la\",\"Left\",\"39\",\"2\",\"9\",\"7\",\"S\",\"C\",\"33\"
\"\",\"\",\"approach-retreat\",\"182\",\"1385208\",\"0.0-182.0\",\"\",\"\",\"2-5\",\"4061\",\"37\",\"0\",\"Testing\",\"Stims/Figures/128-C-30-3.bmp\",\"namala\",\"Left\",\"39\",\"2\",\"10\",\"7\",\"S\",\"C\",\"34\"
\"\",\"\",\"approach-retreat\",\"183\",\"1390848\",\"0.0-183.0\",\"\",\"\",\"2-5\",\"4134\",\"37\",\"0\",\"Testing\",\"Stims/Figures/44-C-30-3.bmp\",\"mama:la\",\"Left\",\"39\",\"2\",\"11\",\"7\",\"S\",\"C\",\"35\"
\"\",\"\",\"approach-retreat\",\"184\",\"1396898\",\"0.0-184.0\",\"\",\"\",\"2-5\",\"4542\",\"38\",\"0\",\"Testing\",\"Stims/Figures/93-J-0-1.bmp\",\"tapa:ta\",\"Down\",\"40\",\"2\",\"12\",\"7\",\"P\",\"C\",\"36\"
\"\",\"\",\"approach-retreat\",\"185\",\"1403948\",\"0.0-185.0\",\"\",\"\",\"2-5\",\"5541\",\"39\",\"0\",\"Testing\",\"Stims/Figures/85-J-0-2.bmp\",\"ta:pata\",\"Left\",\"37\",\"2\",\"13\",\"7\",\"P\",\"C\",\"37\"
\"\",\"\",\"approach-retreat\",\"186\",\"1409657\",\"0.0-186.0\",\"\",\"\",\"2-5\",\"4208\",\"39\",\"1\",\"Testing\",\"Stims/Figures/57-J-0-1.bmp\",\"ta:kaka\",\"Right\",\"39\",\"2\",\"14\",\"7\",\"P\",\"C\",\"38\"
\"\",\"\",\"approach-retreat\",\"187\",\"1415348\",\"0.0-187.0\",\"\",\"\",\"2-5\",\"4178\",\"38\",\"1\",\"Testing\",\"Stims/Figures/100-J-10-3.bmp\",\"mala:la\",\"Up\",\"38\",\"2\",\"15\",\"7\",\"S\",\"C\",\"39\"
\"\",\"\",\"approach-retreat\",\"188\",\"1421298\",\"0.0-188.0\",\"\",\"\",\"2-5\",\"4435\",\"37\",\"1\",\"Testing\",\"Stims/Figures/7-C-20-4.bmp\",\"mama:na\",\"Right\",\"37\",\"2\",\"16\",\"7\",\"S\",\"C\",\"40\"
\"\",\"\",\"approach-retreat\",\"189\",\"1427598\",\"0.0-189.0\",\"\",\"\",\"2-5\",\"4789\",\"38\",\"1\",\"Testing\",\"Stims/Figures/85-C-20-2.bmp\",\"ta:ka:ka\",\"Down\",\"38\",\"2\",\"17\",\"7\",\"P\",\"C\",\"41\"
\"\",\"\",\"approach-retreat\",\"190\",\"1435259\",\"0.0-190.0\",\"\",\"\",\"2-5\",\"6156\",\"37\",\"1\",\"Testing\",\"Stims/Figures/19-J-10-4.bmp\",\"nalana\",\"Left\",\"37\",\"2\",\"18\",\"7\",\"S\",\"C\",\"42\"
\"\",\"\",\"approach-retreat\",\"191\",\"1440859\",\"0.0-191.0\",\"\",\"\",\"2-5\",\"4087\",\"40\",\"0\",\"Testing\",\"Stims/Figures/44-J-10-3.bmp\",\"ma:ma:na\",\"Up\",\"38\",\"2\",\"19\",\"7\",\"S\",\"C\",\"43\"
\"\",\"\",\"approach-retreat\",\"192\",\"1446389\",\"0.0-192.0\",\"\",\"\",\"2-5\",\"4017\",\"38\",\"1\",\"Testing\",\"Stims/Figures/102-J-10-4.bmp\",\"na:mana\",\"Up\",\"38\",\"2\",\"20\",\"7\",\"S\",\"C\",\"44\"
\"\",\"\",\"approach-retreat\",\"193\",\"1452229\",\"0.0-193.0\",\"\",\"\",\"2-5\",\"4326\",\"40\",\"0\",\"Testing\",\"Stims/Figures/57-C-30-1.bmp\",\"taka:ta\",\"Down\",\"38\",\"2\",\"21\",\"7\",\"P\",\"C\",\"45\"
\"\",\"\",\"approach-retreat\",\"194\",\"1457730\",\"0.0-194.0\",\"\",\"\",\"2-5\",\"3984\",\"39\",\"0\",\"Testing\",\"Stims/Figures/71-C-30-1.bmp\",\"ta:ka:ta\",\"Right\",\"37\",\"2\",\"22\",\"7\",\"P\",\"C\",\"46\"
\"\",\"\",\"approach-retreat\",\"195\",\"1463330\",\"0.0-195.0\",\"\",\"\",\"2-5\",\"4089\",\"38\",\"0\",\"Testing\",\"Stims/Figures/7-J-10-4.bmp\",\"na:lana\",\"Down\",\"40\",\"2\",\"23\",\"7\",\"S\",\"C\",\"47\"
\"\",\"\",\"approach-retreat\",\"196\",\"1470421\",\"0.0-196.0\",\"\",\"\",\"2-5\",\"5585\",\"38\",\"0\",\"Testing\",\"Stims/Figures/84-C-20-2.bmp\",\"pa:pata\",\"Up\",\"40\",\"2\",\"24\",\"7\",\"P\",\"C\",\"48\"
\"\",\"\",\"approach-retreat\",\"197\",\"1476710\",\"0.0-197.0\",\"\",\"\",\"2-5\",\"4779\",\"37\",\"1\",\"Testing\",\"Stims/Figures/118-J-0-2.bmp\",\"pa:kata\",\"Left\",\"37\",\"3\",\"1\",\"7\",\"P\",\"C\",\"49\"
\"\",\"\",\"approach-retreat\",\"198\",\"1482241\",\"0.0-198.0\",\"\",\"\",\"2-5\",\"4023\",\"38\",\"0\",\"Testing\",\"Stims/Figures/93-J-0-1.bmp\",\"tapa:ta\",\"Down\",\"40\",\"3\",\"2\",\"7\",\"P\",\"C\",\"50\"
\"\",\"\",\"approach-retreat\",\"199\",\"1489250\",\"0.0-199.0\",\"\",\"\",\"2-5\",\"5498\",\"39\",\"1\",\"Testing\",\"Stims/Figures/84-J-0-2.bmp\",\"ta:pa:ta\",\"Right\",\"39\",\"3\",\"3\",\"7\",\"P\",\"C\",\"51\"
\"\",\"\",\"approach-retreat\",\"200\",\"1494980\",\"0.0-200.0\",\"\",\"\",\"2-5\",\"4221\",\"39\",\"0\",\"Testing\",\"Stims/Figures/7-J-10-4.bmp\",\"na:lana\",\"Left\",\"37\",\"3\",\"4\",\"7\",\"S\",\"C\",\"52\"
\"\",\"\",\"approach-retreat\",\"201\",\"1500431\",\"0.0-201.0\",\"\",\"\",\"2-5\",\"3943\",\"39\",\"1\",\"Testing\",\"Stims/Figures/57-J-0-1.bmp\",\"ta:kaka\",\"Right\",\"39\",\"3\",\"5\",\"7\",\"P\",\"C\",\"53\"
\"\",\"\",\"approach-retreat\",\"202\",\"1506260\",\"0.0-202.0\",\"\",\"\",\"2-5\",\"4319\",\"40\",\"0\",\"Testing\",\"Stims/Figures/85-J-0-2.bmp\",\"ta:pata\",\"Up\",\"38\",\"3\",\"6\",\"7\",\"P\",\"C\",\"54\"
\"\",\"\",\"approach-retreat\",\"203\",\"1511842\",\"0.0-203.0\",\"\",\"\",\"2-5\",\"4071\",\"37\",\"0\",\"Testing\",\"Stims/Figures/19-C-20-4.bmp\",\"ma:ma:la\",\"Left\",\"39\",\"3\",\"7\",\"7\",\"S\",\"C\",\"55\"
\"\",\"\",\"approach-retreat\",\"204\",\"1517462\",\"0.0-204.0\",\"\",\"\",\"2-5\",\"4112\",\"40\",\"0\",\"Testing\",\"Stims/Figures/128-C-30-3.bmp\",\"namala\",\"Down\",\"38\",\"3\",\"8\",\"7\",\"S\",\"C\",\"56\"
\"\",\"\",\"approach-retreat\",\"205\",\"1523021\",\"0.0-205.0\",\"\",\"\",\"2-5\",\"4045\",\"38\",\"1\",\"Testing\",\"Stims/Figures/85-C-20-2.bmp\",\"ta:ka:ka\",\"Down\",\"38\",\"3\",\"9\",\"7\",\"P\",\"C\",\"57\"
\"\",\"\",\"approach-retreat\",\"206\",\"1528551\",\"0.0-206.0\",\"\",\"\",\"2-5\",\"4024\",\"38\",\"0\",\"Testing\",\"Stims/Figures/100-C-30-3.bmp\",\"na:la:la\",\"Up\",\"40\",\"3\",\"10\",\"7\",\"S\",\"C\",\"58\"
\"\",\"\",\"approach-retreat\",\"207\",\"1537931\",\"0.0-207.0\",\"\",\"\",\"2-5\",\"7873\",\"40\",\"1\",\"Testing\",\"Stims/Figures/118-C-20-2.bmp\",\"pa:pa:ka\",\"Up\",\"40\",\"3\",\"11\",\"7\",\"P\",\"C\",\"59\"
\"\",\"\",\"approach-retreat\",\"208\",\"1543371\",\"0.0-208.0\",\"\",\"\",\"2-5\",\"3933\",\"39\",\"1\",\"Testing\",\"Stims/Figures/7-C-20-4.bmp\",\"mama:na\",\"Left\",\"39\",\"3\",\"12\",\"7\",\"S\",\"C\",\"60\"
\"\",\"\",\"approach-retreat\",\"209\",\"1549861\",\"0.0-209.0\",\"\",\"\",\"2-5\",\"4982\",\"39\",\"0\",\"Testing\",\"Stims/Figures/57-C-30-1.bmp\",\"taka:ta\",\"Right\",\"37\",\"3\",\"13\",\"7\",\"P\",\"C\",\"61\"
\"\",\"\",\"approach-retreat\",\"210\",\"1555361\",\"0.0-210.0\",\"\",\"\",\"2-5\",\"3988\",\"40\",\"1\",\"Testing\",\"Stims/Figures/44-C-30-3.bmp\",\"mama:la\",\"Up\",\"40\",\"3\",\"14\",\"7\",\"S\",\"C\",\"62\"
\"\",\"\",\"approach-retreat\",\"211\",\"1560901\",\"0.0-211.0\",\"\",\"\",\"2-5\",\"4033\",\"37\",\"1\",\"Testing\",\"Stims/Figures/19-J-10-4.bmp\",\"nalana\",\"Left\",\"37\",\"3\",\"15\",\"7\",\"S\",\"C\",\"63\"
\"\",\"\",\"approach-retreat\",\"212\",\"1566931\",\"0.0-212.0\",\"\",\"\",\"2-5\",\"4524\",\"39\",\"1\",\"Testing\",\"Stims/Figures/128-J-10-3.bmp\",\"na:ma:la\",\"Right\",\"39\",\"3\",\"16\",\"7\",\"S\",\"C\",\"64\"
\"\",\"\",\"approach-retreat\",\"213\",\"1572511\",\"0.0-213.0\",\"\",\"\",\"2-5\",\"4068\",\"40\",\"1\",\"Testing\",\"Stims/Figures/71-J-0-1.bmp\",\"takata\",\"Down\",\"40\",\"3\",\"17\",\"7\",\"P\",\"C\",\"65\"
\"\",\"\",\"approach-retreat\",\"214\",\"1577951\",\"0.0-214.0\",\"\",\"\",\"2-5\",\"3924\",\"40\",\"0\",\"Testing\",\"Stims/Figures/93-C-30-1.bmp\",\"paka:ka\",\"Down\",\"38\",\"3\",\"18\",\"7\",\"P\",\"C\",\"66\"
\"\",\"\",\"approach-retreat\",\"215\",\"1583441\",\"0.0-215.0\",\"\",\"\",\"2-5\",\"3978\",\"39\",\"0\",\"Testing\",\"Stims/Figures/102-C-20-4.bmp\",\"nama:la\",\"Right\",\"37\",\"3\",\"19\",\"7\",\"S\",\"C\",\"67\"
\"\",\"\",\"approach-retreat\",\"216\",\"1589001\",\"0.0-216.0\",\"\",\"\",\"2-5\",\"4051\",\"40\",\"0\",\"Testing\",\"Stims/Figures/44-J-10-3.bmp\",\"ma:ma:na\",\"Up\",\"38\",\"3\",\"20\",\"7\",\"S\",\"C\",\"68\"
\"\",\"\",\"approach-retreat\",\"217\",\"1594662\",\"0.0-217.0\",\"\",\"\",\"2-5\",\"4153\",\"37\",\"1\",\"Testing\",\"Stims/Figures/102-J-10-4.bmp\",\"na:mana\",\"Left\",\"37\",\"3\",\"21\",\"7\",\"S\",\"C\",\"69\"
\"\",\"\",\"approach-retreat\",\"218\",\"1600672\",\"0.0-218.0\",\"\",\"\",\"2-5\",\"4502\",\"40\",\"1\",\"Testing\",\"Stims/Figures/100-J-10-3.bmp\",\"mala:la\",\"Down\",\"40\",\"3\",\"22\",\"7\",\"S\",\"C\",\"70\"
\"\",\"\",\"approach-retreat\",\"219\",\"1607192\",\"0.0-219.0\",\"\",\"\",\"2-5\",\"5014\",\"39\",\"0\",\"Testing\",\"Stims/Figures/84-C-20-2.bmp\",\"pa:pata\",\"Right\",\"37\",\"3\",\"23\",\"7\",\"P\",\"C\",\"71\"
\"\",\"\",\"approach-retreat\",\"220\",\"1612724\",\"0.0-220.0\",\"\",\"\",\"2-5\",\"4021\",\"38\",\"0\",\"Testing\",\"Stims/Figures/71-C-30-1.bmp\",\"ta:ka:ta\",\"Up\",\"40\",\"3\",\"24\",\"7\",\"P\",\"C\",\"72\"
\"\",\"\",\"approach-retreat\",\"221\",\"1618193\",\"0.0-221.0\",\"\",\"\",\"2-5\",\"3959\",\"40\",\"0\",\"Testing\",\"Stims/Figures/93-J-0-1.bmp\",\"tapa:ta\",\"Up\",\"38\",\"4\",\"1\",\"7\",\"P\",\"C\",\"73\"
\"\",\"\",\"approach-retreat\",\"222\",\"1623903\",\"0.0-222.0\",\"\",\"\",\"2-5\",\"4205\",\"37\",\"1\",\"Testing\",\"Stims/Figures/57-J-0-1.bmp\",\"ta:kaka\",\"Left\",\"37\",\"4\",\"2\",\"7\",\"P\",\"C\",\"74\"
\"\",\"\",\"approach-retreat\",\"223\",\"1629474\",\"0.0-223.0\",\"\",\"\",\"2-5\",\"4057\",\"40\",\"1\",\"Testing\",\"Stims/Figures/7-C-20-4.bmp\",\"mama:na\",\"Up\",\"40\",\"4\",\"3\",\"7\",\"S\",\"C\",\"75\"
\"\",\"\",\"approach-retreat\",\"224\",\"1635064\",\"0.0-224.0\",\"\",\"\",\"2-5\",\"4077\",\"37\",\"1\",\"Testing\",\"Stims/Figures/71-C-30-1.bmp\",\"ta:ka:ta\",\"Right\",\"37\",\"4\",\"4\",\"7\",\"P\",\"C\",\"76\"
\"\",\"\",\"approach-retreat\",\"225\",\"1640564\",\"0.0-225.0\",\"\",\"\",\"2-5\",\"3989\",\"37\",\"1\",\"Testing\",\"Stims/Figures/19-C-20-4.bmp\",\"ma:ma:la\",\"Right\",\"37\",\"4\",\"5\",\"7\",\"S\",\"C\",\"77\"
\"\",\"\",\"approach-retreat\",\"226\",\"1647035\",\"0.0-226.0\",\"\",\"\",\"2-5\",\"4964\",\"40\",\"1\",\"Testing\",\"Stims/Figures/85-C-20-2.bmp\",\"ta:ka:ka\",\"Up\",\"40\",\"4\",\"6\",\"7\",\"P\",\"C\",\"78\"
\"\",\"\",\"approach-retreat\",\"227\",\"1652475\",\"0.0-227.0\",\"\",\"\",\"2-5\",\"3931\",\"40\",\"1\",\"Testing\",\"Stims/Figures/44-C-30-3.bmp\",\"mama:la\",\"Up\",\"40\",\"4\",\"7\",\"7\",\"S\",\"C\",\"79\"
\"\",\"\",\"approach-retreat\",\"228\",\"1658025\",\"0.0-228.0\",\"\",\"\",\"2-5\",\"4045\",\"37\",\"0\",\"Testing\",\"Stims/Figures/102-C-20-4.bmp\",\"nama:la\",\"Left\",\"39\",\"4\",\"8\",\"7\",\"S\",\"C\",\"80\"
\"\",\"\",\"approach-retreat\",\"229\",\"1663575\",\"0.0-229.0\",\"\",\"\",\"2-5\",\"4038\",\"37\",\"1\",\"Testing\",\"Stims/Figures/85-J-0-2.bmp\",\"ta:pata\",\"Left\",\"37\",\"4\",\"9\",\"7\",\"P\",\"C\",\"81\"
\"\",\"\",\"approach-retreat\",\"230\",\"1669066\",\"0.0-230.0\",\"\",\"\",\"2-5\",\"3984\",\"38\",\"1\",\"Testing\",\"Stims/Figures/19-J-10-4.bmp\",\"nalana\",\"Up\",\"38\",\"4\",\"10\",\"7\",\"S\",\"C\",\"82\"
\"\",\"\",\"approach-retreat\",\"231\",\"1674576\",\"0.0-231.0\",\"\",\"\",\"2-5\",\"4005\",\"40\",\"1\",\"Testing\",\"Stims/Figures/100-J-10-3.bmp\",\"mala:la\",\"Down\",\"40\",\"4\",\"11\",\"7\",\"S\",\"C\",\"83\"
\"\",\"\",\"approach-retreat\",\"232\",\"1680045\",\"0.0-232.0\",\"\",\"\",\"2-5\",\"3963\",\"40\",\"0\",\"Testing\",\"Stims/Figures/84-C-20-2.bmp\",\"pa:pata\",\"Down\",\"38\",\"4\",\"12\",\"7\",\"P\",\"C\",\"84\"
\"\",\"\",\"approach-retreat\",\"233\",\"1687256\",\"0.0-233.0\",\"\",\"\",\"2-5\",\"5705\",\"38\",\"1\",\"Testing\",\"Stims/Figures/118-C-20-2.bmp\",\"pa:pa:ka\",\"Down\",\"38\",\"4\",\"13\",\"7\",\"P\",\"C\",\"85\"
\"\",\"\",\"approach-retreat\",\"234\",\"1692786\",\"0.0-234.0\",\"\",\"\",\"2-5\",\"4019\",\"37\",\"0\",\"Testing\",\"Stims/Figures/57-C-30-1.bmp\",\"taka:ta\",\"Left\",\"39\",\"4\",\"14\",\"7\",\"P\",\"C\",\"86\"
\"\",\"\",\"approach-retreat\",\"235\",\"1700676\",\"0.0-235.0\",\"\",\"\",\"2-5\",\"6381\",\"37\",\"0\",\"Testing\",\"Stims/Figures/128-C-30-3.bmp\",\"namala\",\"Left\",\"39\",\"4\",\"15\",\"7\",\"S\",\"C\",\"87\"
\"\",\"\",\"approach-retreat\",\"236\",\"1706377\",\"0.0-236.0\",\"\",\"\",\"2-5\",\"4194\",\"39\",\"1\",\"Testing\",\"Stims/Figures/102-J-10-4.bmp\",\"na:mana\",\"Right\",\"39\",\"4\",\"16\",\"7\",\"S\",\"C\",\"88\"
\"\",\"\",\"approach-retreat\",\"237\",\"1711848\",\"0.0-237.0\",\"\",\"\",\"2-5\",\"3965\",\"40\",\"1\",\"Testing\",\"Stims/Figures/84-J-0-2.bmp\",\"ta:pa:ta\",\"Down\",\"40\",\"4\",\"17\",\"7\",\"P\",\"C\",\"89\"
\"\",\"\",\"approach-retreat\",\"238\",\"1717317\",\"0.0-238.0\",\"\",\"\",\"2-5\",\"3965\",\"39\",\"1\",\"Testing\",\"Stims/Figures/128-J-10-3.bmp\",\"na:ma:la\",\"Right\",\"39\",\"4\",\"18\",\"7\",\"S\",\"C\",\"90\"
\"\",\"\",\"approach-retreat\",\"239\",\"1722797\",\"0.0-239.0\",\"\",\"\",\"2-5\",\"3966\",\"40\",\"1\",\"Testing\",\"Stims/Figures/7-J-10-4.bmp\",\"na:lana\",\"Down\",\"40\",\"4\",\"19\",\"7\",\"S\",\"C\",\"91\"
\"\",\"\",\"approach-retreat\",\"240\",\"1728609\",\"0.0-240.0\",\"\",\"\",\"2-5\",\"4301\",\"37\",\"0\",\"Testing\",\"Stims/Figures/44-J-10-3.bmp\",\"ma:ma:na\",\"Right\",\"39\",\"4\",\"20\",\"7\",\"S\",\"C\",\"92\"
\"\",\"\",\"approach-retreat\",\"241\",\"1734459\",\"0.0-241.0\",\"\",\"\",\"2-5\",\"4335\",\"37\",\"1\",\"Testing\",\"Stims/Figures/93-C-30-1.bmp\",\"paka:ka\",\"Right\",\"37\",\"4\",\"21\",\"7\",\"P\",\"C\",\"93\"
\"\",\"\",\"approach-retreat\",\"242\",\"1740378\",\"0.0-242.0\",\"\",\"\",\"2-5\",\"4412\",\"37\",\"1\",\"Testing\",\"Stims/Figures/71-J-0-1.bmp\",\"takata\",\"Left\",\"37\",\"4\",\"22\",\"7\",\"P\",\"C\",\"94\"
\"\",\"\",\"approach-retreat\",\"243\",\"1749019\",\"0.0-243.0\",\"\",\"\",\"2-5\",\"7135\",\"38\",\"1\",\"Testing\",\"Stims/Figures/118-J-0-2.bmp\",\"pa:kata\",\"Up\",\"38\",\"4\",\"23\",\"7\",\"P\",\"C\",\"95\"
\"\",\"\",\"approach-retreat\",\"244\",\"1754918\",\"0.0-244.0\",\"\",\"\",\"2-5\",\"4385\",\"40\",\"0\",\"Testing\",\"Stims/Figures/100-C-30-3.bmp\",\"na:la:la\",\"Down\",\"38\",\"4\",\"24\",\"7\",\"S\",\"C\",\"96\"
\"86034\",\"\",\"survey-text\",\"245\",\"1840964\",\"0.0-245.0\",\"\",\"{\"\"Q0\"\":\"\"2150\"\"}\",\"\",\"\",\"\",\"\",\"\",\"\",\"\",\"\",\"\",\"\",\"\",\"\",\"\",\"\",\"\"
