\"rt\",\"key_press\",\"trial_type\",\"trial_index\",\"time_elapsed\",\"internal_node_id\",\"view_history\",\"responses\",\"Id\",\"Rt\",\"ResKeyCode\",\"ResCorr\",\"TrialType2\",\"Image\",\"Label\",\"Location\",\"CorrectResponse\",\"Block\",\"BlockTrial\",\"Condition\",\"LabelType\",\"Subcondition\",\"trialNum\"
\"27487\",\"32\",\"text\",\"0\",\"27490\",\"0.0-0.0-0.0\",\"\",\"\",\"\",\"\",\"\",\"\",\"\",\"\",\"\",\"\",\"\",\"\",\"\",\"\",\"\",\"\",\"\"
\"85814\",\"\",\"instructions\",\"1\",\"113308\",\"0.0-1.0\",\"[{\"\"page_index\"\":0,\"\"viewing_time\"\":85812}]\",\"\",\"\",\"\",\"\",\"\",\"\",\"\",\"\",\"\",\"\",\"\",\"\",\"\",\"\",\"\",\"\"
\"18962\",\"\",\"survey-multi-choice\",\"2\",\"132327\",\"0.0-2.0\",\"\",\"{\"\"Q0\"\":\"\"Da\"\",\"\"Q1\"\":\"\"Da\"\",\"\"Q2\"\":\"\"Da\"\",\"\"Q3\"\":\"\"Da\"\",\"\"Q4\"\":\"\"Da\"\",\"\"Q5\"\":\"\"Da\"\"}\",\"\",\"\",\"\",\"\",\"\",\"\",\"\",\"\",\"\",\"\",\"\",\"\",\"\",\"\",\"\"
\"\",\"\",\"bio\",\"3\",\"140202\",\"0.0-3.0\",\"\",\"{\"\"age\"\":\"\"21\"\",\"\"gender\"\":\"\"f\"\",\"\"specify\"\":\"\"\"\"}\",\"\",\"\",\"\",\"\",\"\",\"\",\"\",\"\",\"\",\"\",\"\",\"\",\"\",\"\",\"\"
\"\",\"\",\"approach-retreat\",\"4\",\"149803\",\"0.0-4.0\",\"\",\"\",\"1-5\",\"8095\",\"37\",\"1\",\"Training\",\"Stims/Figures/128-J-10-3.bmp\",\"ma:ma:na\",\"Right\",\"37\",\"1\",\"1\",\"7\",\"S\",\"J\",\"1\"
\"\",\"\",\"approach-retreat\",\"5\",\"158384\",\"0.0-5.0\",\"\",\"\",\"1-5\",\"7063\",\"40\",\"1\",\"Training\",\"Stims/Figures/84-C-20-2.bmp\",\"tapata\",\"Down\",\"40\",\"1\",\"2\",\"7\",\"P\",\"J\",\"2\"
\"\",\"\",\"approach-retreat\",\"6\",\"165211\",\"0.0-6.0\",\"\",\"\",\"1-5\",\"5312\",\"37\",\"1\",\"Training\",\"Stims/Figures/111-J-10-3.bmp\",\"mamala\",\"Right\",\"37\",\"1\",\"3\",\"7\",\"S\",\"J\",\"3\"
\"\",\"\",\"approach-retreat\",\"7\",\"171628\",\"0.0-7.0\",\"\",\"\",\"1-5\",\"4904\",\"40\",\"1\",\"Training\",\"Stims/Figures/102-C-20-4.bmp\",\"mala:na\",\"Down\",\"40\",\"1\",\"4\",\"7\",\"S\",\"J\",\"4\"
\"\",\"\",\"approach-retreat\",\"8\",\"178044\",\"0.0-8.0\",\"\",\"\",\"1-5\",\"4898\",\"37\",\"0\",\"Training\",\"Stims/Figures/139-J-0-2.bmp\",\"ta:ka:ta\",\"Left\",\"39\",\"1\",\"5\",\"7\",\"P\",\"J\",\"5\"
\"\",\"\",\"approach-retreat\",\"9\",\"184821\",\"0.0-9.0\",\"\",\"\",\"1-5\",\"5265\",\"39\",\"0\",\"Training\",\"Stims/Figures/27-J-0-1.bmp\",\"papata\",\"Right\",\"37\",\"1\",\"6\",\"7\",\"P\",\"J\",\"6\"
\"\",\"\",\"approach-retreat\",\"10\",\"192388\",\"0.0-10.0\",\"\",\"\",\"1-5\",\"6050\",\"39\",\"0\",\"Training\",\"Stims/Figures/128-C-30-3.bmp\",\"ma:la:la\",\"Left\",\"37\",\"1\",\"7\",\"7\",\"S\",\"J\",\"7\"
\"\",\"\",\"approach-retreat\",\"11\",\"200137\",\"0.0-11.0\",\"\",\"\",\"1-5\",\"6235\",\"39\",\"1\",\"Training\",\"Stims/Figures/102-J-10-4.bmp\",\"malana\",\"Left\",\"39\",\"1\",\"8\",\"7\",\"S\",\"J\",\"8\"
\"\",\"\",\"approach-retreat\",\"12\",\"208769\",\"0.0-12.0\",\"\",\"\",\"1-5\",\"7116\",\"38\",\"0\",\"Training\",\"Stims/Figures/84-J-0-2.bmp\",\"ta:kata\",\"Up\",\"40\",\"1\",\"9\",\"7\",\"P\",\"J\",\"9\"
\"\",\"\",\"approach-retreat\",\"13\",\"215835\",\"0.0-13.0\",\"\",\"\",\"1-5\",\"5550\",\"38\",\"0\",\"Training\",\"Stims/Figures/111-C-30-3.bmp\",\"na:ma:na\",\"Down\",\"40\",\"1\",\"10\",\"7\",\"S\",\"J\",\"10\"
\"\",\"\",\"approach-retreat\",\"14\",\"222380\",\"0.0-14.0\",\"\",\"\",\"1-5\",\"5030\",\"39\",\"1\",\"Training\",\"Stims/Figures/57-J-0-1.bmp\",\"pa:pa:ka\",\"Left\",\"39\",\"1\",\"11\",\"7\",\"P\",\"J\",\"11\"
\"\",\"\",\"approach-retreat\",\"15\",\"228649\",\"0.0-15.0\",\"\",\"\",\"1-5\",\"4753\",\"40\",\"0\",\"Training\",\"Stims/Figures/139-C-20-2.bmp\",\"takaka\",\"Up\",\"38\",\"1\",\"12\",\"7\",\"P\",\"J\",\"12\"
\"\",\"\",\"approach-retreat\",\"16\",\"234992\",\"0.0-16.0\",\"\",\"\",\"1-5\",\"4829\",\"38\",\"1\",\"Training\",\"Stims/Figures/74-J-10-4.bmp\",\"nala:la\",\"Down\",\"38\",\"1\",\"13\",\"7\",\"S\",\"J\",\"13\"
\"\",\"\",\"approach-retreat\",\"17\",\"242793\",\"0.0-17.0\",\"\",\"\",\"1-5\",\"6288\",\"37\",\"0\",\"Training\",\"Stims/Figures/74-C-20-4.bmp\",\"namana\",\"Right\",\"39\",\"1\",\"14\",\"7\",\"S\",\"J\",\"14\"
\"\",\"\",\"approach-retreat\",\"18\",\"248657\",\"0.0-18.0\",\"\",\"\",\"1-5\",\"4346\",\"40\",\"0\",\"Training\",\"Stims/Figures/57-C-30-1.bmp\",\"ta:pata\",\"Up\",\"38\",\"1\",\"15\",\"7\",\"P\",\"J\",\"15\"
\"\",\"\",\"approach-retreat\",\"19\",\"254993\",\"0.0-19.0\",\"\",\"\",\"1-5\",\"4820\",\"40\",\"0\",\"Training\",\"Stims/Figures/27-C-30-1.bmp\",\"papa:ta\",\"Up\",\"38\",\"1\",\"16\",\"7\",\"P\",\"J\",\"16\"
\"\",\"\",\"approach-retreat\",\"20\",\"260912\",\"0.0-20.0\",\"\",\"\",\"1-5\",\"4404\",\"40\",\"0\",\"Training\",\"Stims/Figures/139-C-20-2.bmp\",\"takaka\",\"Up\",\"38\",\"2\",\"1\",\"7\",\"P\",\"J\",\"17\"
\"\",\"\",\"approach-retreat\",\"21\",\"266502\",\"0.0-21.0\",\"\",\"\",\"1-5\",\"4075\",\"37\",\"1\",\"Training\",\"Stims/Figures/84-J-0-2.bmp\",\"ta:kata\",\"Right\",\"37\",\"2\",\"2\",\"7\",\"P\",\"J\",\"18\"
\"\",\"\",\"approach-retreat\",\"22\",\"272712\",\"0.0-22.0\",\"\",\"\",\"1-5\",\"4697\",\"39\",\"1\",\"Training\",\"Stims/Figures/74-C-20-4.bmp\",\"namana\",\"Right\",\"39\",\"2\",\"3\",\"7\",\"S\",\"J\",\"19\"
\"\",\"\",\"approach-retreat\",\"23\",\"279111\",\"0.0-23.0\",\"\",\"\",\"1-5\",\"4885\",\"39\",\"1\",\"Training\",\"Stims/Figures/111-C-30-3.bmp\",\"na:ma:na\",\"Right\",\"39\",\"2\",\"4\",\"7\",\"S\",\"J\",\"20\"
\"\",\"\",\"approach-retreat\",\"24\",\"286649\",\"0.0-24.0\",\"\",\"\",\"1-5\",\"6022\",\"38\",\"0\",\"Training\",\"Stims/Figures/74-J-10-4.bmp\",\"nala:la\",\"Up\",\"40\",\"2\",\"5\",\"7\",\"S\",\"J\",\"21\"
\"\",\"\",\"approach-retreat\",\"25\",\"292748\",\"0.0-25.0\",\"\",\"\",\"1-5\",\"4586\",\"37\",\"1\",\"Training\",\"Stims/Figures/84-C-20-2.bmp\",\"tapata\",\"Left\",\"37\",\"2\",\"6\",\"7\",\"P\",\"J\",\"22\"
\"\",\"\",\"approach-retreat\",\"26\",\"298619\",\"0.0-26.0\",\"\",\"\",\"1-5\",\"4357\",\"38\",\"1\",\"Training\",\"Stims/Figures/102-C-20-4.bmp\",\"mala:na\",\"Up\",\"38\",\"2\",\"7\",\"7\",\"S\",\"J\",\"23\"
\"\",\"\",\"approach-retreat\",\"27\",\"304449\",\"0.0-27.0\",\"\",\"\",\"1-5\",\"4313\",\"40\",\"0\",\"Training\",\"Stims/Figures/57-J-0-1.bmp\",\"pa:pa:ka\",\"Down\",\"38\",\"2\",\"8\",\"7\",\"P\",\"J\",\"24\"
\"\",\"\",\"approach-retreat\",\"28\",\"310690\",\"0.0-28.0\",\"\",\"\",\"1-5\",\"4727\",\"39\",\"0\",\"Training\",\"Stims/Figures/27-J-0-1.bmp\",\"papata\",\"Right\",\"37\",\"2\",\"9\",\"7\",\"P\",\"J\",\"25\"
\"\",\"\",\"approach-retreat\",\"29\",\"317174\",\"0.0-29.0\",\"\",\"\",\"1-5\",\"4970\",\"37\",\"0\",\"Training\",\"Stims/Figures/111-J-10-3.bmp\",\"mamala\",\"Left\",\"39\",\"2\",\"10\",\"7\",\"S\",\"J\",\"26\"
\"\",\"\",\"approach-retreat\",\"30\",\"323628\",\"0.0-30.0\",\"\",\"\",\"1-5\",\"4940\",\"39\",\"0\",\"Training\",\"Stims/Figures/128-C-30-3.bmp\",\"ma:la:la\",\"Left\",\"37\",\"2\",\"11\",\"7\",\"S\",\"J\",\"27\"
\"\",\"\",\"approach-retreat\",\"31\",\"329290\",\"0.0-31.0\",\"\",\"\",\"1-5\",\"4146\",\"40\",\"1\",\"Training\",\"Stims/Figures/27-C-30-1.bmp\",\"papa:ta\",\"Down\",\"40\",\"2\",\"12\",\"7\",\"P\",\"J\",\"28\"
\"\",\"\",\"approach-retreat\",\"32\",\"334895\",\"0.0-32.0\",\"\",\"\",\"1-5\",\"4089\",\"40\",\"0\",\"Training\",\"Stims/Figures/139-J-0-2.bmp\",\"ta:ka:ta\",\"Down\",\"38\",\"2\",\"13\",\"7\",\"P\",\"J\",\"29\"
\"\",\"\",\"approach-retreat\",\"33\",\"343468\",\"0.0-33.0\",\"\",\"\",\"1-5\",\"7058\",\"38\",\"1\",\"Training\",\"Stims/Figures/128-J-10-3.bmp\",\"ma:ma:na\",\"Down\",\"38\",\"2\",\"14\",\"7\",\"S\",\"J\",\"30\"
\"\",\"\",\"approach-retreat\",\"34\",\"349225\",\"0.0-34.0\",\"\",\"\",\"1-5\",\"4244\",\"39\",\"1\",\"Training\",\"Stims/Figures/102-J-10-4.bmp\",\"malana\",\"Left\",\"39\",\"2\",\"15\",\"7\",\"S\",\"J\",\"31\"
\"\",\"\",\"approach-retreat\",\"35\",\"355124\",\"0.0-35.0\",\"\",\"\",\"1-5\",\"4383\",\"40\",\"0\",\"Training\",\"Stims/Figures/57-C-30-1.bmp\",\"ta:pata\",\"Up\",\"38\",\"2\",\"16\",\"7\",\"P\",\"J\",\"32\"
\"\",\"\",\"approach-retreat\",\"36\",\"360823\",\"0.0-36.0\",\"\",\"\",\"1-5\",\"4190\",\"39\",\"1\",\"Training\",\"Stims/Figures/128-C-30-3.bmp\",\"ma:la:la\",\"Right\",\"39\",\"3\",\"1\",\"7\",\"S\",\"J\",\"33\"
\"\",\"\",\"approach-retreat\",\"37\",\"369678\",\"0.0-37.0\",\"\",\"\",\"1-5\",\"7341\",\"39\",\"0\",\"Training\",\"Stims/Figures/27-C-30-1.bmp\",\"papa:ta\",\"Left\",\"37\",\"3\",\"2\",\"7\",\"P\",\"J\",\"34\"
\"\",\"\",\"approach-retreat\",\"38\",\"376005\",\"0.0-38.0\",\"\",\"\",\"1-5\",\"4811\",\"38\",\"0\",\"Training\",\"Stims/Figures/84-J-0-2.bmp\",\"ta:kata\",\"Up\",\"40\",\"3\",\"3\",\"7\",\"P\",\"J\",\"35\"
\"\",\"\",\"approach-retreat\",\"39\",\"382593\",\"0.0-39.0\",\"\",\"\",\"1-5\",\"5074\",\"40\",\"1\",\"Training\",\"Stims/Figures/57-C-30-1.bmp\",\"ta:pata\",\"Down\",\"40\",\"3\",\"4\",\"7\",\"P\",\"J\",\"36\"
\"\",\"\",\"approach-retreat\",\"40\",\"388624\",\"0.0-40.0\",\"\",\"\",\"1-5\",\"4516\",\"39\",\"0\",\"Training\",\"Stims/Figures/57-J-0-1.bmp\",\"pa:pa:ka\",\"Right\",\"37\",\"3\",\"5\",\"7\",\"P\",\"J\",\"37\"
\"\",\"\",\"approach-retreat\",\"41\",\"395327\",\"0.0-41.0\",\"\",\"\",\"1-5\",\"5188\",\"38\",\"0\",\"Training\",\"Stims/Figures/111-J-10-3.bmp\",\"mamala\",\"Up\",\"40\",\"3\",\"6\",\"7\",\"S\",\"J\",\"38\"
\"\",\"\",\"approach-retreat\",\"42\",\"401370\",\"0.0-42.0\",\"\",\"\",\"1-5\",\"4531\",\"37\",\"0\",\"Training\",\"Stims/Figures/139-J-0-2.bmp\",\"ta:ka:ta\",\"Left\",\"39\",\"3\",\"7\",\"7\",\"P\",\"J\",\"39\"
\"\",\"\",\"approach-retreat\",\"43\",\"408034\",\"0.0-43.0\",\"\",\"\",\"1-5\",\"5149\",\"40\",\"1\",\"Training\",\"Stims/Figures/128-J-10-3.bmp\",\"ma:ma:na\",\"Up\",\"40\",\"3\",\"8\",\"7\",\"S\",\"J\",\"40\"
\"\",\"\",\"approach-retreat\",\"44\",\"414307\",\"0.0-44.0\",\"\",\"\",\"1-5\",\"4759\",\"38\",\"1\",\"Training\",\"Stims/Figures/74-J-10-4.bmp\",\"nala:la\",\"Down\",\"38\",\"3\",\"9\",\"7\",\"S\",\"J\",\"41\"
\"\",\"\",\"approach-retreat\",\"45\",\"419991\",\"0.0-45.0\",\"\",\"\",\"1-5\",\"4169\",\"39\",\"1\",\"Training\",\"Stims/Figures/102-J-10-4.bmp\",\"malana\",\"Left\",\"39\",\"3\",\"10\",\"7\",\"S\",\"J\",\"42\"
\"\",\"\",\"approach-retreat\",\"46\",\"426756\",\"0.0-46.0\",\"\",\"\",\"1-5\",\"5249\",\"39\",\"1\",\"Training\",\"Stims/Figures/111-C-30-3.bmp\",\"na:ma:na\",\"Right\",\"39\",\"3\",\"11\",\"7\",\"S\",\"J\",\"43\"
\"\",\"\",\"approach-retreat\",\"47\",\"437571\",\"0.0-47.0\",\"\",\"\",\"1-5\",\"9303\",\"38\",\"0\",\"Training\",\"Stims/Figures/102-C-20-4.bmp\",\"mala:na\",\"Down\",\"40\",\"3\",\"12\",\"7\",\"S\",\"J\",\"44\"
\"\",\"\",\"approach-retreat\",\"48\",\"447338\",\"0.0-48.0\",\"\",\"\",\"1-5\",\"8252\",\"37\",\"1\",\"Training\",\"Stims/Figures/27-J-0-1.bmp\",\"papata\",\"Right\",\"37\",\"3\",\"13\",\"7\",\"P\",\"J\",\"45\"
\"\",\"\",\"approach-retreat\",\"49\",\"453062\",\"0.0-49.0\",\"\",\"\",\"1-5\",\"4208\",\"39\",\"0\",\"Training\",\"Stims/Figures/74-C-20-4.bmp\",\"namana\",\"Left\",\"37\",\"3\",\"14\",\"7\",\"S\",\"J\",\"46\"
\"\",\"\",\"approach-retreat\",\"50\",\"458928\",\"0.0-50.0\",\"\",\"\",\"1-5\",\"4351\",\"38\",\"0\",\"Training\",\"Stims/Figures/84-C-20-2.bmp\",\"tapata\",\"Down\",\"40\",\"3\",\"15\",\"7\",\"P\",\"J\",\"47\"
\"\",\"\",\"approach-retreat\",\"51\",\"465921\",\"0.0-51.0\",\"\",\"\",\"1-5\",\"5475\",\"40\",\"0\",\"Training\",\"Stims/Figures/139-C-20-2.bmp\",\"takaka\",\"Up\",\"38\",\"3\",\"16\",\"7\",\"P\",\"J\",\"48\"
\"\",\"\",\"approach-retreat\",\"52\",\"479125\",\"0.0-52.0\",\"\",\"\",\"1-5\",\"11698\",\"37\",\"0\",\"Training\",\"Stims/Figures/102-C-20-4.bmp\",\"mala:na\",\"Right\",\"39\",\"4\",\"1\",\"7\",\"S\",\"J\",\"49\"
\"\",\"\",\"approach-retreat\",\"53\",\"485709\",\"0.0-53.0\",\"\",\"\",\"1-5\",\"5066\",\"39\",\"0\",\"Training\",\"Stims/Figures/102-J-10-4.bmp\",\"malana\",\"Right\",\"37\",\"4\",\"2\",\"7\",\"S\",\"J\",\"50\"
\"\",\"\",\"approach-retreat\",\"54\",\"493606\",\"0.0-54.0\",\"\",\"\",\"1-5\",\"6380\",\"39\",\"0\",\"Training\",\"Stims/Figures/74-J-10-4.bmp\",\"nala:la\",\"Right\",\"37\",\"4\",\"3\",\"7\",\"S\",\"J\",\"51\"
\"\",\"\",\"approach-retreat\",\"55\",\"499445\",\"0.0-55.0\",\"\",\"\",\"1-5\",\"4325\",\"39\",\"1\",\"Training\",\"Stims/Figures/128-J-10-3.bmp\",\"ma:ma:na\",\"Left\",\"39\",\"4\",\"4\",\"7\",\"S\",\"J\",\"52\"
\"\",\"\",\"approach-retreat\",\"56\",\"507833\",\"0.0-56.0\",\"\",\"\",\"1-5\",\"6876\",\"38\",\"1\",\"Training\",\"Stims/Figures/139-C-20-2.bmp\",\"takaka\",\"Up\",\"38\",\"4\",\"5\",\"7\",\"P\",\"J\",\"53\"
\"\",\"\",\"approach-retreat\",\"57\",\"513836\",\"0.0-57.0\",\"\",\"\",\"1-5\",\"4488\",\"40\",\"1\",\"Training\",\"Stims/Figures/27-C-30-1.bmp\",\"papa:ta\",\"Down\",\"40\",\"4\",\"6\",\"7\",\"P\",\"J\",\"54\"
\"\",\"\",\"approach-retreat\",\"58\",\"519635\",\"0.0-58.0\",\"\",\"\",\"1-5\",\"4285\",\"38\",\"1\",\"Training\",\"Stims/Figures/111-J-10-3.bmp\",\"mamala\",\"Down\",\"38\",\"4\",\"7\",\"7\",\"S\",\"J\",\"55\"
\"\",\"\",\"approach-retreat\",\"59\",\"525504\",\"0.0-59.0\",\"\",\"\",\"1-5\",\"4355\",\"40\",\"0\",\"Training\",\"Stims/Figures/84-J-0-2.bmp\",\"ta:kata\",\"Down\",\"38\",\"4\",\"8\",\"7\",\"P\",\"J\",\"56\"
\"\",\"\",\"approach-retreat\",\"60\",\"531614\",\"0.0-60.0\",\"\",\"\",\"1-5\",\"4595\",\"38\",\"0\",\"Training\",\"Stims/Figures/74-C-20-4.bmp\",\"namana\",\"Down\",\"40\",\"4\",\"9\",\"7\",\"S\",\"J\",\"57\"
\"\",\"\",\"approach-retreat\",\"61\",\"537710\",\"0.0-61.0\",\"\",\"\",\"1-5\",\"4579\",\"39\",\"0\",\"Training\",\"Stims/Figures/111-C-30-3.bmp\",\"na:ma:na\",\"Left\",\"37\",\"4\",\"10\",\"7\",\"S\",\"J\",\"58\"
\"\",\"\",\"approach-retreat\",\"62\",\"543568\",\"0.0-62.0\",\"\",\"\",\"1-5\",\"4343\",\"40\",\"0\",\"Training\",\"Stims/Figures/57-C-30-1.bmp\",\"ta:pata\",\"Up\",\"38\",\"4\",\"11\",\"7\",\"P\",\"J\",\"59\"
\"\",\"\",\"approach-retreat\",\"63\",\"550712\",\"0.0-63.0\",\"\",\"\",\"1-5\",\"5631\",\"37\",\"1\",\"Training\",\"Stims/Figures/84-C-20-2.bmp\",\"tapata\",\"Left\",\"37\",\"4\",\"12\",\"7\",\"P\",\"J\",\"60\"
\"\",\"\",\"approach-retreat\",\"64\",\"556518\",\"0.0-64.0\",\"\",\"\",\"1-5\",\"4291\",\"37\",\"0\",\"Training\",\"Stims/Figures/57-J-0-1.bmp\",\"pa:pa:ka\",\"Left\",\"39\",\"4\",\"13\",\"7\",\"P\",\"J\",\"61\"
\"\",\"\",\"approach-retreat\",\"65\",\"562883\",\"0.0-65.0\",\"\",\"\",\"1-5\",\"4851\",\"40\",\"1\",\"Training\",\"Stims/Figures/27-J-0-1.bmp\",\"papata\",\"Up\",\"40\",\"4\",\"14\",\"7\",\"P\",\"J\",\"62\"
\"\",\"\",\"approach-retreat\",\"66\",\"568641\",\"0.0-66.0\",\"\",\"\",\"1-5\",\"4245\",\"37\",\"1\",\"Training\",\"Stims/Figures/139-J-0-2.bmp\",\"ta:ka:ta\",\"Right\",\"37\",\"4\",\"15\",\"7\",\"P\",\"J\",\"63\"
\"\",\"\",\"approach-retreat\",\"67\",\"574343\",\"0.0-67.0\",\"\",\"\",\"1-5\",\"4188\",\"40\",\"0\",\"Training\",\"Stims/Figures/128-C-30-3.bmp\",\"ma:la:la\",\"Up\",\"38\",\"4\",\"16\",\"7\",\"S\",\"J\",\"64\"
\"\",\"\",\"approach-retreat\",\"68\",\"580862\",\"0.0-68.0\",\"\",\"\",\"1-5\",\"5006\",\"40\",\"1\",\"Training\",\"Stims/Figures/27-J-0-1.bmp\",\"papata\",\"Up\",\"40\",\"5\",\"1\",\"7\",\"P\",\"J\",\"65\"
\"\",\"\",\"approach-retreat\",\"69\",\"586793\",\"0.0-69.0\",\"\",\"\",\"1-5\",\"4415\",\"37\",\"0\",\"Training\",\"Stims/Figures/102-J-10-4.bmp\",\"malana\",\"Left\",\"39\",\"5\",\"2\",\"7\",\"S\",\"J\",\"66\"
\"\",\"\",\"approach-retreat\",\"70\",\"592985\",\"0.0-70.0\",\"\",\"\",\"1-5\",\"4679\",\"38\",\"1\",\"Training\",\"Stims/Figures/128-J-10-3.bmp\",\"ma:ma:na\",\"Down\",\"38\",\"5\",\"3\",\"7\",\"S\",\"J\",\"67\"
\"\",\"\",\"approach-retreat\",\"71\",\"598959\",\"0.0-71.0\",\"\",\"\",\"1-5\",\"4457\",\"37\",\"0\",\"Training\",\"Stims/Figures/57-J-0-1.bmp\",\"pa:pa:ka\",\"Left\",\"39\",\"5\",\"4\",\"7\",\"P\",\"J\",\"68\"
\"\",\"\",\"approach-retreat\",\"72\",\"604750\",\"0.0-72.0\",\"\",\"\",\"1-5\",\"4279\",\"40\",\"1\",\"Training\",\"Stims/Figures/74-J-10-4.bmp\",\"nala:la\",\"Up\",\"40\",\"5\",\"5\",\"7\",\"S\",\"J\",\"69\"
\"\",\"\",\"approach-retreat\",\"73\",\"610735\",\"0.0-73.0\",\"\",\"\",\"1-5\",\"4471\",\"39\",\"0\",\"Training\",\"Stims/Figures/27-C-30-1.bmp\",\"papa:ta\",\"Left\",\"37\",\"5\",\"6\",\"7\",\"P\",\"J\",\"70\"
\"\",\"\",\"approach-retreat\",\"74\",\"616692\",\"0.0-74.0\",\"\",\"\",\"1-5\",\"4437\",\"39\",\"1\",\"Training\",\"Stims/Figures/84-C-20-2.bmp\",\"tapata\",\"Right\",\"39\",\"5\",\"7\",\"7\",\"P\",\"J\",\"71\"
\"\",\"\",\"approach-retreat\",\"75\",\"622339\",\"0.0-75.0\",\"\",\"\",\"1-5\",\"4132\",\"39\",\"1\",\"Training\",\"Stims/Figures/57-C-30-1.bmp\",\"ta:pata\",\"Right\",\"39\",\"5\",\"8\",\"7\",\"P\",\"J\",\"72\"
\"\",\"\",\"approach-retreat\",\"76\",\"628359\",\"0.0-76.0\",\"\",\"\",\"1-5\",\"4506\",\"40\",\"1\",\"Training\",\"Stims/Figures/111-C-30-3.bmp\",\"na:ma:na\",\"Down\",\"40\",\"5\",\"9\",\"7\",\"S\",\"J\",\"73\"
\"\",\"\",\"approach-retreat\",\"77\",\"634066\",\"0.0-77.0\",\"\",\"\",\"1-5\",\"4192\",\"40\",\"0\",\"Training\",\"Stims/Figures/111-J-10-3.bmp\",\"mamala\",\"Down\",\"38\",\"5\",\"10\",\"7\",\"S\",\"J\",\"74\"
\"\",\"\",\"approach-retreat\",\"78\",\"641114\",\"0.0-78.0\",\"\",\"\",\"1-5\",\"5532\",\"39\",\"0\",\"Training\",\"Stims/Figures/84-J-0-2.bmp\",\"ta:kata\",\"Right\",\"37\",\"5\",\"11\",\"7\",\"P\",\"J\",\"75\"
\"\",\"\",\"approach-retreat\",\"79\",\"646737\",\"0.0-79.0\",\"\",\"\",\"1-5\",\"4108\",\"37\",\"1\",\"Training\",\"Stims/Figures/139-C-20-2.bmp\",\"takaka\",\"Left\",\"37\",\"5\",\"12\",\"7\",\"P\",\"J\",\"76\"
\"\",\"\",\"approach-retreat\",\"80\",\"654015\",\"0.0-80.0\",\"\",\"\",\"1-5\",\"5761\",\"38\",\"1\",\"Training\",\"Stims/Figures/128-C-30-3.bmp\",\"ma:la:la\",\"Up\",\"38\",\"5\",\"13\",\"7\",\"S\",\"J\",\"77\"
\"\",\"\",\"approach-retreat\",\"81\",\"659878\",\"0.0-81.0\",\"\",\"\",\"1-5\",\"4344\",\"38\",\"0\",\"Training\",\"Stims/Figures/139-J-0-2.bmp\",\"ta:ka:ta\",\"Up\",\"40\",\"5\",\"14\",\"7\",\"P\",\"J\",\"78\"
\"\",\"\",\"approach-retreat\",\"82\",\"665952\",\"0.0-82.0\",\"\",\"\",\"1-5\",\"4558\",\"39\",\"1\",\"Training\",\"Stims/Figures/74-C-20-4.bmp\",\"namana\",\"Right\",\"39\",\"5\",\"15\",\"7\",\"S\",\"J\",\"79\"
\"\",\"\",\"approach-retreat\",\"83\",\"671736\",\"0.0-83.0\",\"\",\"\",\"1-5\",\"4270\",\"40\",\"1\",\"Training\",\"Stims/Figures/102-C-20-4.bmp\",\"mala:na\",\"Down\",\"40\",\"5\",\"16\",\"7\",\"S\",\"J\",\"80\"
\"\",\"\",\"approach-retreat\",\"84\",\"677761\",\"0.0-84.0\",\"\",\"\",\"1-5\",\"4511\",\"40\",\"0\",\"Training\",\"Stims/Figures/74-C-20-4.bmp\",\"namana\",\"Up\",\"38\",\"6\",\"1\",\"7\",\"S\",\"J\",\"81\"
\"\",\"\",\"approach-retreat\",\"85\",\"683484\",\"0.0-85.0\",\"\",\"\",\"1-5\",\"4216\",\"39\",\"1\",\"Training\",\"Stims/Figures/102-C-20-4.bmp\",\"mala:na\",\"Right\",\"39\",\"6\",\"2\",\"7\",\"S\",\"J\",\"82\"
\"\",\"\",\"approach-retreat\",\"86\",\"689317\",\"0.0-86.0\",\"\",\"\",\"1-5\",\"4319\",\"40\",\"1\",\"Training\",\"Stims/Figures/27-J-0-1.bmp\",\"papata\",\"Up\",\"40\",\"6\",\"3\",\"7\",\"P\",\"J\",\"83\"
\"\",\"\",\"approach-retreat\",\"87\",\"694911\",\"0.0-87.0\",\"\",\"\",\"1-5\",\"4076\",\"39\",\"1\",\"Training\",\"Stims/Figures/102-J-10-4.bmp\",\"malana\",\"Left\",\"39\",\"6\",\"4\",\"7\",\"S\",\"J\",\"84\"
\"\",\"\",\"approach-retreat\",\"88\",\"700575\",\"0.0-88.0\",\"\",\"\",\"1-5\",\"4148\",\"39\",\"1\",\"Training\",\"Stims/Figures/57-J-0-1.bmp\",\"pa:pa:ka\",\"Left\",\"39\",\"6\",\"5\",\"7\",\"P\",\"J\",\"85\"
\"\",\"\",\"approach-retreat\",\"89\",\"706479\",\"0.0-89.0\",\"\",\"\",\"1-5\",\"4389\",\"39\",\"0\",\"Training\",\"Stims/Figures/74-J-10-4.bmp\",\"nala:la\",\"Right\",\"37\",\"6\",\"6\",\"7\",\"S\",\"J\",\"86\"
\"\",\"\",\"approach-retreat\",\"90\",\"712153\",\"0.0-90.0\",\"\",\"\",\"1-5\",\"4160\",\"39\",\"0\",\"Training\",\"Stims/Figures/84-J-0-2.bmp\",\"ta:kata\",\"Right\",\"37\",\"6\",\"7\",\"7\",\"P\",\"J\",\"87\"
\"\",\"\",\"approach-retreat\",\"91\",\"717898\",\"0.0-91.0\",\"\",\"\",\"1-5\",\"4231\",\"39\",\"1\",\"Training\",\"Stims/Figures/111-J-10-3.bmp\",\"mamala\",\"Left\",\"39\",\"6\",\"8\",\"7\",\"S\",\"J\",\"88\"
\"\",\"\",\"approach-retreat\",\"92\",\"723943\",\"0.0-92.0\",\"\",\"\",\"1-5\",\"4528\",\"40\",\"0\",\"Training\",\"Stims/Figures/111-C-30-3.bmp\",\"na:ma:na\",\"Up\",\"38\",\"6\",\"9\",\"7\",\"S\",\"J\",\"89\"
\"\",\"\",\"approach-retreat\",\"93\",\"729790\",\"0.0-93.0\",\"\",\"\",\"1-5\",\"4334\",\"37\",\"1\",\"Training\",\"Stims/Figures/128-C-30-3.bmp\",\"ma:la:la\",\"Left\",\"37\",\"6\",\"10\",\"7\",\"S\",\"J\",\"90\"
\"\",\"\",\"approach-retreat\",\"94\",\"735613\",\"0.0-94.0\",\"\",\"\",\"1-5\",\"4310\",\"40\",\"0\",\"Training\",\"Stims/Figures/128-J-10-3.bmp\",\"ma:ma:na\",\"Down\",\"38\",\"6\",\"11\",\"7\",\"S\",\"J\",\"91\"
\"\",\"\",\"approach-retreat\",\"95\",\"741037\",\"0.0-95.0\",\"\",\"\",\"1-5\",\"3910\",\"39\",\"1\",\"Training\",\"Stims/Figures/57-C-30-1.bmp\",\"ta:pata\",\"Right\",\"39\",\"6\",\"12\",\"7\",\"P\",\"J\",\"92\"
\"\",\"\",\"approach-retreat\",\"96\",\"748487\",\"0.0-96.0\",\"\",\"\",\"1-5\",\"5933\",\"38\",\"1\",\"Training\",\"Stims/Figures/139-C-20-2.bmp\",\"takaka\",\"Up\",\"38\",\"6\",\"13\",\"7\",\"P\",\"J\",\"93\"
\"\",\"\",\"approach-retreat\",\"97\",\"755294\",\"0.0-97.0\",\"\",\"\",\"1-5\",\"5292\",\"38\",\"0\",\"Training\",\"Stims/Figures/84-C-20-2.bmp\",\"tapata\",\"Down\",\"40\",\"6\",\"14\",\"7\",\"P\",\"J\",\"94\"
\"\",\"\",\"approach-retreat\",\"98\",\"760878\",\"0.0-98.0\",\"\",\"\",\"1-5\",\"4071\",\"38\",\"1\",\"Training\",\"Stims/Figures/139-J-0-2.bmp\",\"ta:ka:ta\",\"Down\",\"38\",\"6\",\"15\",\"7\",\"P\",\"J\",\"95\"
\"\",\"\",\"approach-retreat\",\"99\",\"766597\",\"0.0-99.0\",\"\",\"\",\"1-5\",\"4203\",\"38\",\"0\",\"Training\",\"Stims/Figures/27-C-30-1.bmp\",\"papa:ta\",\"Down\",\"40\",\"6\",\"16\",\"7\",\"P\",\"J\",\"96\"
\"\",\"\",\"approach-retreat\",\"100\",\"773718\",\"0.0-100.0\",\"\",\"\",\"1-5\",\"5605\",\"38\",\"0\",\"Training\",\"Stims/Figures/74-J-10-4.bmp\",\"nala:la\",\"Up\",\"40\",\"7\",\"1\",\"7\",\"S\",\"J\",\"97\"
\"\",\"\",\"approach-retreat\",\"101\",\"779601\",\"0.0-101.0\",\"\",\"\",\"1-5\",\"4367\",\"37\",\"1\",\"Training\",\"Stims/Figures/27-J-0-1.bmp\",\"papata\",\"Right\",\"37\",\"7\",\"2\",\"7\",\"P\",\"J\",\"98\"
\"\",\"\",\"approach-retreat\",\"102\",\"785869\",\"0.0-102.0\",\"\",\"\",\"1-5\",\"4754\",\"40\",\"1\",\"Training\",\"Stims/Figures/139-C-20-2.bmp\",\"takaka\",\"Down\",\"40\",\"7\",\"3\",\"7\",\"P\",\"J\",\"99\"
\"\",\"\",\"approach-retreat\",\"103\",\"792294\",\"0.0-103.0\",\"\",\"\",\"1-5\",\"4909\",\"40\",\"0\",\"Training\",\"Stims/Figures/27-C-30-1.bmp\",\"papa:ta\",\"Up\",\"38\",\"7\",\"4\",\"7\",\"P\",\"J\",\"100\"
\"\",\"\",\"approach-retreat\",\"104\",\"798696\",\"0.0-104.0\",\"\",\"\",\"1-5\",\"4891\",\"37\",\"0\",\"Training\",\"Stims/Figures/102-C-20-4.bmp\",\"mala:na\",\"Right\",\"39\",\"7\",\"5\",\"7\",\"S\",\"J\",\"101\"
\"\",\"\",\"approach-retreat\",\"105\",\"806325\",\"0.0-105.0\",\"\",\"\",\"1-5\",\"6115\",\"38\",\"1\",\"Training\",\"Stims/Figures/128-C-30-3.bmp\",\"ma:la:la\",\"Up\",\"38\",\"7\",\"6\",\"7\",\"S\",\"J\",\"102\"
\"\",\"\",\"approach-retreat\",\"106\",\"813386\",\"0.0-106.0\",\"\",\"\",\"1-5\",\"5545\",\"38\",\"1\",\"Training\",\"Stims/Figures/57-C-30-1.bmp\",\"ta:pata\",\"Up\",\"38\",\"7\",\"7\",\"7\",\"P\",\"J\",\"103\"
\"\",\"\",\"approach-retreat\",\"107\",\"819293\",\"0.0-107.0\",\"\",\"\",\"1-5\",\"4392\",\"37\",\"0\",\"Training\",\"Stims/Figures/102-J-10-4.bmp\",\"malana\",\"Left\",\"39\",\"7\",\"8\",\"7\",\"S\",\"J\",\"104\"
\"\",\"\",\"approach-retreat\",\"108\",\"825014\",\"0.0-108.0\",\"\",\"\",\"1-5\",\"4208\",\"40\",\"0\",\"Training\",\"Stims/Figures/111-J-10-3.bmp\",\"mamala\",\"Down\",\"38\",\"7\",\"9\",\"7\",\"S\",\"J\",\"105\"
\"\",\"\",\"approach-retreat\",\"109\",\"830604\",\"0.0-109.0\",\"\",\"\",\"1-5\",\"4078\",\"37\",\"1\",\"Training\",\"Stims/Figures/128-J-10-3.bmp\",\"ma:ma:na\",\"Right\",\"37\",\"7\",\"10\",\"7\",\"S\",\"J\",\"106\"
\"\",\"\",\"approach-retreat\",\"110\",\"836511\",\"0.0-110.0\",\"\",\"\",\"1-5\",\"4394\",\"39\",\"0\",\"Training\",\"Stims/Figures/74-C-20-4.bmp\",\"namana\",\"Left\",\"37\",\"7\",\"11\",\"7\",\"S\",\"J\",\"107\"
\"\",\"\",\"approach-retreat\",\"111\",\"842195\",\"0.0-111.0\",\"\",\"\",\"1-5\",\"4172\",\"37\",\"0\",\"Training\",\"Stims/Figures/84-C-20-2.bmp\",\"tapata\",\"Right\",\"39\",\"7\",\"12\",\"7\",\"P\",\"J\",\"108\"
\"\",\"\",\"approach-retreat\",\"112\",\"847975\",\"0.0-112.0\",\"\",\"\",\"1-5\",\"4267\",\"40\",\"1\",\"Training\",\"Stims/Figures/111-C-30-3.bmp\",\"na:ma:na\",\"Down\",\"40\",\"7\",\"13\",\"7\",\"S\",\"J\",\"109\"
\"\",\"\",\"approach-retreat\",\"113\",\"853640\",\"0.0-113.0\",\"\",\"\",\"1-5\",\"4149\",\"40\",\"0\",\"Training\",\"Stims/Figures/139-J-0-2.bmp\",\"ta:ka:ta\",\"Down\",\"38\",\"7\",\"14\",\"7\",\"P\",\"J\",\"110\"
\"\",\"\",\"approach-retreat\",\"114\",\"859426\",\"0.0-114.0\",\"\",\"\",\"1-5\",\"4272\",\"39\",\"1\",\"Training\",\"Stims/Figures/57-J-0-1.bmp\",\"pa:pa:ka\",\"Left\",\"39\",\"7\",\"15\",\"7\",\"P\",\"J\",\"111\"
\"\",\"\",\"approach-retreat\",\"115\",\"865404\",\"0.0-115.0\",\"\",\"\",\"1-5\",\"4463\",\"39\",\"1\",\"Training\",\"Stims/Figures/84-J-0-2.bmp\",\"ta:kata\",\"Left\",\"39\",\"7\",\"16\",\"7\",\"P\",\"J\",\"112\"
\"\",\"\",\"approach-retreat\",\"116\",\"871102\",\"0.0-116.0\",\"\",\"\",\"1-5\",\"4185\",\"40\",\"1\",\"Training\",\"Stims/Figures/128-J-10-3.bmp\",\"ma:ma:na\",\"Up\",\"40\",\"8\",\"1\",\"7\",\"S\",\"J\",\"113\"
\"\",\"\",\"approach-retreat\",\"117\",\"877827\",\"0.0-117.0\",\"\",\"\",\"1-5\",\"5210\",\"38\",\"1\",\"Training\",\"Stims/Figures/139-C-20-2.bmp\",\"takaka\",\"Up\",\"38\",\"8\",\"2\",\"7\",\"P\",\"J\",\"114\"
\"\",\"\",\"approach-retreat\",\"118\",\"883623\",\"0.0-118.0\",\"\",\"\",\"1-5\",\"4280\",\"37\",\"0\",\"Training\",\"Stims/Figures/102-J-10-4.bmp\",\"malana\",\"Left\",\"39\",\"8\",\"3\",\"7\",\"S\",\"J\",\"115\"
\"\",\"\",\"approach-retreat\",\"119\",\"891531\",\"0.0-119.0\",\"\",\"\",\"1-5\",\"6392\",\"40\",\"0\",\"Training\",\"Stims/Figures/74-J-10-4.bmp\",\"nala:la\",\"Down\",\"38\",\"8\",\"4\",\"7\",\"S\",\"J\",\"116\"
\"\",\"\",\"approach-retreat\",\"120\",\"900065\",\"0.0-120.0\",\"\",\"\",\"1-5\",\"7016\",\"40\",\"0\",\"Training\",\"Stims/Figures/57-J-0-1.bmp\",\"pa:pa:ka\",\"Down\",\"38\",\"8\",\"5\",\"7\",\"P\",\"J\",\"117\"
\"\",\"\",\"approach-retreat\",\"121\",\"905640\",\"0.0-121.0\",\"\",\"\",\"1-5\",\"4059\",\"39\",\"0\",\"Training\",\"Stims/Figures/139-J-0-2.bmp\",\"ta:ka:ta\",\"Right\",\"37\",\"8\",\"6\",\"7\",\"P\",\"J\",\"118\"
\"\",\"\",\"approach-retreat\",\"122\",\"911329\",\"0.0-122.0\",\"\",\"\",\"1-5\",\"4177\",\"39\",\"0\",\"Training\",\"Stims/Figures/27-C-30-1.bmp\",\"papa:ta\",\"Left\",\"37\",\"8\",\"7\",\"7\",\"P\",\"J\",\"119\"
\"\",\"\",\"approach-retreat\",\"123\",\"916882\",\"0.0-123.0\",\"\",\"\",\"1-5\",\"4037\",\"39\",\"0\",\"Training\",\"Stims/Figures/84-J-0-2.bmp\",\"ta:kata\",\"Right\",\"37\",\"8\",\"8\",\"7\",\"P\",\"J\",\"120\"
\"\",\"\",\"approach-retreat\",\"124\",\"922573\",\"0.0-124.0\",\"\",\"\",\"1-5\",\"4177\",\"39\",\"1\",\"Training\",\"Stims/Figures/102-C-20-4.bmp\",\"mala:na\",\"Right\",\"39\",\"8\",\"9\",\"7\",\"S\",\"J\",\"121\"
\"\",\"\",\"approach-retreat\",\"125\",\"930174\",\"0.0-125.0\",\"\",\"\",\"1-5\",\"6089\",\"38\",\"1\",\"Training\",\"Stims/Figures/128-C-30-3.bmp\",\"ma:la:la\",\"Up\",\"38\",\"8\",\"10\",\"7\",\"S\",\"J\",\"122\"
\"\",\"\",\"approach-retreat\",\"126\",\"936506\",\"0.0-126.0\",\"\",\"\",\"1-5\",\"4818\",\"38\",\"1\",\"Training\",\"Stims/Figures/74-C-20-4.bmp\",\"namana\",\"Up\",\"38\",\"8\",\"11\",\"7\",\"S\",\"J\",\"123\"
\"\",\"\",\"approach-retreat\",\"127\",\"942234\",\"0.0-127.0\",\"\",\"\",\"1-5\",\"4214\",\"39\",\"0\",\"Training\",\"Stims/Figures/27-J-0-1.bmp\",\"papata\",\"Right\",\"37\",\"8\",\"12\",\"7\",\"P\",\"J\",\"124\"
\"\",\"\",\"approach-retreat\",\"128\",\"948015\",\"0.0-128.0\",\"\",\"\",\"1-5\",\"4268\",\"40\",\"1\",\"Training\",\"Stims/Figures/84-C-20-2.bmp\",\"tapata\",\"Down\",\"40\",\"8\",\"13\",\"7\",\"P\",\"J\",\"125\"
\"\",\"\",\"approach-retreat\",\"129\",\"953788\",\"0.0-129.0\",\"\",\"\",\"1-5\",\"4258\",\"37\",\"1\",\"Training\",\"Stims/Figures/57-C-30-1.bmp\",\"ta:pata\",\"Left\",\"37\",\"8\",\"14\",\"7\",\"P\",\"J\",\"126\"
\"\",\"\",\"approach-retreat\",\"130\",\"959799\",\"0.0-130.0\",\"\",\"\",\"1-5\",\"4496\",\"37\",\"0\",\"Training\",\"Stims/Figures/111-J-10-3.bmp\",\"mamala\",\"Left\",\"39\",\"8\",\"15\",\"7\",\"S\",\"J\",\"127\"
\"\",\"\",\"approach-retreat\",\"131\",\"966183\",\"0.0-131.0\",\"\",\"\",\"1-5\",\"4871\",\"40\",\"1\",\"Training\",\"Stims/Figures/111-C-30-3.bmp\",\"na:ma:na\",\"Down\",\"40\",\"8\",\"16\",\"7\",\"S\",\"J\",\"128\"
\"\",\"\",\"approach-retreat\",\"132\",\"972300\",\"0.0-132.0\",\"\",\"\",\"1-5\",\"4601\",\"38\",\"0\",\"Training\",\"Stims/Figures/128-J-10-3.bmp\",\"ma:ma:na\",\"Up\",\"40\",\"9\",\"1\",\"7\",\"S\",\"J\",\"129\"
\"\",\"\",\"approach-retreat\",\"133\",\"977986\",\"0.0-133.0\",\"\",\"\",\"1-5\",\"4172\",\"37\",\"1\",\"Training\",\"Stims/Figures/84-C-20-2.bmp\",\"tapata\",\"Left\",\"37\",\"9\",\"2\",\"7\",\"P\",\"J\",\"130\"
\"\",\"\",\"approach-retreat\",\"134\",\"986083\",\"0.0-134.0\",\"\",\"\",\"1-5\",\"6578\",\"40\",\"0\",\"Training\",\"Stims/Figures/102-C-20-4.bmp\",\"mala:na\",\"Up\",\"38\",\"9\",\"3\",\"7\",\"S\",\"J\",\"131\"
\"\",\"\",\"approach-retreat\",\"135\",\"994099\",\"0.0-135.0\",\"\",\"\",\"1-5\",\"6500\",\"38\",\"1\",\"Training\",\"Stims/Figures/139-C-20-2.bmp\",\"takaka\",\"Up\",\"38\",\"9\",\"4\",\"7\",\"P\",\"J\",\"132\"
\"\",\"\",\"approach-retreat\",\"136\",\"1002483\",\"0.0-136.0\",\"\",\"\",\"1-5\",\"6869\",\"40\",\"0\",\"Training\",\"Stims/Figures/111-J-10-3.bmp\",\"mamala\",\"Down\",\"38\",\"9\",\"5\",\"7\",\"S\",\"J\",\"133\"
\"\",\"\",\"approach-retreat\",\"137\",\"1008126\",\"0.0-137.0\",\"\",\"\",\"1-5\",\"4127\",\"38\",\"1\",\"Training\",\"Stims/Figures/27-C-30-1.bmp\",\"papa:ta\",\"Up\",\"38\",\"9\",\"6\",\"7\",\"P\",\"J\",\"134\"
\"\",\"\",\"approach-retreat\",\"138\",\"1015633\",\"0.0-138.0\",\"\",\"\",\"1-5\",\"5992\",\"39\",\"0\",\"Training\",\"Stims/Figures/57-J-0-1.bmp\",\"pa:pa:ka\",\"Right\",\"37\",\"9\",\"7\",\"7\",\"P\",\"J\",\"135\"
\"\",\"\",\"approach-retreat\",\"139\",\"1022565\",\"0.0-139.0\",\"\",\"\",\"1-5\",\"5416\",\"38\",\"0\",\"Training\",\"Stims/Figures/57-C-30-1.bmp\",\"ta:pata\",\"Down\",\"40\",\"9\",\"8\",\"7\",\"P\",\"J\",\"136\"
\"\",\"\",\"approach-retreat\",\"140\",\"1028334\",\"0.0-140.0\",\"\",\"\",\"1-5\",\"4250\",\"39\",\"0\",\"Training\",\"Stims/Figures/74-C-20-4.bmp\",\"namana\",\"Left\",\"37\",\"9\",\"9\",\"7\",\"S\",\"J\",\"137\"
\"\",\"\",\"approach-retreat\",\"141\",\"1034017\",\"0.0-141.0\",\"\",\"\",\"1-5\",\"4167\",\"39\",\"1\",\"Training\",\"Stims/Figures/27-J-0-1.bmp\",\"papata\",\"Left\",\"39\",\"9\",\"10\",\"7\",\"P\",\"J\",\"138\"
\"\",\"\",\"approach-retreat\",\"142\",\"1040037\",\"0.0-142.0\",\"\",\"\",\"1-5\",\"4506\",\"38\",\"1\",\"Training\",\"Stims/Figures/84-J-0-2.bmp\",\"ta:kata\",\"Down\",\"38\",\"9\",\"11\",\"7\",\"P\",\"J\",\"139\"
\"\",\"\",\"approach-retreat\",\"143\",\"1045710\",\"0.0-143.0\",\"\",\"\",\"1-5\",\"4160\",\"39\",\"0\",\"Training\",\"Stims/Figures/111-C-30-3.bmp\",\"na:ma:na\",\"Left\",\"37\",\"9\",\"12\",\"7\",\"S\",\"J\",\"140\"
\"\",\"\",\"approach-retreat\",\"144\",\"1051401\",\"0.0-144.0\",\"\",\"\",\"1-5\",\"4177\",\"38\",\"1\",\"Training\",\"Stims/Figures/139-J-0-2.bmp\",\"ta:ka:ta\",\"Down\",\"38\",\"9\",\"13\",\"7\",\"P\",\"J\",\"141\"
\"\",\"\",\"approach-retreat\",\"145\",\"1058063\",\"0.0-145.0\",\"\",\"\",\"1-5\",\"5146\",\"37\",\"0\",\"Training\",\"Stims/Figures/128-C-30-3.bmp\",\"ma:la:la\",\"Right\",\"39\",\"9\",\"14\",\"7\",\"S\",\"J\",\"142\"
\"\",\"\",\"approach-retreat\",\"146\",\"1064351\",\"0.0-146.0\",\"\",\"\",\"1-5\",\"4774\",\"39\",\"0\",\"Training\",\"Stims/Figures/102-J-10-4.bmp\",\"malana\",\"Right\",\"37\",\"9\",\"15\",\"7\",\"S\",\"J\",\"143\"
\"\",\"\",\"approach-retreat\",\"147\",\"1069921\",\"0.0-147.0\",\"\",\"\",\"1-5\",\"4055\",\"39\",\"0\",\"Training\",\"Stims/Figures/74-J-10-4.bmp\",\"nala:la\",\"Right\",\"37\",\"9\",\"16\",\"7\",\"S\",\"J\",\"144\"
\"11817\",\"\",\"instructions\",\"148\",\"1081738\",\"0.0-148.0\",\"[{\"\"page_index\"\":0,\"\"viewing_time\"\":11815}]\",\"\",\"\",\"\",\"\",\"\",\"\",\"\",\"\",\"\",\"\",\"\",\"\",\"\",\"\",\"\",\"\"
\"\",\"\",\"approach-retreat\",\"149\",\"1091156\",\"0.0-149.0\",\"\",\"\",\"1-5\",\"7907\",\"37\",\"1\",\"Testing\",\"Stims/Figures/139-C-20-2.bmp\",\"takaka\",\"Left\",\"37\",\"1\",\"1\",\"7\",\"P\",\"J\",\"1\"
\"\",\"\",\"approach-retreat\",\"150\",\"1096790\",\"0.0-150.0\",\"\",\"\",\"1-5\",\"4121\",\"39\",\"1\",\"Testing\",\"Stims/Figures/27-J-0-1.bmp\",\"papata\",\"Left\",\"39\",\"1\",\"2\",\"7\",\"P\",\"J\",\"2\"
\"\",\"\",\"approach-retreat\",\"151\",\"1103743\",\"0.0-151.0\",\"\",\"\",\"1-5\",\"5440\",\"37\",\"1\",\"Testing\",\"Stims/Figures/100-J-10-3.bmp\",\"ma:la:na\",\"Right\",\"37\",\"1\",\"3\",\"7\",\"S\",\"J\",\"3\"
\"\",\"\",\"approach-retreat\",\"152\",\"1110010\",\"0.0-152.0\",\"\",\"\",\"1-5\",\"4754\",\"40\",\"0\",\"Testing\",\"Stims/Figures/102-C-20-4.bmp\",\"mala:na\",\"Up\",\"38\",\"1\",\"4\",\"7\",\"S\",\"J\",\"4\"
\"\",\"\",\"approach-retreat\",\"153\",\"1115970\",\"0.0-153.0\",\"\",\"\",\"1-5\",\"4447\",\"39\",\"1\",\"Testing\",\"Stims/Figures/102-J-10-4.bmp\",\"malana\",\"Left\",\"39\",\"1\",\"5\",\"7\",\"S\",\"J\",\"5\"
\"\",\"\",\"approach-retreat\",\"154\",\"1121468\",\"0.0-154.0\",\"\",\"\",\"1-5\",\"3985\",\"39\",\"0\",\"Testing\",\"Stims/Figures/87-C-20-4.bmp\",\"mala:la\",\"Left\",\"37\",\"1\",\"6\",\"7\",\"S\",\"J\",\"6\"
\"\",\"\",\"approach-retreat\",\"155\",\"1131009\",\"0.0-155.0\",\"\",\"\",\"1-5\",\"8031\",\"39\",\"0\",\"Testing\",\"Stims/Figures/57-J-0-1.bmp\",\"pa:pa:ka\",\"Right\",\"37\",\"1\",\"7\",\"7\",\"P\",\"J\",\"7\"
\"\",\"\",\"approach-retreat\",\"156\",\"1139773\",\"0.0-156.0\",\"\",\"\",\"1-5\",\"7251\",\"40\",\"0\",\"Testing\",\"Stims/Figures/128-J-10-3.bmp\",\"ma:ma:na\",\"Down\",\"38\",\"1\",\"8\",\"7\",\"S\",\"J\",\"8\"
\"\",\"\",\"approach-retreat\",\"157\",\"1146439\",\"0.0-157.0\",\"\",\"\",\"1-5\",\"5150\",\"40\",\"1\",\"Testing\",\"Stims/Figures/74-C-20-4.bmp\",\"namana\",\"Down\",\"40\",\"1\",\"9\",\"7\",\"S\",\"J\",\"9\"
\"\",\"\",\"approach-retreat\",\"158\",\"1154769\",\"0.0-158.0\",\"\",\"\",\"1-5\",\"6817\",\"40\",\"1\",\"Testing\",\"Stims/Figures/128-C-30-3.bmp\",\"ma:la:la\",\"Down\",\"40\",\"1\",\"10\",\"7\",\"S\",\"J\",\"10\"
\"\",\"\",\"approach-retreat\",\"159\",\"1161319\",\"0.0-159.0\",\"\",\"\",\"1-5\",\"5040\",\"38\",\"0\",\"Testing\",\"Stims/Figures/71-J-0-1.bmp\",\"pa:ka:ka\",\"Up\",\"40\",\"1\",\"11\",\"7\",\"P\",\"J\",\"11\"
\"\",\"\",\"approach-retreat\",\"160\",\"1167575\",\"0.0-160.0\",\"\",\"\",\"1-5\",\"4743\",\"38\",\"1\",\"Testing\",\"Stims/Figures/118-C-20-2.bmp\",\"takata\",\"Up\",\"38\",\"1\",\"12\",\"7\",\"P\",\"J\",\"12\"
\"\",\"\",\"approach-retreat\",\"161\",\"1173510\",\"0.0-161.0\",\"\",\"\",\"1-5\",\"4423\",\"38\",\"1\",\"Testing\",\"Stims/Figures/111-C-30-3.bmp\",\"na:ma:na\",\"Up\",\"38\",\"1\",\"13\",\"7\",\"S\",\"J\",\"13\"
\"\",\"\",\"approach-retreat\",\"162\",\"1180380\",\"0.0-162.0\",\"\",\"\",\"1-5\",\"5357\",\"38\",\"0\",\"Testing\",\"Stims/Figures/84-C-20-2.bmp\",\"tapata\",\"Down\",\"40\",\"1\",\"14\",\"7\",\"P\",\"J\",\"14\"
\"\",\"\",\"approach-retreat\",\"163\",\"1186457\",\"0.0-163.0\",\"\",\"\",\"1-5\",\"4565\",\"39\",\"1\",\"Testing\",\"Stims/Figures/57-C-30-1.bmp\",\"ta:pata\",\"Right\",\"39\",\"1\",\"15\",\"7\",\"P\",\"J\",\"15\"
\"\",\"\",\"approach-retreat\",\"164\",\"1194233\",\"0.0-164.0\",\"\",\"\",\"1-5\",\"6263\",\"39\",\"0\",\"Testing\",\"Stims/Figures/27-C-30-1.bmp\",\"papa:ta\",\"Left\",\"37\",\"1\",\"16\",\"7\",\"P\",\"J\",\"16\"
\"\",\"\",\"approach-retreat\",\"165\",\"1202481\",\"0.0-165.0\",\"\",\"\",\"1-5\",\"6734\",\"38\",\"0\",\"Testing\",\"Stims/Figures/84-J-0-2.bmp\",\"ta:kata\",\"Up\",\"40\",\"1\",\"17\",\"7\",\"P\",\"J\",\"17\"
\"\",\"\",\"approach-retreat\",\"166\",\"1210611\",\"0.0-166.0\",\"\",\"\",\"1-5\",\"6619\",\"38\",\"0\",\"Testing\",\"Stims/Figures/87-J-10-4.bmp\",\"na:ma:la\",\"Up\",\"40\",\"1\",\"18\",\"7\",\"S\",\"J\",\"18\"
\"\",\"\",\"approach-retreat\",\"167\",\"1218219\",\"0.0-167.0\",\"\",\"\",\"1-5\",\"6087\",\"39\",\"0\",\"Testing\",\"Stims/Figures/111-J-10-3.bmp\",\"mamala\",\"Right\",\"37\",\"1\",\"19\",\"7\",\"S\",\"J\",\"19\"
\"\",\"\",\"approach-retreat\",\"168\",\"1227480\",\"0.0-168.0\",\"\",\"\",\"1-5\",\"7750\",\"38\",\"1\",\"Testing\",\"Stims/Figures/74-J-10-4.bmp\",\"nala:la\",\"Down\",\"38\",\"1\",\"20\",\"7\",\"S\",\"J\",\"20\"
\"\",\"\",\"approach-retreat\",\"169\",\"1233193\",\"0.0-169.0\",\"\",\"\",\"1-5\",\"4202\",\"38\",\"1\",\"Testing\",\"Stims/Figures/118-J-0-2.bmp\",\"pakaka\",\"Down\",\"38\",\"1\",\"21\",\"7\",\"P\",\"J\",\"21\"
\"\",\"\",\"approach-retreat\",\"170\",\"1239446\",\"0.0-170.0\",\"\",\"\",\"1-5\",\"4743\",\"39\",\"0\",\"Testing\",\"Stims/Figures/100-C-30-3.bmp\",\"na:la:la\",\"Left\",\"37\",\"1\",\"22\",\"7\",\"S\",\"J\",\"22\"
\"\",\"\",\"approach-retreat\",\"171\",\"1247792\",\"0.0-171.0\",\"\",\"\",\"1-5\",\"6832\",\"37\",\"1\",\"Testing\",\"Stims/Figures/139-J-0-2.bmp\",\"ta:ka:ta\",\"Right\",\"37\",\"1\",\"23\",\"7\",\"P\",\"J\",\"23\"
\"\",\"\",\"approach-retreat\",\"172\",\"1254619\",\"0.0-172.0\",\"\",\"\",\"1-5\",\"5316\",\"37\",\"0\",\"Testing\",\"Stims/Figures/71-C-30-1.bmp\",\"ta:kaka\",\"Right\",\"39\",\"1\",\"24\",\"7\",\"P\",\"J\",\"24\"
\"\",\"\",\"approach-retreat\",\"173\",\"1265096\",\"0.0-173.0\",\"\",\"\",\"1-5\",\"8963\",\"37\",\"1\",\"Testing\",\"Stims/Figures/71-J-0-1.bmp\",\"pa:ka:ka\",\"Right\",\"37\",\"2\",\"1\",\"7\",\"P\",\"J\",\"25\"
\"\",\"\",\"approach-retreat\",\"174\",\"1271043\",\"0.0-174.0\",\"\",\"\",\"1-5\",\"4434\",\"37\",\"0\",\"Testing\",\"Stims/Figures/27-J-0-1.bmp\",\"papata\",\"Left\",\"39\",\"2\",\"2\",\"7\",\"P\",\"J\",\"26\"
\"\",\"\",\"approach-retreat\",\"175\",\"1277333\",\"0.0-175.0\",\"\",\"\",\"1-5\",\"4783\",\"38\",\"0\",\"Testing\",\"Stims/Figures/87-C-20-4.bmp\",\"mala:la\",\"Down\",\"40\",\"2\",\"3\",\"7\",\"S\",\"J\",\"27\"
\"\",\"\",\"approach-retreat\",\"176\",\"1283568\",\"0.0-176.0\",\"\",\"\",\"1-5\",\"4722\",\"40\",\"0\",\"Testing\",\"Stims/Figures/139-C-20-2.bmp\",\"takaka\",\"Up\",\"38\",\"2\",\"4\",\"7\",\"P\",\"J\",\"28\"
\"\",\"\",\"approach-retreat\",\"177\",\"1289781\",\"0.0-177.0\",\"\",\"\",\"1-5\",\"4701\",\"37\",\"0\",\"Testing\",\"Stims/Figures/27-C-30-1.bmp\",\"papa:ta\",\"Right\",\"39\",\"2\",\"5\",\"7\",\"P\",\"J\",\"29\"
\"\",\"\",\"approach-retreat\",\"178\",\"1298455\",\"0.0-178.0\",\"\",\"\",\"1-5\",\"7164\",\"38\",\"0\",\"Testing\",\"Stims/Figures/139-J-0-2.bmp\",\"ta:ka:ta\",\"Up\",\"40\",\"2\",\"6\",\"7\",\"P\",\"J\",\"30\"
\"\",\"\",\"approach-retreat\",\"179\",\"1304296\",\"0.0-179.0\",\"\",\"\",\"1-5\",\"4326\",\"37\",\"1\",\"Testing\",\"Stims/Figures/74-C-20-4.bmp\",\"namana\",\"Left\",\"37\",\"2\",\"7\",\"7\",\"S\",\"J\",\"31\"
\"\",\"\",\"approach-retreat\",\"180\",\"1310070\",\"0.0-180.0\",\"\",\"\",\"1-5\",\"4261\",\"39\",\"1\",\"Testing\",\"Stims/Figures/57-J-0-1.bmp\",\"pa:pa:ka\",\"Left\",\"39\",\"2\",\"8\",\"7\",\"P\",\"J\",\"32\"
\"\",\"\",\"approach-retreat\",\"181\",\"1316112\",\"0.0-181.0\",\"\",\"\",\"1-5\",\"4526\",\"37\",\"1\",\"Testing\",\"Stims/Figures/102-J-10-4.bmp\",\"malana\",\"Right\",\"37\",\"2\",\"9\",\"7\",\"S\",\"J\",\"33\"
\"\",\"\",\"approach-retreat\",\"182\",\"1322281\",\"0.0-182.0\",\"\",\"\",\"1-5\",\"4656\",\"37\",\"1\",\"Testing\",\"Stims/Figures/111-J-10-3.bmp\",\"mamala\",\"Right\",\"37\",\"2\",\"10\",\"7\",\"S\",\"J\",\"34\"
\"\",\"\",\"approach-retreat\",\"183\",\"1328168\",\"0.0-183.0\",\"\",\"\",\"1-5\",\"4376\",\"40\",\"1\",\"Testing\",\"Stims/Figures/57-C-30-1.bmp\",\"ta:pata\",\"Down\",\"40\",\"2\",\"11\",\"7\",\"P\",\"J\",\"35\"
\"\",\"\",\"approach-retreat\",\"184\",\"1335570\",\"0.0-184.0\",\"\",\"\",\"1-5\",\"5891\",\"38\",\"0\",\"Testing\",\"Stims/Figures/111-C-30-3.bmp\",\"na:ma:na\",\"Down\",\"40\",\"2\",\"12\",\"7\",\"S\",\"J\",\"36\"
\"\",\"\",\"approach-retreat\",\"185\",\"1341270\",\"0.0-185.0\",\"\",\"\",\"1-5\",\"4189\",\"39\",\"1\",\"Testing\",\"Stims/Figures/87-J-10-4.bmp\",\"na:ma:la\",\"Left\",\"39\",\"2\",\"13\",\"7\",\"S\",\"J\",\"37\"
\"\",\"\",\"approach-retreat\",\"186\",\"1346811\",\"0.0-186.0\",\"\",\"\",\"1-5\",\"4030\",\"39\",\"0\",\"Testing\",\"Stims/Figures/100-C-30-3.bmp\",\"na:la:la\",\"Left\",\"37\",\"2\",\"14\",\"7\",\"S\",\"J\",\"38\"
\"\",\"\",\"approach-retreat\",\"187\",\"1352411\",\"0.0-187.0\",\"\",\"\",\"1-5\",\"4089\",\"40\",\"1\",\"Testing\",\"Stims/Figures/74-J-10-4.bmp\",\"nala:la\",\"Up\",\"40\",\"2\",\"15\",\"7\",\"S\",\"J\",\"39\"
\"\",\"\",\"approach-retreat\",\"188\",\"1358400\",\"0.0-188.0\",\"\",\"\",\"1-5\",\"4475\",\"37\",\"0\",\"Testing\",\"Stims/Figures/102-C-20-4.bmp\",\"mala:na\",\"Right\",\"39\",\"2\",\"16\",\"7\",\"S\",\"J\",\"40\"
\"\",\"\",\"approach-retreat\",\"189\",\"1364141\",\"0.0-189.0\",\"\",\"\",\"1-5\",\"4230\",\"38\",\"1\",\"Testing\",\"Stims/Figures/100-J-10-3.bmp\",\"ma:la:na\",\"Down\",\"38\",\"2\",\"17\",\"7\",\"S\",\"J\",\"41\"
\"\",\"\",\"approach-retreat\",\"190\",\"1370064\",\"0.0-190.0\",\"\",\"\",\"1-5\",\"4408\",\"40\",\"0\",\"Testing\",\"Stims/Figures/71-C-30-1.bmp\",\"ta:kaka\",\"Up\",\"38\",\"2\",\"18\",\"7\",\"P\",\"J\",\"42\"
\"\",\"\",\"approach-retreat\",\"191\",\"1376667\",\"0.0-191.0\",\"\",\"\",\"1-5\",\"5092\",\"40\",\"1\",\"Testing\",\"Stims/Figures/84-C-20-2.bmp\",\"tapata\",\"Down\",\"40\",\"2\",\"19\",\"7\",\"P\",\"J\",\"43\"
\"\",\"\",\"approach-retreat\",\"192\",\"1382644\",\"0.0-192.0\",\"\",\"\",\"1-5\",\"4464\",\"38\",\"0\",\"Testing\",\"Stims/Figures/128-J-10-3.bmp\",\"ma:ma:na\",\"Up\",\"40\",\"2\",\"20\",\"7\",\"S\",\"J\",\"44\"
\"\",\"\",\"approach-retreat\",\"193\",\"1390237\",\"0.0-193.0\",\"\",\"\",\"1-5\",\"6082\",\"37\",\"0\",\"Testing\",\"Stims/Figures/128-C-30-3.bmp\",\"ma:la:la\",\"Right\",\"39\",\"2\",\"21\",\"7\",\"S\",\"J\",\"45\"
\"\",\"\",\"approach-retreat\",\"194\",\"1397891\",\"0.0-194.0\",\"\",\"\",\"1-5\",\"6144\",\"40\",\"1\",\"Testing\",\"Stims/Figures/84-J-0-2.bmp\",\"ta:kata\",\"Up\",\"40\",\"2\",\"22\",\"7\",\"P\",\"J\",\"46\"
\"\",\"\",\"approach-retreat\",\"195\",\"1404104\",\"0.0-195.0\",\"\",\"\",\"1-5\",\"4703\",\"39\",\"0\",\"Testing\",\"Stims/Figures/118-C-20-2.bmp\",\"takata\",\"Left\",\"37\",\"2\",\"23\",\"7\",\"P\",\"J\",\"47\"
\"\",\"\",\"approach-retreat\",\"196\",\"1410417\",\"0.0-196.0\",\"\",\"\",\"1-5\",\"4803\",\"40\",\"0\",\"Testing\",\"Stims/Figures/118-J-0-2.bmp\",\"pakaka\",\"Down\",\"38\",\"2\",\"24\",\"7\",\"P\",\"J\",\"48\"
\"\",\"\",\"approach-retreat\",\"197\",\"1415921\",\"0.0-197.0\",\"\",\"\",\"1-5\",\"3993\",\"38\",\"0\",\"Testing\",\"Stims/Figures/71-C-30-1.bmp\",\"ta:kaka\",\"Down\",\"40\",\"3\",\"1\",\"7\",\"P\",\"J\",\"49\"
\"\",\"\",\"approach-retreat\",\"198\",\"1421579\",\"0.0-198.0\",\"\",\"\",\"1-5\",\"4146\",\"40\",\"0\",\"Testing\",\"Stims/Figures/139-J-0-2.bmp\",\"ta:ka:ta\",\"Down\",\"38\",\"3\",\"2\",\"7\",\"P\",\"J\",\"50\"
\"\",\"\",\"approach-retreat\",\"199\",\"1429388\",\"0.0-199.0\",\"\",\"\",\"1-5\",\"6296\",\"38\",\"0\",\"Testing\",\"Stims/Figures/71-J-0-1.bmp\",\"pa:ka:ka\",\"Up\",\"40\",\"3\",\"3\",\"7\",\"P\",\"J\",\"51\"
\"\",\"\",\"approach-retreat\",\"200\",\"1435078\",\"0.0-200.0\",\"\",\"\",\"1-5\",\"4176\",\"39\",\"1\",\"Testing\",\"Stims/Figures/139-C-20-2.bmp\",\"takaka\",\"Right\",\"39\",\"3\",\"4\",\"7\",\"P\",\"J\",\"52\"
\"\",\"\",\"approach-retreat\",\"201\",\"1441569\",\"0.0-201.0\",\"\",\"\",\"1-5\",\"4979\",\"39\",\"1\",\"Testing\",\"Stims/Figures/87-J-10-4.bmp\",\"na:ma:la\",\"Left\",\"39\",\"3\",\"5\",\"7\",\"S\",\"J\",\"53\"
\"\",\"\",\"approach-retreat\",\"202\",\"1449321\",\"0.0-202.0\",\"\",\"\",\"1-5\",\"6239\",\"40\",\"1\",\"Testing\",\"Stims/Figures/128-J-10-3.bmp\",\"ma:ma:na\",\"Up\",\"40\",\"3\",\"6\",\"7\",\"S\",\"J\",\"54\"
\"\",\"\",\"approach-retreat\",\"203\",\"1455374\",\"0.0-203.0\",\"\",\"\",\"1-5\",\"4542\",\"38\",\"1\",\"Testing\",\"Stims/Figures/111-C-30-3.bmp\",\"na:ma:na\",\"Up\",\"38\",\"3\",\"7\",\"7\",\"S\",\"J\",\"55\"
\"\",\"\",\"approach-retreat\",\"204\",\"1460955\",\"0.0-204.0\",\"\",\"\",\"1-5\",\"4069\",\"39\",\"1\",\"Testing\",\"Stims/Figures/128-C-30-3.bmp\",\"ma:la:la\",\"Right\",\"39\",\"3\",\"8\",\"7\",\"S\",\"J\",\"56\"
\"\",\"\",\"approach-retreat\",\"205\",\"1470201\",\"0.0-205.0\",\"\",\"\",\"1-5\",\"7735\",\"40\",\"1\",\"Testing\",\"Stims/Figures/100-J-10-3.bmp\",\"ma:la:na\",\"Up\",\"40\",\"3\",\"9\",\"7\",\"S\",\"J\",\"57\"
\"\",\"\",\"approach-retreat\",\"206\",\"1479962\",\"0.0-206.0\",\"\",\"\",\"1-5\",\"8251\",\"38\",\"1\",\"Testing\",\"Stims/Figures/74-J-10-4.bmp\",\"nala:la\",\"Down\",\"38\",\"3\",\"10\",\"7\",\"S\",\"J\",\"58\"
\"\",\"\",\"approach-retreat\",\"207\",\"1486762\",\"0.0-207.0\",\"\",\"\",\"1-5\",\"5288\",\"39\",\"0\",\"Testing\",\"Stims/Figures/74-C-20-4.bmp\",\"namana\",\"Left\",\"37\",\"3\",\"11\",\"7\",\"S\",\"J\",\"59\"
\"\",\"\",\"approach-retreat\",\"208\",\"1493032\",\"0.0-208.0\",\"\",\"\",\"1-5\",\"4756\",\"38\",\"1\",\"Testing\",\"Stims/Figures/111-J-10-3.bmp\",\"mamala\",\"Down\",\"38\",\"3\",\"12\",\"7\",\"S\",\"J\",\"60\"
\"\",\"\",\"approach-retreat\",\"209\",\"1498750\",\"0.0-209.0\",\"\",\"\",\"1-5\",\"4205\",\"38\",\"0\",\"Testing\",\"Stims/Figures/100-C-30-3.bmp\",\"na:la:la\",\"Down\",\"40\",\"3\",\"13\",\"7\",\"S\",\"J\",\"61\"
\"\",\"\",\"approach-retreat\",\"210\",\"1505196\",\"0.0-210.0\",\"\",\"\",\"1-5\",\"4930\",\"40\",\"0\",\"Testing\",\"Stims/Figures/27-C-30-1.bmp\",\"papa:ta\",\"Up\",\"38\",\"3\",\"14\",\"7\",\"P\",\"J\",\"62\"
\"\",\"\",\"approach-retreat\",\"211\",\"1514096\",\"0.0-211.0\",\"\",\"\",\"1-5\",\"7388\",\"37\",\"0\",\"Testing\",\"Stims/Figures/84-J-0-2.bmp\",\"ta:kata\",\"Left\",\"39\",\"3\",\"15\",\"7\",\"P\",\"J\",\"63\"
\"\",\"\",\"approach-retreat\",\"212\",\"1520318\",\"0.0-212.0\",\"\",\"\",\"1-5\",\"4710\",\"37\",\"0\",\"Testing\",\"Stims/Figures/102-C-20-4.bmp\",\"mala:na\",\"Right\",\"39\",\"3\",\"16\",\"7\",\"S\",\"J\",\"64\"
\"\",\"\",\"approach-retreat\",\"213\",\"1526579\",\"0.0-213.0\",\"\",\"\",\"1-5\",\"4748\",\"37\",\"1\",\"Testing\",\"Stims/Figures/102-J-10-4.bmp\",\"malana\",\"Right\",\"37\",\"3\",\"17\",\"7\",\"S\",\"J\",\"65\"
\"\",\"\",\"approach-retreat\",\"214\",\"1533386\",\"0.0-214.0\",\"\",\"\",\"1-5\",\"5297\",\"40\",\"0\",\"Testing\",\"Stims/Figures/87-C-20-4.bmp\",\"mala:la\",\"Up\",\"38\",\"3\",\"18\",\"7\",\"S\",\"J\",\"66\"
\"\",\"\",\"approach-retreat\",\"215\",\"1540692\",\"0.0-215.0\",\"\",\"\",\"1-5\",\"5795\",\"37\",\"0\",\"Testing\",\"Stims/Figures/27-J-0-1.bmp\",\"papata\",\"Left\",\"39\",\"3\",\"19\",\"7\",\"P\",\"J\",\"67\"
\"\",\"\",\"approach-retreat\",\"216\",\"1547252\",\"0.0-216.0\",\"\",\"\",\"1-5\",\"5045\",\"37\",\"1\",\"Testing\",\"Stims/Figures/84-C-20-2.bmp\",\"tapata\",\"Left\",\"37\",\"3\",\"20\",\"7\",\"P\",\"J\",\"68\"
\"\",\"\",\"approach-retreat\",\"217\",\"1553989\",\"0.0-217.0\",\"\",\"\",\"1-5\",\"5225\",\"37\",\"1\",\"Testing\",\"Stims/Figures/118-J-0-2.bmp\",\"pakaka\",\"Right\",\"37\",\"3\",\"21\",\"7\",\"P\",\"J\",\"69\"
\"\",\"\",\"approach-retreat\",\"218\",\"1561735\",\"0.0-218.0\",\"\",\"\",\"1-5\",\"6232\",\"39\",\"0\",\"Testing\",\"Stims/Figures/57-J-0-1.bmp\",\"pa:pa:ka\",\"Right\",\"37\",\"3\",\"22\",\"7\",\"P\",\"J\",\"70\"
\"\",\"\",\"approach-retreat\",\"219\",\"1568424\",\"0.0-219.0\",\"\",\"\",\"1-5\",\"5178\",\"38\",\"0\",\"Testing\",\"Stims/Figures/118-C-20-2.bmp\",\"takata\",\"Down\",\"40\",\"3\",\"23\",\"7\",\"P\",\"J\",\"71\"
\"\",\"\",\"approach-retreat\",\"220\",\"1579220\",\"0.0-220.0\",\"\",\"\",\"1-5\",\"9284\",\"37\",\"1\",\"Testing\",\"Stims/Figures/57-C-30-1.bmp\",\"ta:pata\",\"Left\",\"37\",\"3\",\"24\",\"7\",\"P\",\"J\",\"72\"
\"\",\"\",\"approach-retreat\",\"221\",\"1585511\",\"0.0-221.0\",\"\",\"\",\"1-5\",\"4778\",\"40\",\"1\",\"Testing\",\"Stims/Figures/100-J-10-3.bmp\",\"ma:la:na\",\"Up\",\"40\",\"4\",\"1\",\"7\",\"S\",\"J\",\"73\"
\"\",\"\",\"approach-retreat\",\"222\",\"1591210\",\"0.0-222.0\",\"\",\"\",\"1-5\",\"4185\",\"37\",\"0\",\"Testing\",\"Stims/Figures/87-C-20-4.bmp\",\"mala:la\",\"Right\",\"39\",\"4\",\"2\",\"7\",\"S\",\"J\",\"74\"
\"\",\"\",\"approach-retreat\",\"223\",\"1597091\",\"0.0-223.0\",\"\",\"\",\"1-5\",\"4369\",\"37\",\"1\",\"Testing\",\"Stims/Figures/111-J-10-3.bmp\",\"mamala\",\"Right\",\"37\",\"4\",\"3\",\"7\",\"S\",\"J\",\"75\"
\"\",\"\",\"approach-retreat\",\"224\",\"1606499\",\"0.0-224.0\",\"\",\"\",\"1-5\",\"7896\",\"39\",\"1\",\"Testing\",\"Stims/Figures/102-J-10-4.bmp\",\"malana\",\"Left\",\"39\",\"4\",\"4\",\"7\",\"S\",\"J\",\"76\"
\"\",\"\",\"approach-retreat\",\"225\",\"1612245\",\"0.0-225.0\",\"\",\"\",\"1-5\",\"4230\",\"40\",\"0\",\"Testing\",\"Stims/Figures/27-J-0-1.bmp\",\"papata\",\"Down\",\"38\",\"4\",\"5\",\"7\",\"P\",\"J\",\"77\"
\"\",\"\",\"approach-retreat\",\"226\",\"1621639\",\"0.0-226.0\",\"\",\"\",\"1-5\",\"7880\",\"39\",\"1\",\"Testing\",\"Stims/Figures/71-J-0-1.bmp\",\"pa:ka:ka\",\"Left\",\"39\",\"4\",\"6\",\"7\",\"P\",\"J\",\"78\"
\"\",\"\",\"approach-retreat\",\"227\",\"1627829\",\"0.0-227.0\",\"\",\"\",\"1-5\",\"4679\",\"38\",\"1\",\"Testing\",\"Stims/Figures/87-J-10-4.bmp\",\"na:ma:la\",\"Down\",\"38\",\"4\",\"7\",\"7\",\"S\",\"J\",\"79\"
\"\",\"\",\"approach-retreat\",\"228\",\"1633977\",\"0.0-228.0\",\"\",\"\",\"1-5\",\"4636\",\"40\",\"0\",\"Testing\",\"Stims/Figures/139-C-20-2.bmp\",\"takaka\",\"Up\",\"38\",\"4\",\"8\",\"7\",\"P\",\"J\",\"80\"
\"\",\"\",\"approach-retreat\",\"229\",\"1640208\",\"0.0-229.0\",\"\",\"\",\"1-5\",\"4719\",\"40\",\"0\",\"Testing\",\"Stims/Figures/128-C-30-3.bmp\",\"ma:la:la\",\"Up\",\"38\",\"4\",\"9\",\"7\",\"S\",\"J\",\"81\"
\"\",\"\",\"approach-retreat\",\"230\",\"1646429\",\"0.0-230.0\",\"\",\"\",\"1-5\",\"4710\",\"39\",\"1\",\"Testing\",\"Stims/Figures/57-C-30-1.bmp\",\"ta:pata\",\"Right\",\"39\",\"4\",\"10\",\"7\",\"P\",\"J\",\"82\"
\"\",\"\",\"approach-retreat\",\"231\",\"1653810\",\"0.0-231.0\",\"\",\"\",\"1-5\",\"5870\",\"37\",\"0\",\"Testing\",\"Stims/Figures/128-J-10-3.bmp\",\"ma:ma:na\",\"Left\",\"39\",\"4\",\"11\",\"7\",\"S\",\"J\",\"83\"
\"\",\"\",\"approach-retreat\",\"232\",\"1659825\",\"0.0-232.0\",\"\",\"\",\"1-5\",\"4502\",\"38\",\"0\",\"Testing\",\"Stims/Figures/27-C-30-1.bmp\",\"papa:ta\",\"Down\",\"40\",\"4\",\"12\",\"7\",\"P\",\"J\",\"84\"
\"\",\"\",\"approach-retreat\",\"233\",\"1665485\",\"0.0-233.0\",\"\",\"\",\"1-5\",\"4148\",\"40\",\"0\",\"Testing\",\"Stims/Figures/100-C-30-3.bmp\",\"na:la:la\",\"Up\",\"38\",\"4\",\"13\",\"7\",\"S\",\"J\",\"85\"
\"\",\"\",\"approach-retreat\",\"234\",\"1671572\",\"0.0-234.0\",\"\",\"\",\"1-5\",\"4577\",\"37\",\"0\",\"Testing\",\"Stims/Figures/118-C-20-2.bmp\",\"takata\",\"Right\",\"39\",\"4\",\"14\",\"7\",\"P\",\"J\",\"86\"
\"\",\"\",\"approach-retreat\",\"235\",\"1677217\",\"0.0-235.0\",\"\",\"\",\"1-5\",\"4132\",\"39\",\"1\",\"Testing\",\"Stims/Figures/84-C-20-2.bmp\",\"tapata\",\"Right\",\"39\",\"4\",\"15\",\"7\",\"P\",\"J\",\"87\"
\"\",\"\",\"approach-retreat\",\"236\",\"1683305\",\"0.0-236.0\",\"\",\"\",\"1-5\",\"4577\",\"38\",\"0\",\"Testing\",\"Stims/Figures/74-C-20-4.bmp\",\"namana\",\"Down\",\"40\",\"4\",\"16\",\"7\",\"S\",\"J\",\"88\"
\"\",\"\",\"approach-retreat\",\"237\",\"1690275\",\"0.0-237.0\",\"\",\"\",\"1-5\",\"5454\",\"39\",\"0\",\"Testing\",\"Stims/Figures/139-J-0-2.bmp\",\"ta:ka:ta\",\"Right\",\"37\",\"4\",\"17\",\"7\",\"P\",\"J\",\"89\"
\"\",\"\",\"approach-retreat\",\"238\",\"1722594\",\"0.0-238.0\",\"\",\"\",\"1-5\",\"30809\",\"38\",\"0\",\"Testing\",\"Stims/Figures/84-J-0-2.bmp\",\"ta:kata\",\"Up\",\"40\",\"4\",\"18\",\"7\",\"P\",\"J\",\"90\"
\"\",\"\",\"approach-retreat\",\"239\",\"1728710\",\"0.0-239.0\",\"\",\"\",\"1-5\",\"4602\",\"40\",\"0\",\"Testing\",\"Stims/Figures/118-J-0-2.bmp\",\"pakaka\",\"Down\",\"38\",\"4\",\"19\",\"7\",\"P\",\"J\",\"91\"
\"\",\"\",\"approach-retreat\",\"240\",\"1742244\",\"0.0-240.0\",\"\",\"\",\"1-5\",\"12025\",\"38\",\"0\",\"Testing\",\"Stims/Figures/111-C-30-3.bmp\",\"na:ma:na\",\"Down\",\"40\",\"4\",\"20\",\"7\",\"S\",\"J\",\"92\"
\"\",\"\",\"approach-retreat\",\"241\",\"1751361\",\"0.0-241.0\",\"\",\"\",\"1-5\",\"7601\",\"37\",\"0\",\"Testing\",\"Stims/Figures/57-J-0-1.bmp\",\"pa:pa:ka\",\"Left\",\"39\",\"4\",\"21\",\"7\",\"P\",\"J\",\"93\"
\"\",\"\",\"approach-retreat\",\"242\",\"1757168\",\"0.0-242.0\",\"\",\"\",\"1-5\",\"4295\",\"39\",\"0\",\"Testing\",\"Stims/Figures/71-C-30-1.bmp\",\"ta:kaka\",\"Left\",\"37\",\"4\",\"22\",\"7\",\"P\",\"J\",\"94\"
\"\",\"\",\"approach-retreat\",\"243\",\"1764210\",\"0.0-243.0\",\"\",\"\",\"1-5\",\"5531\",\"40\",\"1\",\"Testing\",\"Stims/Figures/74-J-10-4.bmp\",\"nala:la\",\"Up\",\"40\",\"4\",\"23\",\"7\",\"S\",\"J\",\"95\"
\"\",\"\",\"approach-retreat\",\"244\",\"1770020\",\"0.0-244.0\",\"\",\"\",\"1-5\",\"4296\",\"39\",\"0\",\"Testing\",\"Stims/Figures/102-C-20-4.bmp\",\"mala:na\",\"Left\",\"37\",\"4\",\"24\",\"7\",\"S\",\"J\",\"96\"
\"66659\",\"\",\"survey-text\",\"245\",\"1836685\",\"0.0-245.0\",\"\",\"{\"\"Q0\"\":\"\"PS160036\"\"}\",\"\",\"\",\"\",\"\",\"\",\"\",\"\",\"\",\"\",\"\",\"\",\"\",\"\",\"\",\"\"
