"rt","key_press","trial_type","trial_index","time_elapsed","internal_node_id","view_history","responses","Id","Rt","ResKeyCode","ResCorr","TrialType2","Image","Label","Location","CorrectResponse","Block","BlockTrial","Condition","LabelType","Subcondition","trialNum"
"19941","32","text","0","19952","0.0-0.0-0.0","","","","","","","","","","","","","","","","",""
"65769","","instructions","1","85722","0.0-1.0","[{""page_index"":0,""viewing_time"":65769}]","","","","","","","","","","","","","","","",""
"58661","","survey-multi-choice","2","144414","0.0-2.0","","{""Q0"":""Da"",""Q1"":""Da"",""Q2"":""Da"",""Q3"":""Da"",""Q4"":""Da"",""Q5"":""Da""}","","","","","","","","","","","","","","",""
"","","bio","3","153340","0.0-3.0","","{""age"":""19"",""gender"":""f"",""specify"":""""}","","","","","","","","","","","","","","",""
"","","approach-retreat","4","169619","0.0-4.0","","","3-2","14769","39","1","Training","Stims/Figures/74-J-10-4.bmp","fashava","Right","39","1","1","3A","C1","C","1"
"","","approach-retreat","5","178699","0.0-5.0","","","3-2","7573","38","0","Training","Stims/Figures/111-C-30-3.bmp","zasa:ha","Up","40","1","2","3A","C2","C","2"
"","","approach-retreat","6","194405","0.0-6.0","","","3-2","14197","38","1","Training","Stims/Figures/128-J-10-3.bmp","fashava","Up","38","1","3","3A","C1","C","3"
"","","approach-retreat","7","204036","0.0-7.0","","","3-2","8125","38","1","Training","Stims/Figures/139-C-20-2.bmp","zasa:ha","Down","38","1","4","3A","C2","C","4"
"","","approach-retreat","8","212013","0.0-8.0","","","3-2","6470","39","1","Training","Stims/Figures/118-J-0-2.bmp","fashava","Right","39","1","5","3A","C1","C","5"
"","","approach-retreat","9","219318","0.0-9.0","","","3-2","5797","37","0","Training","Stims/Figures/74-C-20-4.bmp","zasa:ha","Left","39","1","6","3A","C2","C","6"
"","","approach-retreat","10","225550","0.0-10.0","","","3-2","4727","38","0","Training","Stims/Figures/111-J-10-3.bmp","fashava","Down","40","1","7","3A","C1","C","7"
"","","approach-retreat","11","236312","0.0-11.0","","","3-2","9254","40","1","Training","Stims/Figures/57-C-30-1.bmp","zasa:ha","Up","40","1","8","3A","C2","C","8"
"","","approach-retreat","12","243384","0.0-12.0","","","3-2","5563","37","0","Training","Stims/Figures/118-C-20-2.bmp","zasa:ha","Left","39","1","9","3A","C2","C","9"
"","","approach-retreat","13","251129","0.0-13.0","","","3-2","6238","38","0","Training","Stims/Figures/128-C-30-3.bmp","zasa:ha","Up","40","1","10","3A","C2","C","10"
"","","approach-retreat","14","261130","0.0-14.0","","","3-2","8494","37","1","Training","Stims/Figures/87-J-10-4.bmp","fashava","Left","37","1","11","3A","C1","C","11"
"","","approach-retreat","15","268649","0.0-15.0","","","3-2","6011","40","1","Training","Stims/Figures/139-J-0-2.bmp","fashava","Down","40","1","12","3A","C1","C","12"
"","","approach-retreat","16","275169","0.0-16.0","","","3-2","5014","38","0","Training","Stims/Figures/93-J-0-1.bmp","fashava","Down","40","1","13","3A","C1","C","13"
"","","approach-retreat","17","280985","0.0-17.0","","","3-2","4306","39","0","Training","Stims/Figures/87-C-20-4.bmp","zasa:ha","Right","37","1","14","3A","C2","C","14"
"","","approach-retreat","18","286954","0.0-18.0","","","3-2","4462","37","1","Training","Stims/Figures/93-C-30-1.bmp","zasa:ha","Right","37","1","15","3A","C2","C","15"
"","","approach-retreat","19","296634","0.0-19.0","","","3-2","8172","37","1","Training","Stims/Figures/57-J-0-1.bmp","fashava","Left","37","1","16","3A","C1","C","16"
"","","approach-retreat","20","306907","0.0-20.0","","","3-2","8766","39","1","Training","Stims/Figures/87-J-10-4.bmp","fashava","Right","39","2","1","3A","C1","C","17"
"","","approach-retreat","21","319077","0.0-21.0","","","3-2","10662","39","0","Training","Stims/Figures/118-C-20-2.bmp","zasa:ha","Right","37","2","2","3A","C2","C","18"
"","","approach-retreat","22","325725","0.0-22.0","","","3-2","5141","37","1","Training","Stims/Figures/111-C-30-3.bmp","zasa:ha","Right","37","2","3","3A","C2","C","19"
"","","approach-retreat","23","331822","0.0-23.0","","","3-2","4590","37","1","Training","Stims/Figures/118-J-0-2.bmp","fashava","Left","37","2","4","3A","C1","C","20"
"","","approach-retreat","24","340654","0.0-24.0","","","3-2","7324","38","1","Training","Stims/Figures/139-J-0-2.bmp","fashava","Up","38","2","5","3A","C1","C","21"
"","","approach-retreat","25","348312","0.0-25.0","","","3-2","6151","38","1","Training","Stims/Figures/57-C-30-1.bmp","zasa:ha","Down","38","2","6","3A","C2","C","22"
"","","approach-retreat","26","355302","0.0-26.0","","","3-2","5485","37","0","Training","Stims/Figures/87-C-20-4.bmp","zasa:ha","Left","39","2","7","3A","C2","C","23"
"","","approach-retreat","27","361272","0.0-27.0","","","3-2","4462","39","0","Training","Stims/Figures/93-C-30-1.bmp","zasa:ha","Right","37","2","8","3A","C2","C","24"
"","","approach-retreat","28","372169","0.0-28.0","","","3-2","9389","40","1","Training","Stims/Figures/139-C-20-2.bmp","zasa:ha","Up","40","2","9","3A","C2","C","25"
"","","approach-retreat","29","379159","0.0-29.0","","","3-2","5484","40","0","Training","Stims/Figures/74-J-10-4.bmp","fashava","Up","38","2","10","3A","C1","C","26"
"","","approach-retreat","30","385602","0.0-30.0","","","3-2","4936","39","0","Training","Stims/Figures/57-J-0-1.bmp","fashava","Left","37","2","11","3A","C1","C","27"
"","","approach-retreat","31","391560","0.0-31.0","","","3-2","4452","38","0","Training","Stims/Figures/93-J-0-1.bmp","fashava","Down","40","2","12","3A","C1","C","28"
"","","approach-retreat","32","397666","0.0-32.0","","","3-2","4598","40","1","Training","Stims/Figures/128-C-30-3.bmp","zasa:ha","Up","40","2","13","3A","C2","C","29"
"","","approach-retreat","33","404681","0.0-33.0","","","3-2","5509","39","0","Training","Stims/Figures/111-J-10-3.bmp","fashava","Left","37","2","14","3A","C1","C","30"
"","","approach-retreat","34","413722","0.0-34.0","","","3-2","7533","38","1","Training","Stims/Figures/74-C-20-4.bmp","zasa:ha","Down","38","2","15","3A","C2","C","31"
"","","approach-retreat","35","432084","0.0-35.0","","","3-2","16854","38","0","Training","Stims/Figures/128-J-10-3.bmp","fashava","Down","40","2","16","3A","C1","C","32"
"","","approach-retreat","36","445749","0.0-36.0","","","3-2","12159","39","1","Training","Stims/Figures/118-C-20-2.bmp","zasa:ha","Left","39","3","1","3A","C2","C","33"
"","","approach-retreat","37","452582","0.0-37.0","","","3-2","5325","38","1","Training","Stims/Figures/139-J-0-2.bmp","fashava","Up","38","3","2","3A","C1","C","34"
"","","approach-retreat","38","460231","0.0-38.0","","","3-2","6142","40","1","Training","Stims/Figures/111-C-30-3.bmp","zasa:ha","Up","40","3","3","3A","C2","C","35"
"","","approach-retreat","39","465942","0.0-39.0","","","3-2","4203","38","1","Training","Stims/Figures/118-J-0-2.bmp","fashava","Up","38","3","4","3A","C1","C","36"
"","","approach-retreat","40","480680","0.0-40.0","","","3-2","13231","40","0","Training","Stims/Figures/93-J-0-1.bmp","fashava","Up","38","3","5","3A","C1","C","37"
"","","approach-retreat","41","493592","0.0-41.0","","","3-2","11406","40","1","Training","Stims/Figures/57-J-0-1.bmp","fashava","Down","40","3","6","3A","C1","C","38"
"","","approach-retreat","42","505738","0.0-42.0","","","3-2","10638","37","0","Training","Stims/Figures/87-C-20-4.bmp","zasa:ha","Left","39","3","7","3A","C2","C","39"
"","","approach-retreat","43","512056","0.0-43.0","","","3-2","4811","37","0","Training","Stims/Figures/57-C-30-1.bmp","zasa:ha","Left","39","3","8","3A","C2","C","40"
"","","approach-retreat","44","518162","0.0-44.0","","","3-2","4599","39","1","Training","Stims/Figures/74-J-10-4.bmp","fashava","Right","39","3","9","3A","C1","C","41"
"","","approach-retreat","45","524562","0.0-45.0","","","3-2","4894","37","0","Training","Stims/Figures/111-J-10-3.bmp","fashava","Right","39","3","10","3A","C1","C","42"
"","","approach-retreat","46","530754","0.0-46.0","","","3-2","4686","38","0","Training","Stims/Figures/87-J-10-4.bmp","fashava","Down","40","3","11","3A","C1","C","43"
"","","approach-retreat","47","536450","0.0-47.0","","","3-2","4188","38","1","Training","Stims/Figures/93-C-30-1.bmp","zasa:ha","Down","38","3","12","3A","C2","C","44"
"","","approach-retreat","48","542835","0.0-48.0","","","3-2","4878","37","1","Training","Stims/Figures/128-C-30-3.bmp","zasa:ha","Right","37","3","13","3A","C2","C","45"
"","","approach-retreat","49","553692","0.0-49.0","","","3-2","9349","39","0","Training","Stims/Figures/74-C-20-4.bmp","zasa:ha","Right","37","3","14","3A","C2","C","46"
"","","approach-retreat","50","559636","0.0-50.0","","","3-2","4437","40","1","Training","Stims/Figures/128-J-10-3.bmp","fashava","Down","40","3","15","3A","C1","C","47"
"","","approach-retreat","51","567390","0.0-51.0","","","3-2","6246","39","1","Training","Stims/Figures/139-C-20-2.bmp","zasa:ha","Left","39","3","16","3A","C2","C","48"
"","","approach-retreat","52","574037","0.0-52.0","","","3-2","5141","37","1","Training","Stims/Figures/128-C-30-3.bmp","zasa:ha","Right","37","4","1","3A","C2","C","49"
"","","approach-retreat","53","581294","0.0-53.0","","","3-2","5751","39","1","Training","Stims/Figures/74-C-20-4.bmp","zasa:ha","Left","39","4","2","3A","C2","C","50"
"","","approach-retreat","54","589038","0.0-54.0","","","3-2","6236","40","1","Training","Stims/Figures/87-C-20-4.bmp","zasa:ha","Up","40","4","3","3A","C2","C","51"
"","","approach-retreat","55","595992","0.0-55.0","","","3-2","5446","38","1","Training","Stims/Figures/93-C-30-1.bmp","zasa:ha","Down","38","4","4","3A","C2","C","52"
"","","approach-retreat","56","604351","0.0-56.0","","","3-2","6851","40","1","Training","Stims/Figures/111-C-30-3.bmp","zasa:ha","Up","40","4","5","3A","C2","C","53"
"","","approach-retreat","57","611041","0.0-57.0","","","3-2","5183","38","0","Training","Stims/Figures/111-J-10-3.bmp","fashava","Down","40","4","6","3A","C1","C","54"
"","","approach-retreat","58","617663","0.0-58.0","","","3-2","5115","37","0","Training","Stims/Figures/139-C-20-2.bmp","zasa:ha","Left","39","4","7","3A","C2","C","55"
"","","approach-retreat","59","624009","0.0-59.0","","","3-2","4838","37","0","Training","Stims/Figures/128-J-10-3.bmp","fashava","Right","39","4","8","3A","C1","C","56"
"","","approach-retreat","60","630345","0.0-60.0","","","3-2","4829","37","1","Training","Stims/Figures/118-C-20-2.bmp","zasa:ha","Right","37","4","9","3A","C2","C","57"
"","","approach-retreat","61","643825","0.0-61.0","","","3-2","11973","40","0","Training","Stims/Figures/74-J-10-4.bmp","fashava","Up","38","4","10","3A","C1","C","58"
"","","approach-retreat","62","654105","0.0-62.0","","","3-2","8773","38","1","Training","Stims/Figures/57-C-30-1.bmp","zasa:ha","Down","38","4","11","3A","C2","C","59"
"","","approach-retreat","63","666251","0.0-63.0","","","3-2","10640","40","1","Training","Stims/Figures/93-J-0-1.bmp","fashava","Down","40","4","12","3A","C1","C","60"
"","","approach-retreat","64","672547","0.0-64.0","","","3-2","4789","38","1","Training","Stims/Figures/118-J-0-2.bmp","fashava","Up","38","4","13","3A","C1","C","61"
"","","approach-retreat","65","678491","0.0-65.0","","","3-2","4436","37","1","Training","Stims/Figures/139-J-0-2.bmp","fashava","Left","37","4","14","3A","C1","C","62"
"","","approach-retreat","66","685884","0.0-66.0","","","3-2","5886","37","1","Training","Stims/Figures/57-J-0-1.bmp","fashava","Left","37","4","15","3A","C1","C","63"
"","","approach-retreat","67","691933","0.0-67.0","","","3-2","4542","37","0","Training","Stims/Figures/87-J-10-4.bmp","fashava","Right","39","4","16","3A","C1","C","64"
"","","approach-retreat","68","698718","0.0-68.0","","","3-2","5278","38","1","Training","Stims/Figures/118-C-20-2.bmp","zasa:ha","Down","38","5","1","3A","C2","C","65"
"","","approach-retreat","69","704494","0.0-69.0","","","3-2","4270","38","0","Training","Stims/Figures/74-J-10-4.bmp","fashava","Down","40","5","2","3A","C1","C","66"
"","","approach-retreat","70","710342","0.0-70.0","","","3-2","4340","37","1","Training","Stims/Figures/139-C-20-2.bmp","zasa:ha","Right","37","5","3","3A","C2","C","67"
"","","approach-retreat","71","717631","0.0-71.0","","","3-2","5783","39","1","Training","Stims/Figures/111-C-30-3.bmp","zasa:ha","Left","39","5","4","3A","C2","C","68"
"","","approach-retreat","72","723447","0.0-72.0","","","3-2","4308","40","1","Training","Stims/Figures/87-C-20-4.bmp","zasa:ha","Up","40","5","5","3A","C2","C","69"
"","","approach-retreat","73","730240","0.0-73.0","","","3-2","5286","39","1","Training","Stims/Figures/118-J-0-2.bmp","fashava","Right","39","5","6","3A","C1","C","70"
"","","approach-retreat","74","737272","0.0-74.0","","","3-2","5524","37","1","Training","Stims/Figures/57-J-0-1.bmp","fashava","Left","37","5","7","3A","C1","C","71"
"","","approach-retreat","75","747296","0.0-75.0","","","3-2","8519","39","1","Training","Stims/Figures/74-C-20-4.bmp","zasa:ha","Left","39","5","8","3A","C2","C","72"
"","","approach-retreat","76","753688","0.0-76.0","","","3-2","4885","37","1","Training","Stims/Figures/93-C-30-1.bmp","zasa:ha","Right","37","5","9","3A","C2","C","73"
"","","approach-retreat","77","759745","0.0-77.0","","","3-2","4550","40","0","Training","Stims/Figures/87-J-10-4.bmp","fashava","Up","38","5","10","3A","C1","C","74"
"","","approach-retreat","78","766433","0.0-78.0","","","3-2","5181","37","1","Training","Stims/Figures/128-J-10-3.bmp","fashava","Left","37","5","11","3A","C1","C","75"
"","","approach-retreat","79","772418","0.0-79.0","","","3-2","4478","40","1","Training","Stims/Figures/128-C-30-3.bmp","zasa:ha","Up","40","5","12","3A","C2","C","76"
"","","approach-retreat","80","778458","0.0-80.0","","","3-2","4532","39","1","Training","Stims/Figures/111-J-10-3.bmp","fashava","Right","39","5","13","3A","C1","C","77"
"","","approach-retreat","81","784386","0.0-81.0","","","3-2","4421","38","1","Training","Stims/Figures/57-C-30-1.bmp","zasa:ha","Down","38","5","14","3A","C2","C","78"
"","","approach-retreat","82","791435","0.0-82.0","","","3-2","5542","38","1","Training","Stims/Figures/139-J-0-2.bmp","fashava","Up","38","5","15","3A","C1","C","79"
"","","approach-retreat","83","798420","0.0-83.0","","","3-2","5477","40","1","Training","Stims/Figures/93-J-0-1.bmp","fashava","Down","40","5","16","3A","C1","C","80"
"","","approach-retreat","84","804308","0.0-84.0","","","3-2","4381","38","1","Training","Stims/Figures/74-C-20-4.bmp","zasa:ha","Down","38","6","1","3A","C2","C","81"
"","","approach-retreat","85","810373","0.0-85.0","","","3-2","4558","39","1","Training","Stims/Figures/74-J-10-4.bmp","fashava","Right","39","6","2","3A","C1","C","82"
"","","approach-retreat","86","816309","0.0-86.0","","","3-2","4429","38","1","Training","Stims/Figures/111-J-10-3.bmp","fashava","Up","38","6","3","3A","C1","C","83"
"","","approach-retreat","87","822471","0.0-87.0","","","3-2","4655","39","1","Training","Stims/Figures/139-C-20-2.bmp","zasa:ha","Left","39","6","4","3A","C2","C","84"
"","","approach-retreat","88","828982","0.0-88.0","","","3-2","5004","39","1","Training","Stims/Figures/118-J-0-2.bmp","fashava","Right","39","6","5","3A","C1","C","85"
"","","approach-retreat","89","834839","0.0-89.0","","","3-2","4351","39","1","Training","Stims/Figures/128-J-10-3.bmp","fashava","Right","39","6","6","3A","C1","C","86"
"","","approach-retreat","90","841790","0.0-90.0","","","3-2","5445","40","1","Training","Stims/Figures/128-C-30-3.bmp","zasa:ha","Up","40","6","7","3A","C2","C","87"
"","","approach-retreat","91","847864","0.0-91.0","","","3-2","4566","38","1","Training","Stims/Figures/139-J-0-2.bmp","fashava","Up","38","6","8","3A","C1","C","88"
"","","approach-retreat","92","854231","0.0-92.0","","","3-2","4861","38","1","Training","Stims/Figures/118-C-20-2.bmp","zasa:ha","Down","38","6","9","3A","C2","C","89"
"","","approach-retreat","93","860608","0.0-93.0","","","3-2","4871","37","1","Training","Stims/Figures/57-J-0-1.bmp","fashava","Left","37","6","10","3A","C1","C","90"
"","","approach-retreat","94","869584","0.0-94.0","","","3-2","7468","40","1","Training","Stims/Figures/111-C-30-3.bmp","zasa:ha","Up","40","6","11","3A","C2","C","91"
"","","approach-retreat","95","877345","0.0-95.0","","","3-2","6254","38","1","Training","Stims/Figures/93-C-30-1.bmp","zasa:ha","Down","38","6","12","3A","C2","C","92"
"","","approach-retreat","96","883417","0.0-96.0","","","3-2","4565","37","1","Training","Stims/Figures/87-J-10-4.bmp","fashava","Left","37","6","13","3A","C1","C","93"
"","","approach-retreat","97","889041","0.0-97.0","","","3-2","4117","37","1","Training","Stims/Figures/93-J-0-1.bmp","fashava","Left","37","6","14","3A","C1","C","94"
"","","approach-retreat","98","895530","0.0-98.0","","","3-2","4982","38","1","Training","Stims/Figures/57-C-30-1.bmp","zasa:ha","Down","38","6","15","3A","C2","C","95"
"","","approach-retreat","99","901475","0.0-99.0","","","3-2","4438","37","1","Training","Stims/Figures/87-C-20-4.bmp","zasa:ha","Right","37","6","16","3A","C2","C","96"
"","","approach-retreat","100","907795","0.0-100.0","","","3-2","4813","40","1","Training","Stims/Figures/87-C-20-4.bmp","zasa:ha","Up","40","7","1","3A","C2","C","97"
"","","approach-retreat","101","913988","0.0-101.0","","","3-2","4686","40","1","Training","Stims/Figures/87-J-10-4.bmp","fashava","Down","40","7","2","3A","C1","C","98"
"","","approach-retreat","102","920091","0.0-102.0","","","3-2","4596","37","1","Training","Stims/Figures/111-J-10-3.bmp","fashava","Left","37","7","3","3A","C1","C","99"
"","","approach-retreat","103","926261","0.0-103.0","","","3-2","4663","40","1","Training","Stims/Figures/111-C-30-3.bmp","zasa:ha","Up","40","7","4","3A","C2","C","100"
"","","approach-retreat","104","933372","0.0-104.0","","","3-2","5604","37","1","Training","Stims/Figures/128-J-10-3.bmp","fashava","Left","37","7","5","3A","C1","C","101"
"","","approach-retreat","105","939198","0.0-105.0","","","3-2","4318","38","1","Training","Stims/Figures/139-C-20-2.bmp","zasa:ha","Down","38","7","6","3A","C2","C","102"
"","","approach-retreat","106","945429","0.0-106.0","","","3-2","4725","39","1","Training","Stims/Figures/93-J-0-1.bmp","fashava","Right","39","7","7","3A","C1","C","103"
"","","approach-retreat","107","951342","0.0-107.0","","","3-2","4407","38","1","Training","Stims/Figures/93-C-30-1.bmp","zasa:ha","Down","38","7","8","3A","C2","C","104"
"","","approach-retreat","108","958093","0.0-108.0","","","3-2","5244","37","0","Training","Stims/Figures/118-C-20-2.bmp","zasa:ha","Left","39","7","9","3A","C2","C","105"
"","","approach-retreat","109","964296","0.0-109.0","","","3-2","4695","37","1","Training","Stims/Figures/128-C-30-3.bmp","zasa:ha","Right","37","7","10","3A","C2","C","106"
"","","approach-retreat","110","970126","0.0-110.0","","","3-2","4322","37","1","Training","Stims/Figures/74-C-20-4.bmp","zasa:ha","Right","37","7","11","3A","C2","C","107"
"","","approach-retreat","111","976263","0.0-111.0","","","3-2","4630","38","1","Training","Stims/Figures/74-J-10-4.bmp","fashava","Up","38","7","12","3A","C1","C","108"
"","","approach-retreat","112","982816","0.0-112.0","","","3-2","5046","37","0","Training","Stims/Figures/139-J-0-2.bmp","fashava","Right","39","7","13","3A","C1","C","109"
"","","approach-retreat","113","988585","0.0-113.0","","","3-2","4260","38","1","Training","Stims/Figures/57-C-30-1.bmp","zasa:ha","Down","38","7","14","3A","C2","C","110"
"","","approach-retreat","114","997049","0.0-114.0","","","3-2","6958","38","1","Training","Stims/Figures/118-J-0-2.bmp","fashava","Up","38","7","15","3A","C1","C","111"
"","","approach-retreat","115","1003234","0.0-115.0","","","3-2","4678","37","1","Training","Stims/Figures/57-J-0-1.bmp","fashava","Left","37","7","16","3A","C1","C","112"
"","","approach-retreat","116","1009025","0.0-116.0","","","3-2","4284","37","1","Training","Stims/Figures/87-C-20-4.bmp","zasa:ha","Right","37","8","1","3A","C2","C","113"
"","","approach-retreat","117","1015059","0.0-117.0","","","3-2","4527","37","1","Training","Stims/Figures/87-J-10-4.bmp","fashava","Left","37","8","2","3A","C1","C","114"
"","","approach-retreat","118","1021810","0.0-118.0","","","3-2","5243","38","1","Training","Stims/Figures/111-J-10-3.bmp","fashava","Up","38","8","3","3A","C1","C","115"
"","","approach-retreat","119","1027595","0.0-119.0","","","3-2","4278","39","1","Training","Stims/Figures/93-J-0-1.bmp","fashava","Right","39","8","4","3A","C1","C","116"
"","","approach-retreat","120","1033483","0.0-120.0","","","3-2","4381","37","1","Training","Stims/Figures/128-J-10-3.bmp","fashava","Left","37","8","5","3A","C1","C","117"
"","","approach-retreat","121","1039820","0.0-121.0","","","3-2","4830","39","1","Training","Stims/Figures/74-J-10-4.bmp","fashava","Right","39","8","6","3A","C1","C","118"
"","","approach-retreat","122","1045611","0.0-122.0","","","3-2","4284","40","1","Training","Stims/Figures/118-J-0-2.bmp","fashava","Down","40","8","7","3A","C1","C","119"
"","","approach-retreat","123","1051381","0.0-123.0","","","3-2","4263","40","1","Training","Stims/Figures/111-C-30-3.bmp","zasa:ha","Up","40","8","8","3A","C2","C","120"
"","","approach-retreat","124","1057060","0.0-124.0","","","3-2","4172","40","1","Training","Stims/Figures/93-C-30-1.bmp","zasa:ha","Up","40","8","9","3A","C2","C","121"
"","","approach-retreat","125","1063158","0.0-125.0","","","3-2","4590","40","1","Training","Stims/Figures/139-J-0-2.bmp","fashava","Down","40","8","10","3A","C1","C","122"
"","","approach-retreat","126","1069350","0.0-126.0","","","3-2","4686","39","0","Training","Stims/Figures/57-C-30-1.bmp","zasa:ha","Right","37","8","11","3A","C2","C","123"
"","","approach-retreat","127","1075078","0.0-127.0","","","3-2","4222","38","1","Training","Stims/Figures/118-C-20-2.bmp","zasa:ha","Down","38","8","12","3A","C2","C","124"
"","","approach-retreat","128","1080869","0.0-128.0","","","3-2","4284","39","1","Training","Stims/Figures/139-C-20-2.bmp","zasa:ha","Left","39","8","13","3A","C2","C","125"
"","","approach-retreat","129","1086648","0.0-129.0","","","3-2","4271","40","1","Training","Stims/Figures/74-C-20-4.bmp","zasa:ha","Up","40","8","14","3A","C2","C","126"
"","","approach-retreat","130","1092567","0.0-130.0","","","3-2","4413","37","1","Training","Stims/Figures/57-J-0-1.bmp","fashava","Left","37","8","15","3A","C1","C","127"
"","","approach-retreat","131","1098599","0.0-131.0","","","3-2","4525","38","1","Training","Stims/Figures/128-C-30-3.bmp","zasa:ha","Down","38","8","16","3A","C2","C","128"
"","","approach-retreat","132","1105841","0.0-132.0","","","3-2","5735","37","1","Training","Stims/Figures/139-J-0-2.bmp","fashava","Left","37","9","1","3A","C1","C","129"
"","","approach-retreat","133","1113409","0.0-133.0","","","3-2","6061","37","1","Training","Stims/Figures/87-C-20-4.bmp","zasa:ha","Right","37","9","2","3A","C2","C","130"
"","","approach-retreat","134","1120641","0.0-134.0","","","3-2","5725","37","1","Training","Stims/Figures/57-J-0-1.bmp","fashava","Left","37","9","3","3A","C1","C","131"
"","","approach-retreat","135","1126442","0.0-135.0","","","3-2","4294","40","1","Training","Stims/Figures/93-C-30-1.bmp","zasa:ha","Up","40","9","4","3A","C2","C","132"
"","","approach-retreat","136","1132145","0.0-136.0","","","3-2","4196","37","1","Training","Stims/Figures/139-C-20-2.bmp","zasa:ha","Right","37","9","5","3A","C2","C","133"
"","","approach-retreat","137","1137955","0.0-137.0","","","3-2","4302","37","1","Training","Stims/Figures/74-J-10-4.bmp","fashava","Left","37","9","6","3A","C1","C","134"
"","","approach-retreat","138","1143681","0.0-138.0","","","3-2","4220","40","1","Training","Stims/Figures/118-J-0-2.bmp","fashava","Down","40","9","7","3A","C1","C","135"
"","","approach-retreat","139","1149563","0.0-139.0","","","3-2","4374","38","0","Training","Stims/Figures/74-C-20-4.bmp","zasa:ha","Up","40","9","8","3A","C2","C","136"
"","","approach-retreat","140","1155243","0.0-140.0","","","3-2","4173","37","1","Training","Stims/Figures/128-C-30-3.bmp","zasa:ha","Right","37","9","9","3A","C2","C","137"
"","","approach-retreat","141","1161716","0.0-141.0","","","3-2","4966","40","1","Training","Stims/Figures/93-J-0-1.bmp","fashava","Down","40","9","10","3A","C1","C","138"
"","","approach-retreat","142","1169398","0.0-142.0","","","3-2","6176","38","1","Training","Stims/Figures/111-J-10-3.bmp","fashava","Up","38","9","11","3A","C1","C","139"
"","","approach-retreat","143","1175181","0.0-143.0","","","3-2","4275","37","1","Training","Stims/Figures/111-C-30-3.bmp","zasa:ha","Right","37","9","12","3A","C2","C","140"
"","","approach-retreat","144","1181141","0.0-144.0","","","3-2","4453","39","1","Training","Stims/Figures/57-C-30-1.bmp","zasa:ha","Left","39","9","13","3A","C2","C","141"
"","","approach-retreat","145","1187535","0.0-145.0","","","3-2","4886","38","1","Training","Stims/Figures/128-J-10-3.bmp","fashava","Up","38","9","14","3A","C1","C","142"
"","","approach-retreat","146","1193887","0.0-146.0","","","3-2","4844","40","1","Training","Stims/Figures/87-J-10-4.bmp","fashava","Down","40","9","15","3A","C1","C","143"
"","","approach-retreat","147","1199671","0.0-147.0","","","3-2","4276","38","1","Training","Stims/Figures/118-C-20-2.bmp","zasa:ha","Down","38","9","16","3A","C2","C","144"
"14142","","instructions","148","1213813","0.0-148.0","[{""page_index"":0,""viewing_time"":14140}]","","","","","","","","","","","","","","","",""
"","","approach-retreat","149","1221591","0.0-149.0","","","3-2","6274","40","1","Testing","Stims/Figures/93-C-30-1.bmp","zasa:ha","Up","40","1","1","3A","C2","C","1"
"","","approach-retreat","150","1229912","0.0-150.0","","","3-2","6815","38","1","Testing","Stims/Figures/100-C-30-3.bmp","zasa:ha","Down","38","1","2","3A","C2","C","2"
"","","approach-retreat","151","1238184","0.0-151.0","","","3-2","6765","40","1","Testing","Stims/Figures/128-J-10-3.bmp","fashava","Down","40","1","3","3A","C1","C","3"
"","","approach-retreat","152","1245153","0.0-152.0","","","3-2","5463","39","1","Testing","Stims/Figures/139-C-20-2.bmp","zasa:ha","Left","39","1","4","3A","C2","C","4"
"","","approach-retreat","153","1253089","0.0-153.0","","","3-2","6430","40","1","Testing","Stims/Figures/86-C-30-1.bmp","zasa:ha","Up","40","1","5","3A","C2","C","5"
"","","approach-retreat","154","1259746","0.0-154.0","","","3-2","5152","37","1","Testing","Stims/Figures/74-J-10-4.bmp","fashava","Left","37","1","6","3A","C1","C","6"
"","","approach-retreat","155","1266258","0.0-155.0","","","3-2","5006","39","1","Testing","Stims/Figures/118-J-0-2.bmp","fashava","Right","39","1","7","3A","C1","C","7"
"","","approach-retreat","156","1272937","0.0-156.0","","","3-2","5174","37","1","Testing","Stims/Figures/139-J-0-2.bmp","fashava","Left","37","1","8","3A","C1","C","8"
"","","approach-retreat","157","1278947","0.0-157.0","","","3-2","4503","37","1","Testing","Stims/Figures/86-J-0-1.bmp","fashava","Left","37","1","9","3A","C1","C","9"
"","","approach-retreat","158","1285092","0.0-158.0","","","3-2","4638","38","1","Testing","Stims/Figures/93-J-0-1.bmp","fashava","Up","38","1","10","3A","C1","C","10"
"","","approach-retreat","159","1291636","0.0-159.0","","","3-2","5034","38","1","Testing","Stims/Figures/118-C-20-2.bmp","zasa:ha","Down","38","1","11","3A","C2","C","11"
"","","approach-retreat","160","1298893","0.0-160.0","","","3-2","5751","39","1","Testing","Stims/Figures/111-J-10-3.bmp","fashava","Right","39","1","12","3A","C1","C","12"
"","","approach-retreat","161","1305268","0.0-161.0","","","3-2","4869","40","1","Testing","Stims/Figures/87-C-20-4.bmp","zasa:ha","Up","40","1","13","3A","C2","C","13"
"","","approach-retreat","162","1311126","0.0-162.0","","","3-2","4353","39","1","Testing","Stims/Figures/102-C-20-4.bmp","zasa:ha","Left","39","1","14","3A","C2","C","14"
"","","approach-retreat","163","1316877","0.0-163.0","","","3-2","4245","40","1","Testing","Stims/Figures/74-C-20-4.bmp","zasa:ha","Up","40","1","15","3A","C2","C","15"
"","","approach-retreat","164","1322535","0.0-164.0","","","3-2","4152","37","1","Testing","Stims/Figures/57-C-30-1.bmp","zasa:ha","Right","37","1","16","3A","C2","C","16"
"","","approach-retreat","165","1329391","0.0-165.0","","","3-2","5348","40","0","Testing","Stims/Figures/111-C-30-3.bmp","zasa:ha","Down","38","1","17","3A","C2","C","17"
"","","approach-retreat","166","1335599","0.0-166.0","","","3-2","4704","40","1","Testing","Stims/Figures/85-C-20-2.bmp","zasa:ha","Up","40","1","18","3A","C2","C","18"
"","","approach-retreat","167","1343359","0.0-167.0","","","3-2","6248","37","1","Testing","Stims/Figures/57-J-0-1.bmp","fashava","Left","37","1","19","3A","C1","C","19"
"","","approach-retreat","168","1349145","0.0-168.0","","","3-2","4280","38","0","Testing","Stims/Figures/87-J-10-4.bmp","fashava","Down","40","1","20","3A","C1","C","20"
"","","approach-retreat","169","1354944","0.0-169.0","","","3-2","4294","37","0","Testing","Stims/Figures/100-J-10-3.bmp","fashava","Right","39","1","21","3A","C1","C","21"
"","","approach-retreat","170","1361249","0.0-170.0","","","3-2","4800","39","1","Testing","Stims/Figures/102-J-10-4.bmp","fashava","Right","39","1","22","3A","C1","C","22"
"","","approach-retreat","171","1368434","0.0-171.0","","","3-2","5680","40","1","Testing","Stims/Figures/85-J-0-2.bmp","fashava","Down","40","1","23","3A","C1","C","23"
"","","approach-retreat","172","1374370","0.0-172.0","","","3-2","4432","37","1","Testing","Stims/Figures/128-C-30-3.bmp","zasa:ha","Right","37","1","24","3A","C2","C","24"
"","","approach-retreat","173","1380795","0.0-173.0","","","3-2","4920","38","0","Testing","Stims/Figures/111-C-30-3.bmp","zasa:ha","Up","40","2","1","3A","C2","C","25"
"","","approach-retreat","174","1386842","0.0-174.0","","","3-2","4543","39","1","Testing","Stims/Figures/102-J-10-4.bmp","fashava","Right","39","2","2","3A","C1","C","26"
"","","approach-retreat","175","1399029","0.0-175.0","","","3-2","10680","38","1","Testing","Stims/Figures/128-J-10-3.bmp","fashava","Up","38","2","3","3A","C1","C","27"
"","","approach-retreat","176","1409053","0.0-176.0","","","3-2","8519","40","0","Testing","Stims/Figures/102-C-20-4.bmp","zasa:ha","Down","38","2","4","3A","C2","C","28"
"","","approach-retreat","177","1420558","0.0-177.0","","","3-2","10000","37","1","Testing","Stims/Figures/100-J-10-3.bmp","fashava","Left","37","2","5","3A","C1","C","29"
"","","approach-retreat","178","1426084","0.0-178.0","","","3-2","4021","37","0","Testing","Stims/Figures/118-C-20-2.bmp","zasa:ha","Left","39","2","6","3A","C2","C","30"
"","","approach-retreat","179","1432190","0.0-179.0","","","3-2","4601","39","1","Testing","Stims/Figures/93-J-0-1.bmp","fashava","Right","39","2","7","3A","C1","C","31"
"","","approach-retreat","180","1440293","0.0-180.0","","","3-2","6599","40","1","Testing","Stims/Figures/86-C-30-1.bmp","zasa:ha","Up","40","2","8","3A","C2","C","32"
"","","approach-retreat","181","1449567","0.0-181.0","","","3-2","7768","38","1","Testing","Stims/Figures/86-J-0-1.bmp","fashava","Up","38","2","9","3A","C1","C","33"
"","","approach-retreat","182","1457167","0.0-182.0","","","3-2","6094","37","1","Testing","Stims/Figures/118-J-0-2.bmp","fashava","Left","37","2","10","3A","C1","C","34"
"","","approach-retreat","183","1463584","0.0-183.0","","","3-2","4912","38","1","Testing","Stims/Figures/93-C-30-1.bmp","zasa:ha","Down","38","2","11","3A","C2","C","35"
"","","approach-retreat","184","1469368","0.0-184.0","","","3-2","4279","40","1","Testing","Stims/Figures/85-J-0-2.bmp","fashava","Down","40","2","12","3A","C1","C","36"
"","","approach-retreat","185","1477440","0.0-185.0","","","3-2","6567","40","1","Testing","Stims/Figures/74-J-10-4.bmp","fashava","Down","40","2","13","3A","C1","C","37"
"","","approach-retreat","186","1483264","0.0-186.0","","","3-2","4318","40","1","Testing","Stims/Figures/128-C-30-3.bmp","zasa:ha","Up","40","2","14","3A","C2","C","38"
"","","approach-retreat","187","1489617","0.0-187.0","","","3-2","4847","39","1","Testing","Stims/Figures/57-J-0-1.bmp","fashava","Right","39","2","15","3A","C1","C","39"
"","","approach-retreat","188","1495850","0.0-188.0","","","3-2","4728","38","1","Testing","Stims/Figures/85-C-20-2.bmp","zasa:ha","Down","38","2","16","3A","C2","C","40"
"","","approach-retreat","189","1502107","0.0-189.0","","","3-2","4751","39","1","Testing","Stims/Figures/57-C-30-1.bmp","zasa:ha","Left","39","2","17","3A","C2","C","41"
"","","approach-retreat","190","1507922","0.0-190.0","","","3-2","4310","40","0","Testing","Stims/Figures/87-J-10-4.bmp","fashava","Up","38","2","18","3A","C1","C","42"
"","","approach-retreat","191","1514275","0.0-191.0","","","3-2","4845","40","1","Testing","Stims/Figures/139-J-0-2.bmp","fashava","Down","40","2","19","3A","C1","C","43"
"","","approach-retreat","192","1520140","0.0-192.0","","","3-2","4359","37","1","Testing","Stims/Figures/100-C-30-3.bmp","zasa:ha","Right","37","2","20","3A","C2","C","44"
"","","approach-retreat","193","1526165","0.0-193.0","","","3-2","4519","39","1","Testing","Stims/Figures/139-C-20-2.bmp","zasa:ha","Left","39","2","21","3A","C2","C","45"
"","","approach-retreat","194","1531932","0.0-194.0","","","3-2","4261","39","1","Testing","Stims/Figures/87-C-20-4.bmp","zasa:ha","Left","39","2","22","3A","C2","C","46"
"","","approach-retreat","195","1539470","0.0-195.0","","","3-2","6033","39","0","Testing","Stims/Figures/74-C-20-4.bmp","zasa:ha","Right","37","2","23","3A","C2","C","47"
"","","approach-retreat","196","1545220","0.0-196.0","","","3-2","4244","39","1","Testing","Stims/Figures/111-J-10-3.bmp","fashava","Right","39","2","24","3A","C1","C","48"
"","","approach-retreat","197","1556014","0.0-197.0","","","3-2","9289","38","1","Testing","Stims/Figures/100-C-30-3.bmp","zasa:ha","Down","38","3","1","3A","C2","C","49"
"","","approach-retreat","198","1562789","0.0-198.0","","","3-2","5269","40","1","Testing","Stims/Figures/128-J-10-3.bmp","fashava","Down","40","3","2","3A","C1","C","50"
"","","approach-retreat","199","1570183","0.0-199.0","","","3-2","5888","37","1","Testing","Stims/Figures/57-J-0-1.bmp","fashava","Left","37","3","3","3A","C1","C","51"
"","","approach-retreat","200","1576023","0.0-200.0","","","3-2","4334","39","1","Testing","Stims/Figures/128-C-30-3.bmp","zasa:ha","Left","39","3","4","3A","C2","C","52"
"","","approach-retreat","201","1585423","0.0-201.0","","","3-2","7895","40","1","Testing","Stims/Figures/102-C-20-4.bmp","zasa:ha","Up","40","3","5","3A","C2","C","53"
"","","approach-retreat","202","1591752","0.0-202.0","","","3-2","4823","39","0","Testing","Stims/Figures/111-C-30-3.bmp","zasa:ha","Right","37","3","6","3A","C2","C","54"
"","","approach-retreat","203","1597608","0.0-203.0","","","3-2","4350","39","0","Testing","Stims/Figures/87-J-10-4.bmp","fashava","Left","37","3","7","3A","C1","C","55"
"","","approach-retreat","204","1603985","0.0-204.0","","","3-2","4871","38","1","Testing","Stims/Figures/100-J-10-3.bmp","fashava","Up","38","3","8","3A","C1","C","56"
"","","approach-retreat","205","1610226","0.0-205.0","","","3-2","4735","40","1","Testing","Stims/Figures/57-C-30-1.bmp","zasa:ha","Up","40","3","9","3A","C2","C","57"
"","","approach-retreat","206","1616050","0.0-206.0","","","3-2","4319","38","1","Testing","Stims/Figures/74-C-20-4.bmp","zasa:ha","Down","38","3","10","3A","C2","C","58"
"","","approach-retreat","207","1622491","0.0-207.0","","","3-2","4933","39","1","Testing","Stims/Figures/74-J-10-4.bmp","fashava","Right","39","3","11","3A","C1","C","59"
"","","approach-retreat","208","1627971","0.0-208.0","","","3-2","3975","39","1","Testing","Stims/Figures/111-J-10-3.bmp","fashava","Right","39","3","12","3A","C1","C","60"
"","","approach-retreat","209","1633964","0.0-209.0","","","3-2","4487","38","1","Testing","Stims/Figures/86-C-30-1.bmp","zasa:ha","Down","38","3","13","3A","C2","C","61"
"","","approach-retreat","210","1640955","0.0-210.0","","","3-2","5485","38","1","Testing","Stims/Figures/102-J-10-4.bmp","fashava","Up","38","3","14","3A","C1","C","62"
"","","approach-retreat","211","1646933","0.0-211.0","","","3-2","4473","40","1","Testing","Stims/Figures/85-J-0-2.bmp","fashava","Down","40","3","15","3A","C1","C","63"
"","","approach-retreat","212","1653267","0.0-212.0","","","3-2","4830","40","1","Testing","Stims/Figures/118-J-0-2.bmp","fashava","Down","40","3","16","3A","C1","C","64"
"","","approach-retreat","213","1659061","0.0-213.0","","","3-2","4288","40","1","Testing","Stims/Figures/87-C-20-4.bmp","zasa:ha","Up","40","3","17","3A","C2","C","65"
"","","approach-retreat","214","1664844","0.0-214.0","","","3-2","4279","39","1","Testing","Stims/Figures/139-C-20-2.bmp","zasa:ha","Left","39","3","18","3A","C2","C","66"
"","","approach-retreat","215","1670533","0.0-215.0","","","3-2","4183","37","1","Testing","Stims/Figures/86-J-0-1.bmp","fashava","Left","37","3","19","3A","C1","C","67"
"","","approach-retreat","216","1677477","0.0-216.0","","","3-2","5438","39","1","Testing","Stims/Figures/139-J-0-2.bmp","fashava","Right","39","3","20","3A","C1","C","68"
"","","approach-retreat","217","1684230","0.0-217.0","","","3-2","5249","40","1","Testing","Stims/Figures/118-C-20-2.bmp","zasa:ha","Up","40","3","21","3A","C2","C","69"
"","","approach-retreat","218","1692886","0.0-218.0","","","3-2","7151","37","1","Testing","Stims/Figures/93-J-0-1.bmp","fashava","Left","37","3","22","3A","C1","C","70"
"","","approach-retreat","219","1698631","0.0-219.0","","","3-2","4240","37","1","Testing","Stims/Figures/85-C-20-2.bmp","zasa:ha","Right","37","3","23","3A","C2","C","71"
"","","approach-retreat","220","1706344","0.0-220.0","","","3-2","6207","37","1","Testing","Stims/Figures/93-C-30-1.bmp","zasa:ha","Right","37","3","24","3A","C2","C","72"
"","","approach-retreat","221","1712152","0.0-221.0","","","3-2","4303","40","1","Testing","Stims/Figures/100-C-30-3.bmp","zasa:ha","Up","40","4","1","3A","C2","C","73"
"","","approach-retreat","222","1718128","0.0-222.0","","","3-2","4471","40","1","Testing","Stims/Figures/74-J-10-4.bmp","fashava","Down","40","4","2","3A","C1","C","74"
"","","approach-retreat","223","1723880","0.0-223.0","","","3-2","4247","39","1","Testing","Stims/Figures/93-C-30-1.bmp","zasa:ha","Left","39","4","3","3A","C2","C","75"
"","","approach-retreat","224","1729666","0.0-224.0","","","3-2","4280","38","0","Testing","Stims/Figures/87-J-10-4.bmp","fashava","Down","40","4","4","3A","C1","C","76"
"","","approach-retreat","225","1735289","0.0-225.0","","","3-2","4118","40","1","Testing","Stims/Figures/57-C-30-1.bmp","zasa:ha","Up","40","4","5","3A","C2","C","77"
"","","approach-retreat","226","1741537","0.0-226.0","","","3-2","4742","40","1","Testing","Stims/Figures/57-J-0-1.bmp","fashava","Down","40","4","6","3A","C1","C","78"
"","","approach-retreat","227","1747235","0.0-227.0","","","3-2","4192","40","1","Testing","Stims/Figures/118-J-0-2.bmp","fashava","Down","40","4","7","3A","C1","C","79"
"","","approach-retreat","228","1753130","0.0-228.0","","","3-2","4390","38","0","Testing","Stims/Figures/111-C-30-3.bmp","zasa:ha","Up","40","4","8","3A","C2","C","80"
"","","approach-retreat","229","1759580","0.0-229.0","","","3-2","4943","39","1","Testing","Stims/Figures/139-J-0-2.bmp","fashava","Right","39","4","9","3A","C1","C","81"
"","","approach-retreat","230","1766292","0.0-230.0","","","3-2","5207","37","1","Testing","Stims/Figures/86-C-30-1.bmp","zasa:ha","Right","37","4","10","3A","C2","C","82"
"","","approach-retreat","231","1772796","0.0-231.0","","","3-2","5000","39","1","Testing","Stims/Figures/128-C-30-3.bmp","zasa:ha","Left","39","4","11","3A","C2","C","83"
"","","approach-retreat","232","1778579","0.0-232.0","","","3-2","4276","37","1","Testing","Stims/Figures/100-J-10-3.bmp","fashava","Left","37","4","12","3A","C1","C","84"
"","","approach-retreat","233","1784606","0.0-233.0","","","3-2","4521","39","1","Testing","Stims/Figures/111-J-10-3.bmp","fashava","Right","39","4","13","3A","C1","C","85"
"","","approach-retreat","234","1790332","0.0-234.0","","","3-2","4221","38","1","Testing","Stims/Figures/74-C-20-4.bmp","zasa:ha","Down","38","4","14","3A","C2","C","86"
"","","approach-retreat","235","1796526","0.0-235.0","","","3-2","4688","38","1","Testing","Stims/Figures/93-J-0-1.bmp","fashava","Up","38","4","15","3A","C1","C","87"
"","","approach-retreat","236","1802229","0.0-236.0","","","3-2","4199","37","1","Testing","Stims/Figures/85-J-0-2.bmp","fashava","Left","37","4","16","3A","C1","C","88"
"","","approach-retreat","237","1807934","0.0-237.0","","","3-2","4200","37","1","Testing","Stims/Figures/87-C-20-4.bmp","zasa:ha","Right","37","4","17","3A","C2","C","89"
"","","approach-retreat","238","1814294","0.0-238.0","","","3-2","4853","40","1","Testing","Stims/Figures/85-C-20-2.bmp","zasa:ha","Up","40","4","18","3A","C2","C","90"
"","","approach-retreat","239","1822911","0.0-239.0","","","3-2","7111","38","1","Testing","Stims/Figures/86-J-0-1.bmp","fashava","Up","38","4","19","3A","C1","C","91"
"","","approach-retreat","240","1828487","0.0-240.0","","","3-2","4070","39","1","Testing","Stims/Figures/102-C-20-4.bmp","zasa:ha","Left","39","4","20","3A","C2","C","92"
"","","approach-retreat","241","1837136","0.0-241.0","","","3-2","7145","38","0","Testing","Stims/Figures/128-J-10-3.bmp","fashava","Down","40","4","21","3A","C1","C","93"
"","","approach-retreat","242","1842984","0.0-242.0","","","3-2","4342","37","1","Testing","Stims/Figures/118-C-20-2.bmp","zasa:ha","Right","37","4","22","3A","C2","C","94"
"","","approach-retreat","243","1849482","0.0-243.0","","","3-2","4990","37","1","Testing","Stims/Figures/139-C-20-2.bmp","zasa:ha","Right","37","4","23","3A","C2","C","95"
"","","approach-retreat","244","1855641","0.0-244.0","","","3-2","4654","39","0","Testing","Stims/Figures/102-J-10-4.bmp","fashava","Left","37","4","24","3A","C1","C","96"
"60960","","survey-text","245","1916607","0.0-245.0","","{""Q0"":""PS180041""}","","","","","","","","","","","","","","",""
