\"rt\",\"key_press\",\"trial_type\",\"trial_index\",\"time_elapsed\",\"internal_node_id\",\"view_history\",\"responses\",\"Id\",\"Rt\",\"ResKeyCode\",\"ResCorr\",\"TrialType2\",\"Image\",\"Label\",\"Location\",\"CorrectResponse\",\"Block\",\"BlockTrial\",\"Condition\",\"LabelType\",\"Subcondition\",\"trialNum\"
\"88821\",\"32\",\"text\",\"0\",\"88826\",\"0.0-0.0-0.0\",\"\",\"\",\"\",\"\",\"\",\"\",\"\",\"\",\"\",\"\",\"\",\"\",\"\",\"\",\"\",\"\",\"\"
\"58328\",\"\",\"instructions\",\"1\",\"147158\",\"0.0-1.0\",\"[{\"\"page_index\"\":0,\"\"viewing_time\"\":58327}]\",\"\",\"\",\"\",\"\",\"\",\"\",\"\",\"\",\"\",\"\",\"\",\"\",\"\",\"\",\"\",\"\"
\"23586\",\"\",\"survey-multi-choice\",\"2\",\"170783\",\"0.0-2.0\",\"\",\"{\"\"Q0\"\":\"\"Da\"\",\"\"Q1\"\":\"\"Da\"\",\"\"Q2\"\":\"\"Da\"\",\"\"Q3\"\":\"\"Da\"\",\"\"Q4\"\":\"\"Da\"\",\"\"Q5\"\":\"\"Da\"\"}\",\"\",\"\",\"\",\"\",\"\",\"\",\"\",\"\",\"\",\"\",\"\",\"\",\"\",\"\",\"\"
\"\",\"\",\"bio\",\"3\",\"178575\",\"0.0-3.0\",\"\",\"{\"\"age\"\":\"\"25\"\",\"\"gender\"\":\"\"f\"\",\"\"specify\"\":\"\"\"\"}\",\"\",\"\",\"\",\"\",\"\",\"\",\"\",\"\",\"\",\"\",\"\",\"\",\"\",\"\",\"\"
\"\",\"\",\"approach-retreat\",\"4\",\"187053\",\"0.0-4.0\",\"\",\"\",\"1-5\",\"6953\",\"40\",\"0\",\"Training\",\"Stims/Figures/111-C-30-3.bmp\",\"fafasha\",\"Up\",\"38\",\"1\",\"1\",\"3B\",\"C1\",\"J\",\"1\"
\"\",\"\",\"approach-retreat\",\"5\",\"194503\",\"0.0-5.0\",\"\",\"\",\"1-5\",\"5935\",\"39\",\"0\",\"Training\",\"Stims/Figures/71-J-0-1.bmp\",\"za:sa:za\",\"Right\",\"37\",\"1\",\"2\",\"3B\",\"C2\",\"J\",\"2\"
\"\",\"\",\"approach-retreat\",\"6\",\"200046\",\"0.0-6.0\",\"\",\"\",\"1-5\",\"4034\",\"38\",\"0\",\"Training\",\"Stims/Figures/44-C-30-3.bmp\",\"fafasha\",\"Down\",\"40\",\"1\",\"3\",\"3B\",\"C1\",\"J\",\"3\"
\"\",\"\",\"approach-retreat\",\"7\",\"208433\",\"0.0-7.0\",\"\",\"\",\"1-5\",\"6879\",\"40\",\"1\",\"Training\",\"Stims/Figures/94-J-0-2.bmp\",\"za:sa:za\",\"Up\",\"40\",\"1\",\"4\",\"3B\",\"C2\",\"J\",\"4\"
\"\",\"\",\"approach-retreat\",\"8\",\"215842\",\"0.0-8.0\",\"\",\"\",\"1-5\",\"5899\",\"37\",\"1\",\"Training\",\"Stims/Figures/57-C-30-1.bmp\",\"fafasha\",\"Left\",\"37\",\"1\",\"5\",\"3B\",\"C1\",\"J\",\"5\"
\"\",\"\",\"approach-retreat\",\"9\",\"222956\",\"0.0-9.0\",\"\",\"\",\"1-5\",\"5603\",\"40\",\"0\",\"Training\",\"Stims/Figures/84-J-0-2.bmp\",\"za:sa:za\",\"Down\",\"38\",\"1\",\"6\",\"3B\",\"C2\",\"J\",\"6\"
\"\",\"\",\"approach-retreat\",\"10\",\"229331\",\"0.0-10.0\",\"\",\"\",\"1-5\",\"4865\",\"38\",\"1\",\"Training\",\"Stims/Figures/84-C-20-2.bmp\",\"fafasha\",\"Up\",\"38\",\"1\",\"7\",\"3B\",\"C1\",\"J\",\"7\"
\"\",\"\",\"approach-retreat\",\"11\",\"235721\",\"0.0-11.0\",\"\",\"\",\"1-5\",\"4879\",\"39\",\"1\",\"Training\",\"Stims/Figures/57-J-0-1.bmp\",\"za:sa:za\",\"Left\",\"39\",\"1\",\"8\",\"3B\",\"C2\",\"J\",\"8\"
\"\",\"\",\"approach-retreat\",\"12\",\"242135\",\"0.0-12.0\",\"\",\"\",\"1-5\",\"4904\",\"37\",\"1\",\"Training\",\"Stims/Figures/102-J-10-4.bmp\",\"za:sa:za\",\"Right\",\"37\",\"1\",\"9\",\"3B\",\"C2\",\"J\",\"9\"
\"\",\"\",\"approach-retreat\",\"13\",\"249149\",\"0.0-13.0\",\"\",\"\",\"1-5\",\"5504\",\"40\",\"1\",\"Training\",\"Stims/Figures/71-C-30-1.bmp\",\"fafasha\",\"Down\",\"40\",\"1\",\"10\",\"3B\",\"C1\",\"J\",\"10\"
\"\",\"\",\"approach-retreat\",\"14\",\"255950\",\"0.0-14.0\",\"\",\"\",\"1-5\",\"5295\",\"38\",\"1\",\"Training\",\"Stims/Figures/19-J-10-4.bmp\",\"za:sa:za\",\"Down\",\"38\",\"1\",\"11\",\"3B\",\"C2\",\"J\",\"11\"
\"\",\"\",\"approach-retreat\",\"15\",\"264253\",\"0.0-15.0\",\"\",\"\",\"1-5\",\"6792\",\"38\",\"1\",\"Training\",\"Stims/Figures/19-C-20-4.bmp\",\"fafasha\",\"Up\",\"38\",\"1\",\"12\",\"3B\",\"C1\",\"J\",\"12\"
\"\",\"\",\"approach-retreat\",\"16\",\"270672\",\"0.0-16.0\",\"\",\"\",\"1-5\",\"4909\",\"37\",\"1\",\"Training\",\"Stims/Figures/111-J-10-3.bmp\",\"za:sa:za\",\"Right\",\"37\",\"1\",\"13\",\"3B\",\"C2\",\"J\",\"13\"
\"\",\"\",\"approach-retreat\",\"17\",\"277414\",\"0.0-17.0\",\"\",\"\",\"1-5\",\"5233\",\"37\",\"1\",\"Training\",\"Stims/Figures/94-C-20-2.bmp\",\"fafasha\",\"Left\",\"37\",\"1\",\"14\",\"3B\",\"C1\",\"J\",\"14\"
\"\",\"\",\"approach-retreat\",\"18\",\"283788\",\"0.0-18.0\",\"\",\"\",\"1-5\",\"4865\",\"37\",\"1\",\"Training\",\"Stims/Figures/102-C-20-4.bmp\",\"fafasha\",\"Left\",\"37\",\"1\",\"15\",\"3B\",\"C1\",\"J\",\"15\"
\"\",\"\",\"approach-retreat\",\"19\",\"290351\",\"0.0-19.0\",\"\",\"\",\"1-5\",\"5054\",\"37\",\"1\",\"Training\",\"Stims/Figures/44-J-10-3.bmp\",\"za:sa:za\",\"Right\",\"37\",\"1\",\"16\",\"3B\",\"C2\",\"J\",\"16\"
\"\",\"\",\"approach-retreat\",\"20\",\"297741\",\"0.0-20.0\",\"\",\"\",\"1-5\",\"5878\",\"40\",\"1\",\"Training\",\"Stims/Figures/57-J-0-1.bmp\",\"za:sa:za\",\"Up\",\"40\",\"2\",\"1\",\"3B\",\"C2\",\"J\",\"17\"
\"\",\"\",\"approach-retreat\",\"21\",\"304559\",\"0.0-21.0\",\"\",\"\",\"1-5\",\"5307\",\"40\",\"1\",\"Training\",\"Stims/Figures/102-C-20-4.bmp\",\"fafasha\",\"Down\",\"40\",\"2\",\"2\",\"3B\",\"C1\",\"J\",\"18\"
\"\",\"\",\"approach-retreat\",\"22\",\"311400\",\"0.0-22.0\",\"\",\"\",\"1-5\",\"5330\",\"38\",\"1\",\"Training\",\"Stims/Figures/94-C-20-2.bmp\",\"fafasha\",\"Up\",\"38\",\"2\",\"3\",\"3B\",\"C1\",\"J\",\"19\"
\"\",\"\",\"approach-retreat\",\"23\",\"318115\",\"0.0-23.0\",\"\",\"\",\"1-5\",\"5206\",\"38\",\"1\",\"Training\",\"Stims/Figures/111-J-10-3.bmp\",\"za:sa:za\",\"Down\",\"38\",\"2\",\"4\",\"3B\",\"C2\",\"J\",\"20\"
\"\",\"\",\"approach-retreat\",\"24\",\"324590\",\"0.0-24.0\",\"\",\"\",\"1-5\",\"4967\",\"37\",\"1\",\"Training\",\"Stims/Figures/71-C-30-1.bmp\",\"fafasha\",\"Left\",\"37\",\"2\",\"5\",\"3B\",\"C1\",\"J\",\"21\"
\"\",\"\",\"approach-retreat\",\"25\",\"330976\",\"0.0-25.0\",\"\",\"\",\"1-5\",\"4875\",\"39\",\"1\",\"Training\",\"Stims/Figures/111-C-30-3.bmp\",\"fafasha\",\"Right\",\"39\",\"2\",\"6\",\"3B\",\"C1\",\"J\",\"22\"
\"\",\"\",\"approach-retreat\",\"26\",\"336992\",\"0.0-26.0\",\"\",\"\",\"1-5\",\"4504\",\"39\",\"1\",\"Training\",\"Stims/Figures/19-C-20-4.bmp\",\"fafasha\",\"Right\",\"39\",\"2\",\"7\",\"3B\",\"C1\",\"J\",\"23\"
\"\",\"\",\"approach-retreat\",\"27\",\"342942\",\"0.0-27.0\",\"\",\"\",\"1-5\",\"4442\",\"38\",\"1\",\"Training\",\"Stims/Figures/44-C-30-3.bmp\",\"fafasha\",\"Up\",\"38\",\"2\",\"8\",\"3B\",\"C1\",\"J\",\"24\"
\"\",\"\",\"approach-retreat\",\"28\",\"349345\",\"0.0-28.0\",\"\",\"\",\"1-5\",\"4895\",\"40\",\"1\",\"Training\",\"Stims/Figures/84-C-20-2.bmp\",\"fafasha\",\"Down\",\"40\",\"2\",\"9\",\"3B\",\"C1\",\"J\",\"25\"
\"\",\"\",\"approach-retreat\",\"29\",\"356193\",\"0.0-29.0\",\"\",\"\",\"1-5\",\"5339\",\"37\",\"1\",\"Training\",\"Stims/Figures/57-C-30-1.bmp\",\"fafasha\",\"Left\",\"37\",\"2\",\"10\",\"3B\",\"C1\",\"J\",\"26\"
\"\",\"\",\"approach-retreat\",\"30\",\"362446\",\"0.0-30.0\",\"\",\"\",\"1-5\",\"4747\",\"40\",\"1\",\"Training\",\"Stims/Figures/71-J-0-1.bmp\",\"za:sa:za\",\"Up\",\"40\",\"2\",\"11\",\"3B\",\"C2\",\"J\",\"27\"
\"\",\"\",\"approach-retreat\",\"31\",\"368723\",\"0.0-31.0\",\"\",\"\",\"1-5\",\"4767\",\"37\",\"1\",\"Training\",\"Stims/Figures/102-J-10-4.bmp\",\"za:sa:za\",\"Right\",\"37\",\"2\",\"12\",\"3B\",\"C2\",\"J\",\"28\"
\"\",\"\",\"approach-retreat\",\"32\",\"375680\",\"0.0-32.0\",\"\",\"\",\"1-5\",\"5447\",\"39\",\"1\",\"Training\",\"Stims/Figures/44-J-10-3.bmp\",\"za:sa:za\",\"Left\",\"39\",\"2\",\"13\",\"3B\",\"C2\",\"J\",\"29\"
\"\",\"\",\"approach-retreat\",\"33\",\"383832\",\"0.0-33.0\",\"\",\"\",\"1-5\",\"6641\",\"39\",\"1\",\"Training\",\"Stims/Figures/84-J-0-2.bmp\",\"za:sa:za\",\"Left\",\"39\",\"2\",\"14\",\"3B\",\"C2\",\"J\",\"30\"
\"\",\"\",\"approach-retreat\",\"34\",\"390104\",\"0.0-34.0\",\"\",\"\",\"1-5\",\"4762\",\"37\",\"1\",\"Training\",\"Stims/Figures/19-J-10-4.bmp\",\"za:sa:za\",\"Right\",\"37\",\"2\",\"15\",\"3B\",\"C2\",\"J\",\"31\"
\"\",\"\",\"approach-retreat\",\"35\",\"396512\",\"0.0-35.0\",\"\",\"\",\"1-5\",\"4899\",\"38\",\"1\",\"Training\",\"Stims/Figures/94-J-0-2.bmp\",\"za:sa:za\",\"Down\",\"38\",\"2\",\"16\",\"3B\",\"C2\",\"J\",\"32\"
\"\",\"\",\"approach-retreat\",\"36\",\"403666\",\"0.0-36.0\",\"\",\"\",\"1-5\",\"5642\",\"37\",\"1\",\"Training\",\"Stims/Figures/94-C-20-2.bmp\",\"fafasha\",\"Left\",\"37\",\"3\",\"1\",\"3B\",\"C1\",\"J\",\"33\"
\"\",\"\",\"approach-retreat\",\"37\",\"410398\",\"0.0-37.0\",\"\",\"\",\"1-5\",\"5223\",\"39\",\"1\",\"Training\",\"Stims/Figures/71-C-30-1.bmp\",\"fafasha\",\"Right\",\"39\",\"3\",\"2\",\"3B\",\"C1\",\"J\",\"34\"
\"\",\"\",\"approach-retreat\",\"38\",\"416727\",\"0.0-38.0\",\"\",\"\",\"1-5\",\"4816\",\"40\",\"1\",\"Training\",\"Stims/Figures/111-J-10-3.bmp\",\"za:sa:za\",\"Up\",\"40\",\"3\",\"3\",\"3B\",\"C2\",\"J\",\"35\"
\"\",\"\",\"approach-retreat\",\"39\",\"423253\",\"0.0-39.0\",\"\",\"\",\"1-5\",\"5017\",\"37\",\"1\",\"Training\",\"Stims/Figures/102-J-10-4.bmp\",\"za:sa:za\",\"Right\",\"37\",\"3\",\"4\",\"3B\",\"C2\",\"J\",\"36\"
\"\",\"\",\"approach-retreat\",\"40\",\"429509\",\"0.0-40.0\",\"\",\"\",\"1-5\",\"4745\",\"37\",\"1\",\"Training\",\"Stims/Figures/102-C-20-4.bmp\",\"fafasha\",\"Left\",\"37\",\"3\",\"5\",\"3B\",\"C1\",\"J\",\"37\"
\"\",\"\",\"approach-retreat\",\"41\",\"436400\",\"0.0-41.0\",\"\",\"\",\"1-5\",\"5381\",\"38\",\"1\",\"Training\",\"Stims/Figures/94-J-0-2.bmp\",\"za:sa:za\",\"Down\",\"38\",\"3\",\"6\",\"3B\",\"C2\",\"J\",\"38\"
\"\",\"\",\"approach-retreat\",\"42\",\"442593\",\"0.0-42.0\",\"\",\"\",\"1-5\",\"4683\",\"40\",\"1\",\"Training\",\"Stims/Figures/44-C-30-3.bmp\",\"fafasha\",\"Down\",\"40\",\"3\",\"7\",\"3B\",\"C1\",\"J\",\"39\"
\"\",\"\",\"approach-retreat\",\"43\",\"449470\",\"0.0-43.0\",\"\",\"\",\"1-5\",\"5366\",\"38\",\"1\",\"Training\",\"Stims/Figures/57-C-30-1.bmp\",\"fafasha\",\"Up\",\"38\",\"3\",\"8\",\"3B\",\"C1\",\"J\",\"40\"
\"\",\"\",\"approach-retreat\",\"44\",\"455590\",\"0.0-44.0\",\"\",\"\",\"1-5\",\"4612\",\"39\",\"1\",\"Training\",\"Stims/Figures/57-J-0-1.bmp\",\"za:sa:za\",\"Left\",\"39\",\"3\",\"9\",\"3B\",\"C2\",\"J\",\"41\"
\"\",\"\",\"approach-retreat\",\"45\",\"461459\",\"0.0-45.0\",\"\",\"\",\"1-5\",\"4359\",\"40\",\"1\",\"Training\",\"Stims/Figures/44-J-10-3.bmp\",\"za:sa:za\",\"Up\",\"40\",\"3\",\"10\",\"3B\",\"C2\",\"J\",\"42\"
\"\",\"\",\"approach-retreat\",\"46\",\"467338\",\"0.0-46.0\",\"\",\"\",\"1-5\",\"4369\",\"38\",\"1\",\"Training\",\"Stims/Figures/19-J-10-4.bmp\",\"za:sa:za\",\"Down\",\"38\",\"3\",\"11\",\"3B\",\"C2\",\"J\",\"43\"
\"\",\"\",\"approach-retreat\",\"47\",\"473091\",\"0.0-47.0\",\"\",\"\",\"1-5\",\"4243\",\"40\",\"1\",\"Training\",\"Stims/Figures/111-C-30-3.bmp\",\"fafasha\",\"Down\",\"40\",\"3\",\"12\",\"3B\",\"C1\",\"J\",\"44\"
\"\",\"\",\"approach-retreat\",\"48\",\"479161\",\"0.0-48.0\",\"\",\"\",\"1-5\",\"4562\",\"39\",\"1\",\"Training\",\"Stims/Figures/84-C-20-2.bmp\",\"fafasha\",\"Right\",\"39\",\"3\",\"13\",\"3B\",\"C1\",\"J\",\"45\"
\"\",\"\",\"approach-retreat\",\"49\",\"485283\",\"0.0-49.0\",\"\",\"\",\"1-5\",\"4612\",\"38\",\"1\",\"Training\",\"Stims/Figures/19-C-20-4.bmp\",\"fafasha\",\"Up\",\"38\",\"3\",\"14\",\"3B\",\"C1\",\"J\",\"46\"
\"\",\"\",\"approach-retreat\",\"50\",\"491316\",\"0.0-50.0\",\"\",\"\",\"1-5\",\"4522\",\"37\",\"1\",\"Training\",\"Stims/Figures/84-J-0-2.bmp\",\"za:sa:za\",\"Right\",\"37\",\"3\",\"15\",\"3B\",\"C2\",\"J\",\"47\"
\"\",\"\",\"approach-retreat\",\"51\",\"497363\",\"0.0-51.0\",\"\",\"\",\"1-5\",\"4537\",\"39\",\"1\",\"Training\",\"Stims/Figures/71-J-0-1.bmp\",\"za:sa:za\",\"Left\",\"39\",\"3\",\"16\",\"3B\",\"C2\",\"J\",\"48\"
\"\",\"\",\"approach-retreat\",\"52\",\"504732\",\"0.0-52.0\",\"\",\"\",\"1-5\",\"5859\",\"39\",\"1\",\"Training\",\"Stims/Figures/94-J-0-2.bmp\",\"za:sa:za\",\"Left\",\"39\",\"4\",\"1\",\"3B\",\"C2\",\"J\",\"49\"
\"\",\"\",\"approach-retreat\",\"53\",\"510529\",\"0.0-53.0\",\"\",\"\",\"1-5\",\"4289\",\"38\",\"1\",\"Training\",\"Stims/Figures/102-J-10-4.bmp\",\"za:sa:za\",\"Down\",\"38\",\"4\",\"2\",\"3B\",\"C2\",\"J\",\"50\"
\"\",\"\",\"approach-retreat\",\"54\",\"516642\",\"0.0-54.0\",\"\",\"\",\"1-5\",\"4604\",\"40\",\"1\",\"Training\",\"Stims/Figures/94-C-20-2.bmp\",\"fafasha\",\"Down\",\"40\",\"4\",\"3\",\"3B\",\"C1\",\"J\",\"51\"
\"\",\"\",\"approach-retreat\",\"55\",\"522760\",\"0.0-55.0\",\"\",\"\",\"1-5\",\"4608\",\"38\",\"1\",\"Training\",\"Stims/Figures/111-J-10-3.bmp\",\"za:sa:za\",\"Down\",\"38\",\"4\",\"4\",\"3B\",\"C2\",\"J\",\"52\"
\"\",\"\",\"approach-retreat\",\"56\",\"529082\",\"0.0-56.0\",\"\",\"\",\"1-5\",\"4811\",\"40\",\"1\",\"Training\",\"Stims/Figures/84-J-0-2.bmp\",\"za:sa:za\",\"Up\",\"40\",\"4\",\"5\",\"3B\",\"C2\",\"J\",\"53\"
\"\",\"\",\"approach-retreat\",\"57\",\"534837\",\"0.0-57.0\",\"\",\"\",\"1-5\",\"4244\",\"40\",\"1\",\"Training\",\"Stims/Figures/71-C-30-1.bmp\",\"fafasha\",\"Down\",\"40\",\"4\",\"6\",\"3B\",\"C1\",\"J\",\"54\"
\"\",\"\",\"approach-retreat\",\"58\",\"540779\",\"0.0-58.0\",\"\",\"\",\"1-5\",\"4432\",\"37\",\"1\",\"Training\",\"Stims/Figures/111-C-30-3.bmp\",\"fafasha\",\"Left\",\"37\",\"4\",\"7\",\"3B\",\"C1\",\"J\",\"55\"
\"\",\"\",\"approach-retreat\",\"59\",\"547166\",\"0.0-59.0\",\"\",\"\",\"1-5\",\"4877\",\"40\",\"1\",\"Training\",\"Stims/Figures/44-J-10-3.bmp\",\"za:sa:za\",\"Up\",\"40\",\"4\",\"8\",\"3B\",\"C2\",\"J\",\"56\"
\"\",\"\",\"approach-retreat\",\"60\",\"553030\",\"0.0-60.0\",\"\",\"\",\"1-5\",\"4354\",\"39\",\"1\",\"Training\",\"Stims/Figures/84-C-20-2.bmp\",\"fafasha\",\"Right\",\"39\",\"4\",\"9\",\"3B\",\"C1\",\"J\",\"57\"
\"\",\"\",\"approach-retreat\",\"61\",\"558955\",\"0.0-61.0\",\"\",\"\",\"1-5\",\"4414\",\"40\",\"1\",\"Training\",\"Stims/Figures/57-J-0-1.bmp\",\"za:sa:za\",\"Up\",\"40\",\"4\",\"10\",\"3B\",\"C2\",\"J\",\"58\"
\"\",\"\",\"approach-retreat\",\"62\",\"564988\",\"0.0-62.0\",\"\",\"\",\"1-5\",\"4523\",\"37\",\"1\",\"Training\",\"Stims/Figures/57-C-30-1.bmp\",\"fafasha\",\"Left\",\"37\",\"4\",\"11\",\"3B\",\"C1\",\"J\",\"59\"
\"\",\"\",\"approach-retreat\",\"63\",\"570946\",\"0.0-63.0\",\"\",\"\",\"1-5\",\"4446\",\"39\",\"1\",\"Training\",\"Stims/Figures/102-C-20-4.bmp\",\"fafasha\",\"Right\",\"39\",\"4\",\"12\",\"3B\",\"C1\",\"J\",\"60\"
\"\",\"\",\"approach-retreat\",\"64\",\"576931\",\"0.0-64.0\",\"\",\"\",\"1-5\",\"4475\",\"40\",\"1\",\"Training\",\"Stims/Figures/19-J-10-4.bmp\",\"za:sa:za\",\"Up\",\"40\",\"4\",\"13\",\"3B\",\"C2\",\"J\",\"61\"
\"\",\"\",\"approach-retreat\",\"65\",\"583810\",\"0.0-65.0\",\"\",\"\",\"1-5\",\"5368\",\"39\",\"1\",\"Training\",\"Stims/Figures/71-J-0-1.bmp\",\"za:sa:za\",\"Left\",\"39\",\"4\",\"14\",\"3B\",\"C2\",\"J\",\"62\"
\"\",\"\",\"approach-retreat\",\"66\",\"590146\",\"0.0-66.0\",\"\",\"\",\"1-5\",\"4827\",\"39\",\"1\",\"Training\",\"Stims/Figures/19-C-20-4.bmp\",\"fafasha\",\"Right\",\"39\",\"4\",\"15\",\"3B\",\"C1\",\"J\",\"63\"
\"\",\"\",\"approach-retreat\",\"67\",\"596415\",\"0.0-67.0\",\"\",\"\",\"1-5\",\"4757\",\"39\",\"1\",\"Training\",\"Stims/Figures/44-C-30-3.bmp\",\"fafasha\",\"Right\",\"39\",\"4\",\"16\",\"3B\",\"C1\",\"J\",\"64\"
\"\",\"\",\"approach-retreat\",\"68\",\"602473\",\"0.0-68.0\",\"\",\"\",\"1-5\",\"4550\",\"40\",\"1\",\"Training\",\"Stims/Figures/84-J-0-2.bmp\",\"za:sa:za\",\"Up\",\"40\",\"5\",\"1\",\"3B\",\"C2\",\"J\",\"65\"
\"\",\"\",\"approach-retreat\",\"69\",\"609002\",\"0.0-69.0\",\"\",\"\",\"1-5\",\"5019\",\"40\",\"1\",\"Training\",\"Stims/Figures/102-C-20-4.bmp\",\"fafasha\",\"Down\",\"40\",\"5\",\"2\",\"3B\",\"C1\",\"J\",\"66\"
\"\",\"\",\"approach-retreat\",\"70\",\"617532\",\"0.0-70.0\",\"\",\"\",\"1-5\",\"7020\",\"37\",\"1\",\"Training\",\"Stims/Figures/71-J-0-1.bmp\",\"za:sa:za\",\"Right\",\"37\",\"5\",\"3\",\"3B\",\"C2\",\"J\",\"67\"
\"\",\"\",\"approach-retreat\",\"71\",\"623950\",\"0.0-71.0\",\"\",\"\",\"1-5\",\"4909\",\"37\",\"1\",\"Training\",\"Stims/Figures/111-C-30-3.bmp\",\"fafasha\",\"Left\",\"37\",\"5\",\"4\",\"3B\",\"C1\",\"J\",\"68\"
\"\",\"\",\"approach-retreat\",\"72\",\"630719\",\"0.0-72.0\",\"\",\"\",\"1-5\",\"5259\",\"37\",\"1\",\"Training\",\"Stims/Figures/102-J-10-4.bmp\",\"za:sa:za\",\"Right\",\"37\",\"5\",\"5\",\"3B\",\"C2\",\"J\",\"69\"
\"\",\"\",\"approach-retreat\",\"73\",\"636818\",\"0.0-73.0\",\"\",\"\",\"1-5\",\"4592\",\"37\",\"1\",\"Training\",\"Stims/Figures/57-C-30-1.bmp\",\"fafasha\",\"Left\",\"37\",\"5\",\"6\",\"3B\",\"C1\",\"J\",\"70\"
\"\",\"\",\"approach-retreat\",\"74\",\"643080\",\"0.0-74.0\",\"\",\"\",\"1-5\",\"4750\",\"40\",\"1\",\"Training\",\"Stims/Figures/94-C-20-2.bmp\",\"fafasha\",\"Down\",\"40\",\"5\",\"7\",\"3B\",\"C1\",\"J\",\"71\"
\"\",\"\",\"approach-retreat\",\"75\",\"649362\",\"0.0-75.0\",\"\",\"\",\"1-5\",\"4772\",\"37\",\"1\",\"Training\",\"Stims/Figures/71-C-30-1.bmp\",\"fafasha\",\"Left\",\"37\",\"5\",\"8\",\"3B\",\"C1\",\"J\",\"72\"
\"\",\"\",\"approach-retreat\",\"76\",\"655080\",\"0.0-76.0\",\"\",\"\",\"1-5\",\"4209\",\"38\",\"1\",\"Training\",\"Stims/Figures/44-C-30-3.bmp\",\"fafasha\",\"Up\",\"38\",\"5\",\"9\",\"3B\",\"C1\",\"J\",\"73\"
\"\",\"\",\"approach-retreat\",\"77\",\"661008\",\"0.0-77.0\",\"\",\"\",\"1-5\",\"4416\",\"40\",\"1\",\"Training\",\"Stims/Figures/84-C-20-2.bmp\",\"fafasha\",\"Down\",\"40\",\"5\",\"10\",\"3B\",\"C1\",\"J\",\"74\"
\"\",\"\",\"approach-retreat\",\"78\",\"667295\",\"0.0-78.0\",\"\",\"\",\"1-5\",\"4775\",\"38\",\"1\",\"Training\",\"Stims/Figures/44-J-10-3.bmp\",\"za:sa:za\",\"Down\",\"38\",\"5\",\"11\",\"3B\",\"C2\",\"J\",\"75\"
\"\",\"\",\"approach-retreat\",\"79\",\"673205\",\"0.0-79.0\",\"\",\"\",\"1-5\",\"4401\",\"40\",\"1\",\"Training\",\"Stims/Figures/57-J-0-1.bmp\",\"za:sa:za\",\"Up\",\"40\",\"5\",\"12\",\"3B\",\"C2\",\"J\",\"76\"
\"\",\"\",\"approach-retreat\",\"80\",\"679019\",\"0.0-80.0\",\"\",\"\",\"1-5\",\"4299\",\"39\",\"1\",\"Training\",\"Stims/Figures/19-C-20-4.bmp\",\"fafasha\",\"Right\",\"39\",\"5\",\"13\",\"3B\",\"C1\",\"J\",\"77\"
\"\",\"\",\"approach-retreat\",\"81\",\"685144\",\"0.0-81.0\",\"\",\"\",\"1-5\",\"4615\",\"39\",\"1\",\"Training\",\"Stims/Figures/94-J-0-2.bmp\",\"za:sa:za\",\"Left\",\"39\",\"5\",\"14\",\"3B\",\"C2\",\"J\",\"78\"
\"\",\"\",\"approach-retreat\",\"82\",\"691120\",\"0.0-82.0\",\"\",\"\",\"1-5\",\"4465\",\"37\",\"1\",\"Training\",\"Stims/Figures/19-J-10-4.bmp\",\"za:sa:za\",\"Right\",\"37\",\"5\",\"15\",\"3B\",\"C2\",\"J\",\"79\"
\"\",\"\",\"approach-retreat\",\"83\",\"697542\",\"0.0-83.0\",\"\",\"\",\"1-5\",\"4911\",\"40\",\"1\",\"Training\",\"Stims/Figures/111-J-10-3.bmp\",\"za:sa:za\",\"Up\",\"40\",\"5\",\"16\",\"3B\",\"C2\",\"J\",\"80\"
\"\",\"\",\"approach-retreat\",\"84\",\"703215\",\"0.0-84.0\",\"\",\"\",\"1-5\",\"4158\",\"39\",\"1\",\"Training\",\"Stims/Figures/84-C-20-2.bmp\",\"fafasha\",\"Right\",\"39\",\"6\",\"1\",\"3B\",\"C1\",\"J\",\"81\"
\"\",\"\",\"approach-retreat\",\"85\",\"709292\",\"0.0-85.0\",\"\",\"\",\"1-5\",\"4569\",\"40\",\"1\",\"Training\",\"Stims/Figures/44-J-10-3.bmp\",\"za:sa:za\",\"Up\",\"40\",\"6\",\"2\",\"3B\",\"C2\",\"J\",\"82\"
\"\",\"\",\"approach-retreat\",\"86\",\"715756\",\"0.0-86.0\",\"\",\"\",\"1-5\",\"4954\",\"37\",\"1\",\"Training\",\"Stims/Figures/57-J-0-1.bmp\",\"za:sa:za\",\"Right\",\"37\",\"6\",\"3\",\"3B\",\"C2\",\"J\",\"83\"
\"\",\"\",\"approach-retreat\",\"87\",\"721630\",\"0.0-87.0\",\"\",\"\",\"1-5\",\"4363\",\"39\",\"1\",\"Training\",\"Stims/Figures/111-J-10-3.bmp\",\"za:sa:za\",\"Left\",\"39\",\"6\",\"4\",\"3B\",\"C2\",\"J\",\"84\"
\"\",\"\",\"approach-retreat\",\"88\",\"727986\",\"0.0-88.0\",\"\",\"\",\"1-5\",\"4852\",\"38\",\"1\",\"Training\",\"Stims/Figures/71-J-0-1.bmp\",\"za:sa:za\",\"Down\",\"38\",\"6\",\"5\",\"3B\",\"C2\",\"J\",\"85\"
\"\",\"\",\"approach-retreat\",\"89\",\"734287\",\"0.0-89.0\",\"\",\"\",\"1-5\",\"4789\",\"38\",\"1\",\"Training\",\"Stims/Figures/102-C-20-4.bmp\",\"fafasha\",\"Up\",\"38\",\"6\",\"6\",\"3B\",\"C1\",\"J\",\"86\"
\"\",\"\",\"approach-retreat\",\"90\",\"740138\",\"0.0-90.0\",\"\",\"\",\"1-5\",\"4338\",\"39\",\"1\",\"Training\",\"Stims/Figures/44-C-30-3.bmp\",\"fafasha\",\"Right\",\"39\",\"6\",\"7\",\"3B\",\"C1\",\"J\",\"87\"
\"\",\"\",\"approach-retreat\",\"91\",\"746060\",\"0.0-91.0\",\"\",\"\",\"1-5\",\"4412\",\"38\",\"1\",\"Training\",\"Stims/Figures/94-J-0-2.bmp\",\"za:sa:za\",\"Down\",\"38\",\"6\",\"8\",\"3B\",\"C2\",\"J\",\"88\"
\"\",\"\",\"approach-retreat\",\"92\",\"751953\",\"0.0-92.0\",\"\",\"\",\"1-5\",\"4382\",\"40\",\"1\",\"Training\",\"Stims/Figures/102-J-10-4.bmp\",\"za:sa:za\",\"Up\",\"40\",\"6\",\"9\",\"3B\",\"C2\",\"J\",\"89\"
\"\",\"\",\"approach-retreat\",\"93\",\"758465\",\"0.0-93.0\",\"\",\"\",\"1-5\",\"5000\",\"37\",\"1\",\"Training\",\"Stims/Figures/111-C-30-3.bmp\",\"fafasha\",\"Left\",\"37\",\"6\",\"10\",\"3B\",\"C1\",\"J\",\"90\"
\"\",\"\",\"approach-retreat\",\"94\",\"764509\",\"0.0-94.0\",\"\",\"\",\"1-5\",\"4534\",\"38\",\"1\",\"Training\",\"Stims/Figures/84-J-0-2.bmp\",\"za:sa:za\",\"Down\",\"38\",\"6\",\"11\",\"3B\",\"C2\",\"J\",\"91\"
\"\",\"\",\"approach-retreat\",\"95\",\"770827\",\"0.0-95.0\",\"\",\"\",\"1-5\",\"4808\",\"39\",\"1\",\"Training\",\"Stims/Figures/19-C-20-4.bmp\",\"fafasha\",\"Right\",\"39\",\"6\",\"12\",\"3B\",\"C1\",\"J\",\"92\"
\"\",\"\",\"approach-retreat\",\"96\",\"776405\",\"0.0-96.0\",\"\",\"\",\"1-5\",\"4068\",\"37\",\"1\",\"Training\",\"Stims/Figures/94-C-20-2.bmp\",\"fafasha\",\"Left\",\"37\",\"6\",\"13\",\"3B\",\"C1\",\"J\",\"93\"
\"\",\"\",\"approach-retreat\",\"97\",\"782507\",\"0.0-97.0\",\"\",\"\",\"1-5\",\"4590\",\"37\",\"1\",\"Training\",\"Stims/Figures/71-C-30-1.bmp\",\"fafasha\",\"Left\",\"37\",\"6\",\"14\",\"3B\",\"C1\",\"J\",\"94\"
\"\",\"\",\"approach-retreat\",\"98\",\"788660\",\"0.0-98.0\",\"\",\"\",\"1-5\",\"4641\",\"40\",\"1\",\"Training\",\"Stims/Figures/57-C-30-1.bmp\",\"fafasha\",\"Down\",\"40\",\"6\",\"15\",\"3B\",\"C1\",\"J\",\"95\"
\"\",\"\",\"approach-retreat\",\"99\",\"794818\",\"0.0-99.0\",\"\",\"\",\"1-5\",\"4648\",\"40\",\"1\",\"Training\",\"Stims/Figures/19-J-10-4.bmp\",\"za:sa:za\",\"Up\",\"40\",\"6\",\"16\",\"3B\",\"C2\",\"J\",\"96\"
\"\",\"\",\"approach-retreat\",\"100\",\"800632\",\"0.0-100.0\",\"\",\"\",\"1-5\",\"4304\",\"40\",\"1\",\"Training\",\"Stims/Figures/71-J-0-1.bmp\",\"za:sa:za\",\"Up\",\"40\",\"7\",\"1\",\"3B\",\"C2\",\"J\",\"97\"
\"\",\"\",\"approach-retreat\",\"101\",\"806604\",\"0.0-101.0\",\"\",\"\",\"1-5\",\"4462\",\"39\",\"1\",\"Training\",\"Stims/Figures/111-C-30-3.bmp\",\"fafasha\",\"Right\",\"39\",\"7\",\"2\",\"3B\",\"C1\",\"J\",\"98\"
\"\",\"\",\"approach-retreat\",\"102\",\"812554\",\"0.0-102.0\",\"\",\"\",\"1-5\",\"4437\",\"39\",\"1\",\"Training\",\"Stims/Figures/57-J-0-1.bmp\",\"za:sa:za\",\"Left\",\"39\",\"7\",\"3\",\"3B\",\"C2\",\"J\",\"99\"
\"\",\"\",\"approach-retreat\",\"103\",\"818841\",\"0.0-103.0\",\"\",\"\",\"1-5\",\"4779\",\"38\",\"1\",\"Training\",\"Stims/Figures/44-J-10-3.bmp\",\"za:sa:za\",\"Down\",\"38\",\"7\",\"4\",\"3B\",\"C2\",\"J\",\"100\"
\"\",\"\",\"approach-retreat\",\"104\",\"824833\",\"0.0-104.0\",\"\",\"\",\"1-5\",\"4482\",\"40\",\"1\",\"Training\",\"Stims/Figures/102-J-10-4.bmp\",\"za:sa:za\",\"Up\",\"40\",\"7\",\"5\",\"3B\",\"C2\",\"J\",\"101\"
\"\",\"\",\"approach-retreat\",\"105\",\"830833\",\"0.0-105.0\",\"\",\"\",\"1-5\",\"4491\",\"40\",\"1\",\"Training\",\"Stims/Figures/111-J-10-3.bmp\",\"za:sa:za\",\"Up\",\"40\",\"7\",\"6\",\"3B\",\"C2\",\"J\",\"102\"
\"\",\"\",\"approach-retreat\",\"106\",\"836716\",\"0.0-106.0\",\"\",\"\",\"1-5\",\"4374\",\"39\",\"1\",\"Training\",\"Stims/Figures/44-C-30-3.bmp\",\"fafasha\",\"Right\",\"39\",\"7\",\"7\",\"3B\",\"C1\",\"J\",\"103\"
\"\",\"\",\"approach-retreat\",\"107\",\"843102\",\"0.0-107.0\",\"\",\"\",\"1-5\",\"4875\",\"39\",\"1\",\"Training\",\"Stims/Figures/94-J-0-2.bmp\",\"za:sa:za\",\"Left\",\"39\",\"7\",\"8\",\"3B\",\"C2\",\"J\",\"104\"
\"\",\"\",\"approach-retreat\",\"108\",\"849420\",\"0.0-108.0\",\"\",\"\",\"1-5\",\"4811\",\"40\",\"1\",\"Training\",\"Stims/Figures/71-C-30-1.bmp\",\"fafasha\",\"Down\",\"40\",\"7\",\"9\",\"3B\",\"C1\",\"J\",\"105\"
\"\",\"\",\"approach-retreat\",\"109\",\"855517\",\"0.0-109.0\",\"\",\"\",\"1-5\",\"4590\",\"37\",\"1\",\"Training\",\"Stims/Figures/94-C-20-2.bmp\",\"fafasha\",\"Left\",\"37\",\"7\",\"10\",\"3B\",\"C1\",\"J\",\"106\"
\"\",\"\",\"approach-retreat\",\"110\",\"861800\",\"0.0-110.0\",\"\",\"\",\"1-5\",\"4772\",\"38\",\"1\",\"Training\",\"Stims/Figures/102-C-20-4.bmp\",\"fafasha\",\"Up\",\"38\",\"7\",\"11\",\"3B\",\"C1\",\"J\",\"107\"
\"\",\"\",\"approach-retreat\",\"111\",\"867750\",\"0.0-111.0\",\"\",\"\",\"1-5\",\"4438\",\"40\",\"1\",\"Training\",\"Stims/Figures/19-C-20-4.bmp\",\"fafasha\",\"Down\",\"40\",\"7\",\"12\",\"3B\",\"C1\",\"J\",\"108\"
\"\",\"\",\"approach-retreat\",\"112\",\"874044\",\"0.0-112.0\",\"\",\"\",\"1-5\",\"4783\",\"38\",\"1\",\"Training\",\"Stims/Figures/19-J-10-4.bmp\",\"za:sa:za\",\"Down\",\"38\",\"7\",\"13\",\"3B\",\"C2\",\"J\",\"109\"
\"\",\"\",\"approach-retreat\",\"113\",\"880383\",\"0.0-113.0\",\"\",\"\",\"1-5\",\"4830\",\"39\",\"1\",\"Training\",\"Stims/Figures/57-C-30-1.bmp\",\"fafasha\",\"Right\",\"39\",\"7\",\"14\",\"3B\",\"C1\",\"J\",\"110\"
\"\",\"\",\"approach-retreat\",\"114\",\"886487\",\"0.0-114.0\",\"\",\"\",\"1-5\",\"4594\",\"37\",\"1\",\"Training\",\"Stims/Figures/84-C-20-2.bmp\",\"fafasha\",\"Left\",\"37\",\"7\",\"15\",\"3B\",\"C1\",\"J\",\"111\"
\"\",\"\",\"approach-retreat\",\"115\",\"892801\",\"0.0-115.0\",\"\",\"\",\"1-5\",\"4803\",\"37\",\"1\",\"Training\",\"Stims/Figures/84-J-0-2.bmp\",\"za:sa:za\",\"Right\",\"37\",\"7\",\"16\",\"3B\",\"C2\",\"J\",\"112\"
\"\",\"\",\"approach-retreat\",\"116\",\"899073\",\"0.0-116.0\",\"\",\"\",\"1-5\",\"4762\",\"38\",\"1\",\"Training\",\"Stims/Figures/57-J-0-1.bmp\",\"za:sa:za\",\"Down\",\"38\",\"8\",\"1\",\"3B\",\"C2\",\"J\",\"113\"
\"\",\"\",\"approach-retreat\",\"117\",\"905548\",\"0.0-117.0\",\"\",\"\",\"1-5\",\"4964\",\"37\",\"1\",\"Training\",\"Stims/Figures/94-J-0-2.bmp\",\"za:sa:za\",\"Right\",\"37\",\"8\",\"2\",\"3B\",\"C2\",\"J\",\"114\"
\"\",\"\",\"approach-retreat\",\"118\",\"911422\",\"0.0-118.0\",\"\",\"\",\"1-5\",\"4363\",\"39\",\"1\",\"Training\",\"Stims/Figures/84-C-20-2.bmp\",\"fafasha\",\"Right\",\"39\",\"8\",\"3\",\"3B\",\"C1\",\"J\",\"115\"
\"\",\"\",\"approach-retreat\",\"119\",\"917490\",\"0.0-119.0\",\"\",\"\",\"1-5\",\"4557\",\"37\",\"1\",\"Training\",\"Stims/Figures/84-J-0-2.bmp\",\"za:sa:za\",\"Right\",\"37\",\"8\",\"4\",\"3B\",\"C2\",\"J\",\"116\"
\"\",\"\",\"approach-retreat\",\"120\",\"923443\",\"0.0-120.0\",\"\",\"\",\"1-5\",\"4443\",\"38\",\"1\",\"Training\",\"Stims/Figures/71-C-30-1.bmp\",\"fafasha\",\"Up\",\"38\",\"8\",\"5\",\"3B\",\"C1\",\"J\",\"117\"
\"\",\"\",\"approach-retreat\",\"121\",\"929418\",\"0.0-121.0\",\"\",\"\",\"1-5\",\"4461\",\"40\",\"1\",\"Training\",\"Stims/Figures/19-C-20-4.bmp\",\"fafasha\",\"Down\",\"40\",\"8\",\"6\",\"3B\",\"C1\",\"J\",\"118\"
\"\",\"\",\"approach-retreat\",\"122\",\"935437\",\"0.0-122.0\",\"\",\"\",\"1-5\",\"4511\",\"39\",\"1\",\"Training\",\"Stims/Figures/44-J-10-3.bmp\",\"za:sa:za\",\"Left\",\"39\",\"8\",\"7\",\"3B\",\"C2\",\"J\",\"119\"
\"\",\"\",\"approach-retreat\",\"123\",\"941852\",\"0.0-123.0\",\"\",\"\",\"1-5\",\"4909\",\"37\",\"1\",\"Training\",\"Stims/Figures/102-J-10-4.bmp\",\"za:sa:za\",\"Right\",\"37\",\"8\",\"8\",\"3B\",\"C2\",\"J\",\"120\"
\"\",\"\",\"approach-retreat\",\"124\",\"947781\",\"0.0-124.0\",\"\",\"\",\"1-5\",\"4416\",\"40\",\"1\",\"Training\",\"Stims/Figures/71-J-0-1.bmp\",\"za:sa:za\",\"Up\",\"40\",\"8\",\"9\",\"3B\",\"C2\",\"J\",\"121\"
\"\",\"\",\"approach-retreat\",\"125\",\"953745\",\"0.0-125.0\",\"\",\"\",\"1-5\",\"4454\",\"38\",\"1\",\"Training\",\"Stims/Figures/94-C-20-2.bmp\",\"fafasha\",\"Up\",\"38\",\"8\",\"10\",\"3B\",\"C1\",\"J\",\"122\"
\"\",\"\",\"approach-retreat\",\"126\",\"959342\",\"0.0-126.0\",\"\",\"\",\"1-5\",\"4087\",\"37\",\"1\",\"Training\",\"Stims/Figures/44-C-30-3.bmp\",\"fafasha\",\"Left\",\"37\",\"8\",\"11\",\"3B\",\"C1\",\"J\",\"123\"
\"\",\"\",\"approach-retreat\",\"127\",\"965477\",\"0.0-127.0\",\"\",\"\",\"1-5\",\"4627\",\"39\",\"1\",\"Training\",\"Stims/Figures/111-J-10-3.bmp\",\"za:sa:za\",\"Left\",\"39\",\"8\",\"12\",\"3B\",\"C2\",\"J\",\"124\"
\"\",\"\",\"approach-retreat\",\"128\",\"971338\",\"0.0-128.0\",\"\",\"\",\"1-5\",\"4351\",\"40\",\"1\",\"Training\",\"Stims/Figures/102-C-20-4.bmp\",\"fafasha\",\"Down\",\"40\",\"8\",\"13\",\"3B\",\"C1\",\"J\",\"125\"
\"\",\"\",\"approach-retreat\",\"129\",\"977717\",\"0.0-129.0\",\"\",\"\",\"1-5\",\"4869\",\"38\",\"1\",\"Training\",\"Stims/Figures/19-J-10-4.bmp\",\"za:sa:za\",\"Down\",\"38\",\"8\",\"14\",\"3B\",\"C2\",\"J\",\"126\"
\"\",\"\",\"approach-retreat\",\"130\",\"983890\",\"0.0-130.0\",\"\",\"\",\"1-5\",\"4662\",\"38\",\"1\",\"Training\",\"Stims/Figures/111-C-30-3.bmp\",\"fafasha\",\"Up\",\"38\",\"8\",\"15\",\"3B\",\"C1\",\"J\",\"127\"
\"\",\"\",\"approach-retreat\",\"131\",\"990041\",\"0.0-131.0\",\"\",\"\",\"1-5\",\"4641\",\"37\",\"1\",\"Training\",\"Stims/Figures/57-C-30-1.bmp\",\"fafasha\",\"Left\",\"37\",\"8\",\"16\",\"3B\",\"C1\",\"J\",\"128\"
\"\",\"\",\"approach-retreat\",\"132\",\"995783\",\"0.0-132.0\",\"\",\"\",\"1-5\",\"4230\",\"37\",\"1\",\"Training\",\"Stims/Figures/84-C-20-2.bmp\",\"fafasha\",\"Left\",\"37\",\"9\",\"1\",\"3B\",\"C1\",\"J\",\"129\"
\"\",\"\",\"approach-retreat\",\"133\",\"1001545\",\"0.0-133.0\",\"\",\"\",\"1-5\",\"4249\",\"38\",\"1\",\"Training\",\"Stims/Figures/94-C-20-2.bmp\",\"fafasha\",\"Up\",\"38\",\"9\",\"2\",\"3B\",\"C1\",\"J\",\"130\"
\"\",\"\",\"approach-retreat\",\"134\",\"1007405\",\"0.0-134.0\",\"\",\"\",\"1-5\",\"4348\",\"40\",\"1\",\"Training\",\"Stims/Figures/111-C-30-3.bmp\",\"fafasha\",\"Down\",\"40\",\"9\",\"3\",\"3B\",\"C1\",\"J\",\"131\"
\"\",\"\",\"approach-retreat\",\"135\",\"1013564\",\"0.0-135.0\",\"\",\"\",\"1-5\",\"4650\",\"37\",\"1\",\"Training\",\"Stims/Figures/94-J-0-2.bmp\",\"za:sa:za\",\"Right\",\"37\",\"9\",\"4\",\"3B\",\"C2\",\"J\",\"132\"
\"\",\"\",\"approach-retreat\",\"136\",\"1019608\",\"0.0-136.0\",\"\",\"\",\"1-5\",\"4536\",\"39\",\"1\",\"Training\",\"Stims/Figures/57-C-30-1.bmp\",\"fafasha\",\"Right\",\"39\",\"9\",\"5\",\"3B\",\"C1\",\"J\",\"133\"
\"\",\"\",\"approach-retreat\",\"137\",\"1025525\",\"0.0-137.0\",\"\",\"\",\"1-5\",\"4407\",\"39\",\"1\",\"Training\",\"Stims/Figures/71-C-30-1.bmp\",\"fafasha\",\"Right\",\"39\",\"9\",\"6\",\"3B\",\"C1\",\"J\",\"134\"
\"\",\"\",\"approach-retreat\",\"138\",\"1031516\",\"0.0-138.0\",\"\",\"\",\"1-5\",\"4479\",\"39\",\"1\",\"Training\",\"Stims/Figures/19-J-10-4.bmp\",\"za:sa:za\",\"Left\",\"39\",\"9\",\"7\",\"3B\",\"C2\",\"J\",\"135\"
\"\",\"\",\"approach-retreat\",\"139\",\"1037297\",\"0.0-139.0\",\"\",\"\",\"1-5\",\"4274\",\"38\",\"1\",\"Training\",\"Stims/Figures/57-J-0-1.bmp\",\"za:sa:za\",\"Down\",\"38\",\"9\",\"8\",\"3B\",\"C2\",\"J\",\"136\"
\"\",\"\",\"approach-retreat\",\"140\",\"1043147\",\"0.0-140.0\",\"\",\"\",\"1-5\",\"4338\",\"40\",\"1\",\"Training\",\"Stims/Figures/44-J-10-3.bmp\",\"za:sa:za\",\"Up\",\"40\",\"9\",\"9\",\"3B\",\"C2\",\"J\",\"137\"
\"\",\"\",\"approach-retreat\",\"141\",\"1048999\",\"0.0-141.0\",\"\",\"\",\"1-5\",\"4340\",\"40\",\"1\",\"Training\",\"Stims/Figures/44-C-30-3.bmp\",\"fafasha\",\"Down\",\"40\",\"9\",\"10\",\"3B\",\"C1\",\"J\",\"138\"
\"\",\"\",\"approach-retreat\",\"142\",\"1055195\",\"0.0-142.0\",\"\",\"\",\"1-5\",\"4685\",\"39\",\"1\",\"Training\",\"Stims/Figures/111-J-10-3.bmp\",\"za:sa:za\",\"Left\",\"39\",\"9\",\"11\",\"3B\",\"C2\",\"J\",\"139\"
\"\",\"\",\"approach-retreat\",\"143\",\"1061558\",\"0.0-143.0\",\"\",\"\",\"1-5\",\"4858\",\"38\",\"1\",\"Training\",\"Stims/Figures/19-C-20-4.bmp\",\"fafasha\",\"Up\",\"38\",\"9\",\"12\",\"3B\",\"C1\",\"J\",\"140\"
\"\",\"\",\"approach-retreat\",\"144\",\"1067671\",\"0.0-144.0\",\"\",\"\",\"1-5\",\"4601\",\"40\",\"1\",\"Training\",\"Stims/Figures/71-J-0-1.bmp\",\"za:sa:za\",\"Up\",\"40\",\"9\",\"13\",\"3B\",\"C2\",\"J\",\"141\"
\"\",\"\",\"approach-retreat\",\"145\",\"1073826\",\"0.0-145.0\",\"\",\"\",\"1-5\",\"4647\",\"39\",\"1\",\"Training\",\"Stims/Figures/84-J-0-2.bmp\",\"za:sa:za\",\"Left\",\"39\",\"9\",\"14\",\"3B\",\"C2\",\"J\",\"142\"
\"\",\"\",\"approach-retreat\",\"146\",\"1080062\",\"0.0-146.0\",\"\",\"\",\"1-5\",\"4723\",\"40\",\"1\",\"Training\",\"Stims/Figures/102-C-20-4.bmp\",\"fafasha\",\"Down\",\"40\",\"9\",\"15\",\"3B\",\"C1\",\"J\",\"143\"
\"\",\"\",\"approach-retreat\",\"147\",\"1085703\",\"0.0-147.0\",\"\",\"\",\"1-5\",\"4130\",\"37\",\"1\",\"Training\",\"Stims/Figures/102-J-10-4.bmp\",\"za:sa:za\",\"Right\",\"37\",\"9\",\"16\",\"3B\",\"C2\",\"J\",\"144\"
\"17395\",\"\",\"instructions\",\"148\",\"1103098\",\"0.0-148.0\",\"[{\"\"page_index\"\":0,\"\"viewing_time\"\":17394}]\",\"\",\"\",\"\",\"\",\"\",\"\",\"\",\"\",\"\",\"\",\"\",\"\",\"\",\"\",\"\",\"\"
\"\",\"\",\"approach-retreat\",\"149\",\"1111422\",\"0.0-149.0\",\"\",\"\",\"1-5\",\"6816\",\"40\",\"0\",\"Testing\",\"Stims/Figures/87-C-20-4.bmp\",\"fafasha\",\"Up\",\"38\",\"1\",\"1\",\"3B\",\"C1\",\"J\",\"1\"
\"\",\"\",\"approach-retreat\",\"150\",\"1121309\",\"0.0-150.0\",\"\",\"\",\"1-5\",\"8379\",\"39\",\"0\",\"Testing\",\"Stims/Figures/19-J-10-4.bmp\",\"za:sa:za\",\"Right\",\"37\",\"1\",\"2\",\"3B\",\"C2\",\"J\",\"2\"
\"\",\"\",\"approach-retreat\",\"151\",\"1132204\",\"0.0-151.0\",\"\",\"\",\"1-5\",\"9385\",\"40\",\"0\",\"Testing\",\"Stims/Figures/85-C-20-2.bmp\",\"fafasha\",\"Up\",\"38\",\"1\",\"3\",\"3B\",\"C1\",\"J\",\"3\"
\"\",\"\",\"approach-retreat\",\"152\",\"1140542\",\"0.0-152.0\",\"\",\"\",\"1-5\",\"6828\",\"40\",\"1\",\"Testing\",\"Stims/Figures/94-C-20-2.bmp\",\"fafasha\",\"Down\",\"40\",\"1\",\"4\",\"3B\",\"C1\",\"J\",\"4\"
\"\",\"\",\"approach-retreat\",\"153\",\"1147335\",\"0.0-153.0\",\"\",\"\",\"1-5\",\"5285\",\"39\",\"1\",\"Testing\",\"Stims/Figures/84-J-0-2.bmp\",\"za:sa:za\",\"Left\",\"39\",\"1\",\"5\",\"3B\",\"C2\",\"J\",\"5\"
\"\",\"\",\"approach-retreat\",\"154\",\"1154337\",\"0.0-154.0\",\"\",\"\",\"1-5\",\"5492\",\"38\",\"0\",\"Testing\",\"Stims/Figures/100-J-10-3.bmp\",\"za:sa:za\",\"Up\",\"40\",\"1\",\"6\",\"3B\",\"C2\",\"J\",\"6\"
\"\",\"\",\"approach-retreat\",\"155\",\"1160198\",\"0.0-155.0\",\"\",\"\",\"1-5\",\"4351\",\"37\",\"0\",\"Testing\",\"Stims/Figures/71-J-0-1.bmp\",\"za:sa:za\",\"Left\",\"39\",\"1\",\"7\",\"3B\",\"C2\",\"J\",\"7\"
\"\",\"\",\"approach-retreat\",\"156\",\"1166038\",\"0.0-156.0\",\"\",\"\",\"1-5\",\"4333\",\"37\",\"1\",\"Testing\",\"Stims/Figures/102-J-10-4.bmp\",\"za:sa:za\",\"Right\",\"37\",\"1\",\"8\",\"3B\",\"C2\",\"J\",\"8\"
\"\",\"\",\"approach-retreat\",\"157\",\"1173150\",\"0.0-157.0\",\"\",\"\",\"1-5\",\"5605\",\"37\",\"0\",\"Testing\",\"Stims/Figures/111-C-30-3.bmp\",\"fafasha\",\"Right\",\"39\",\"1\",\"9\",\"3B\",\"C1\",\"J\",\"9\"
\"\",\"\",\"approach-retreat\",\"158\",\"1180492\",\"0.0-158.0\",\"\",\"\",\"1-5\",\"5832\",\"40\",\"0\",\"Testing\",\"Stims/Figures/85-J-0-2.bmp\",\"za:sa:za\",\"Down\",\"38\",\"1\",\"10\",\"3B\",\"C2\",\"J\",\"10\"
\"\",\"\",\"approach-retreat\",\"159\",\"1188339\",\"0.0-159.0\",\"\",\"\",\"1-5\",\"6337\",\"38\",\"0\",\"Testing\",\"Stims/Figures/94-J-0-2.bmp\",\"za:sa:za\",\"Up\",\"40\",\"1\",\"11\",\"3B\",\"C2\",\"J\",\"11\"
\"\",\"\",\"approach-retreat\",\"160\",\"1194342\",\"0.0-160.0\",\"\",\"\",\"1-5\",\"4495\",\"38\",\"1\",\"Testing\",\"Stims/Figures/71-C-30-1.bmp\",\"fafasha\",\"Up\",\"38\",\"1\",\"12\",\"3B\",\"C1\",\"J\",\"12\"
\"\",\"\",\"approach-retreat\",\"161\",\"1200899\",\"0.0-161.0\",\"\",\"\",\"1-5\",\"5048\",\"38\",\"0\",\"Testing\",\"Stims/Figures/100-C-30-3.bmp\",\"fafasha\",\"Down\",\"40\",\"1\",\"13\",\"3B\",\"C1\",\"J\",\"13\"
\"\",\"\",\"approach-retreat\",\"162\",\"1206947\",\"0.0-162.0\",\"\",\"\",\"1-5\",\"4538\",\"39\",\"0\",\"Testing\",\"Stims/Figures/86-C-30-1.bmp\",\"fafasha\",\"Left\",\"37\",\"1\",\"14\",\"3B\",\"C1\",\"J\",\"14\"
\"\",\"\",\"approach-retreat\",\"163\",\"1213344\",\"0.0-163.0\",\"\",\"\",\"1-5\",\"4887\",\"37\",\"1\",\"Testing\",\"Stims/Figures/44-J-10-3.bmp\",\"za:sa:za\",\"Right\",\"37\",\"1\",\"15\",\"3B\",\"C2\",\"J\",\"15\"
\"\",\"\",\"approach-retreat\",\"164\",\"1219389\",\"0.0-164.0\",\"\",\"\",\"1-5\",\"4539\",\"38\",\"1\",\"Testing\",\"Stims/Figures/111-J-10-3.bmp\",\"za:sa:za\",\"Down\",\"38\",\"1\",\"16\",\"3B\",\"C2\",\"J\",\"16\"
\"\",\"\",\"approach-retreat\",\"165\",\"1225491\",\"0.0-165.0\",\"\",\"\",\"1-5\",\"4589\",\"40\",\"0\",\"Testing\",\"Stims/Figures/57-J-0-1.bmp\",\"za:sa:za\",\"Down\",\"38\",\"1\",\"17\",\"3B\",\"C2\",\"J\",\"17\"
\"\",\"\",\"approach-retreat\",\"166\",\"1231816\",\"0.0-166.0\",\"\",\"\",\"1-5\",\"4817\",\"39\",\"0\",\"Testing\",\"Stims/Figures/44-C-30-3.bmp\",\"fafasha\",\"Left\",\"37\",\"1\",\"18\",\"3B\",\"C1\",\"J\",\"18\"
\"\",\"\",\"approach-retreat\",\"167\",\"1237574\",\"0.0-167.0\",\"\",\"\",\"1-5\",\"4243\",\"37\",\"1\",\"Testing\",\"Stims/Figures/102-C-20-4.bmp\",\"fafasha\",\"Left\",\"37\",\"1\",\"19\",\"3B\",\"C1\",\"J\",\"19\"
\"\",\"\",\"approach-retreat\",\"168\",\"1245090\",\"0.0-168.0\",\"\",\"\",\"1-5\",\"6007\",\"40\",\"0\",\"Testing\",\"Stims/Figures/87-J-10-4.bmp\",\"za:sa:za\",\"Down\",\"38\",\"1\",\"20\",\"3B\",\"C2\",\"J\",\"20\"
\"\",\"\",\"approach-retreat\",\"169\",\"1250959\",\"0.0-169.0\",\"\",\"\",\"1-5\",\"4361\",\"39\",\"0\",\"Testing\",\"Stims/Figures/86-J-0-1.bmp\",\"za:sa:za\",\"Right\",\"37\",\"1\",\"21\",\"3B\",\"C2\",\"J\",\"21\"
\"\",\"\",\"approach-retreat\",\"170\",\"1256958\",\"0.0-170.0\",\"\",\"\",\"1-5\",\"4493\",\"37\",\"0\",\"Testing\",\"Stims/Figures/84-C-20-2.bmp\",\"fafasha\",\"Right\",\"39\",\"1\",\"22\",\"3B\",\"C1\",\"J\",\"22\"
\"\",\"\",\"approach-retreat\",\"171\",\"1262975\",\"0.0-171.0\",\"\",\"\",\"1-5\",\"4510\",\"39\",\"0\",\"Testing\",\"Stims/Figures/57-C-30-1.bmp\",\"fafasha\",\"Left\",\"37\",\"1\",\"23\",\"3B\",\"C1\",\"J\",\"23\"
\"\",\"\",\"approach-retreat\",\"172\",\"1268893\",\"0.0-172.0\",\"\",\"\",\"1-5\",\"4407\",\"40\",\"0\",\"Testing\",\"Stims/Figures/19-C-20-4.bmp\",\"fafasha\",\"Up\",\"38\",\"1\",\"24\",\"3B\",\"C1\",\"J\",\"24\"
\"\",\"\",\"approach-retreat\",\"173\",\"1274816\",\"0.0-173.0\",\"\",\"\",\"1-5\",\"4414\",\"40\",\"0\",\"Testing\",\"Stims/Figures/102-C-20-4.bmp\",\"fafasha\",\"Up\",\"38\",\"2\",\"1\",\"3B\",\"C1\",\"J\",\"25\"
\"\",\"\",\"approach-retreat\",\"174\",\"1282481\",\"0.0-174.0\",\"\",\"\",\"1-5\",\"6155\",\"39\",\"0\",\"Testing\",\"Stims/Figures/84-C-20-2.bmp\",\"fafasha\",\"Left\",\"37\",\"2\",\"2\",\"3B\",\"C1\",\"J\",\"26\"
\"\",\"\",\"approach-retreat\",\"175\",\"1288164\",\"0.0-175.0\",\"\",\"\",\"1-5\",\"4171\",\"39\",\"0\",\"Testing\",\"Stims/Figures/86-C-30-1.bmp\",\"fafasha\",\"Left\",\"37\",\"2\",\"3\",\"3B\",\"C1\",\"J\",\"27\"
\"\",\"\",\"approach-retreat\",\"176\",\"1294339\",\"0.0-176.0\",\"\",\"\",\"1-5\",\"4667\",\"39\",\"0\",\"Testing\",\"Stims/Figures/44-J-10-3.bmp\",\"za:sa:za\",\"Right\",\"37\",\"2\",\"4\",\"3B\",\"C2\",\"J\",\"28\"
\"\",\"\",\"approach-retreat\",\"177\",\"1300156\",\"0.0-177.0\",\"\",\"\",\"1-5\",\"4308\",\"37\",\"0\",\"Testing\",\"Stims/Figures/19-J-10-4.bmp\",\"za:sa:za\",\"Left\",\"39\",\"2\",\"5\",\"3B\",\"C2\",\"J\",\"29\"
\"\",\"\",\"approach-retreat\",\"178\",\"1305852\",\"0.0-178.0\",\"\",\"\",\"1-5\",\"4188\",\"39\",\"0\",\"Testing\",\"Stims/Figures/85-J-0-2.bmp\",\"za:sa:za\",\"Right\",\"37\",\"2\",\"6\",\"3B\",\"C2\",\"J\",\"30\"
\"\",\"\",\"approach-retreat\",\"179\",\"1311640\",\"0.0-179.0\",\"\",\"\",\"1-5\",\"4281\",\"39\",\"0\",\"Testing\",\"Stims/Figures/100-J-10-3.bmp\",\"za:sa:za\",\"Right\",\"37\",\"2\",\"7\",\"3B\",\"C2\",\"J\",\"31\"
\"\",\"\",\"approach-retreat\",\"180\",\"1317287\",\"0.0-180.0\",\"\",\"\",\"1-5\",\"4138\",\"39\",\"0\",\"Testing\",\"Stims/Figures/57-J-0-1.bmp\",\"za:sa:za\",\"Right\",\"37\",\"2\",\"8\",\"3B\",\"C2\",\"J\",\"32\"
\"\",\"\",\"approach-retreat\",\"181\",\"1322902\",\"0.0-181.0\",\"\",\"\",\"1-5\",\"4104\",\"37\",\"0\",\"Testing\",\"Stims/Figures/57-C-30-1.bmp\",\"fafasha\",\"Right\",\"39\",\"2\",\"9\",\"3B\",\"C1\",\"J\",\"33\"
\"\",\"\",\"approach-retreat\",\"182\",\"1329740\",\"0.0-182.0\",\"\",\"\",\"1-5\",\"5328\",\"40\",\"1\",\"Testing\",\"Stims/Figures/111-C-30-3.bmp\",\"fafasha\",\"Down\",\"40\",\"2\",\"10\",\"3B\",\"C1\",\"J\",\"34\"
\"\",\"\",\"approach-retreat\",\"183\",\"1337364\",\"0.0-183.0\",\"\",\"\",\"1-5\",\"6114\",\"40\",\"1\",\"Testing\",\"Stims/Figures/71-C-30-1.bmp\",\"fafasha\",\"Down\",\"40\",\"2\",\"11\",\"3B\",\"C1\",\"J\",\"35\"
\"\",\"\",\"approach-retreat\",\"184\",\"1344308\",\"0.0-184.0\",\"\",\"\",\"1-5\",\"5434\",\"37\",\"0\",\"Testing\",\"Stims/Figures/111-J-10-3.bmp\",\"za:sa:za\",\"Left\",\"39\",\"2\",\"12\",\"3B\",\"C2\",\"J\",\"36\"
\"\",\"\",\"approach-retreat\",\"185\",\"1350291\",\"0.0-185.0\",\"\",\"\",\"1-5\",\"4476\",\"40\",\"0\",\"Testing\",\"Stims/Figures/84-J-0-2.bmp\",\"za:sa:za\",\"Down\",\"38\",\"2\",\"13\",\"3B\",\"C2\",\"J\",\"37\"
\"\",\"\",\"approach-retreat\",\"186\",\"1356559\",\"0.0-186.0\",\"\",\"\",\"1-5\",\"4762\",\"40\",\"0\",\"Testing\",\"Stims/Figures/85-C-20-2.bmp\",\"fafasha\",\"Up\",\"38\",\"2\",\"14\",\"3B\",\"C1\",\"J\",\"38\"
\"\",\"\",\"approach-retreat\",\"187\",\"1363243\",\"0.0-187.0\",\"\",\"\",\"1-5\",\"5176\",\"37\",\"0\",\"Testing\",\"Stims/Figures/71-J-0-1.bmp\",\"za:sa:za\",\"Left\",\"39\",\"2\",\"15\",\"3B\",\"C2\",\"J\",\"39\"
\"\",\"\",\"approach-retreat\",\"188\",\"1369560\",\"0.0-188.0\",\"\",\"\",\"1-5\",\"4810\",\"38\",\"0\",\"Testing\",\"Stims/Figures/86-J-0-1.bmp\",\"za:sa:za\",\"Up\",\"40\",\"2\",\"16\",\"3B\",\"C2\",\"J\",\"40\"
\"\",\"\",\"approach-retreat\",\"189\",\"1375652\",\"0.0-189.0\",\"\",\"\",\"1-5\",\"4585\",\"40\",\"0\",\"Testing\",\"Stims/Figures/87-C-20-4.bmp\",\"fafasha\",\"Up\",\"38\",\"2\",\"17\",\"3B\",\"C1\",\"J\",\"41\"
\"\",\"\",\"approach-retreat\",\"190\",\"1382022\",\"0.0-190.0\",\"\",\"\",\"1-5\",\"4859\",\"39\",\"0\",\"Testing\",\"Stims/Figures/94-J-0-2.bmp\",\"za:sa:za\",\"Right\",\"37\",\"2\",\"18\",\"3B\",\"C2\",\"J\",\"42\"
\"\",\"\",\"approach-retreat\",\"191\",\"1388426\",\"0.0-191.0\",\"\",\"\",\"1-5\",\"4895\",\"39\",\"0\",\"Testing\",\"Stims/Figures/44-C-30-3.bmp\",\"fafasha\",\"Left\",\"37\",\"2\",\"19\",\"3B\",\"C1\",\"J\",\"43\"
\"\",\"\",\"approach-retreat\",\"192\",\"1395166\",\"0.0-192.0\",\"\",\"\",\"1-5\",\"5231\",\"40\",\"0\",\"Testing\",\"Stims/Figures/94-C-20-2.bmp\",\"fafasha\",\"Up\",\"38\",\"2\",\"20\",\"3B\",\"C1\",\"J\",\"44\"
\"\",\"\",\"approach-retreat\",\"193\",\"1402162\",\"0.0-193.0\",\"\",\"\",\"1-5\",\"5487\",\"40\",\"0\",\"Testing\",\"Stims/Figures/100-C-30-3.bmp\",\"fafasha\",\"Up\",\"38\",\"2\",\"21\",\"3B\",\"C1\",\"J\",\"45\"
\"\",\"\",\"approach-retreat\",\"194\",\"1409186\",\"0.0-194.0\",\"\",\"\",\"1-5\",\"5518\",\"38\",\"1\",\"Testing\",\"Stims/Figures/87-J-10-4.bmp\",\"za:sa:za\",\"Down\",\"38\",\"2\",\"22\",\"3B\",\"C2\",\"J\",\"46\"
\"\",\"\",\"approach-retreat\",\"195\",\"1415896\",\"0.0-195.0\",\"\",\"\",\"1-5\",\"5200\",\"38\",\"0\",\"Testing\",\"Stims/Figures/19-C-20-4.bmp\",\"fafasha\",\"Down\",\"40\",\"2\",\"23\",\"3B\",\"C1\",\"J\",\"47\"
\"\",\"\",\"approach-retreat\",\"196\",\"1421731\",\"0.0-196.0\",\"\",\"\",\"1-5\",\"4327\",\"40\",\"0\",\"Testing\",\"Stims/Figures/102-J-10-4.bmp\",\"za:sa:za\",\"Down\",\"38\",\"2\",\"24\",\"3B\",\"C2\",\"J\",\"48\"
\"\",\"\",\"approach-retreat\",\"197\",\"1427567\",\"0.0-197.0\",\"\",\"\",\"1-5\",\"4326\",\"38\",\"0\",\"Testing\",\"Stims/Figures/85-C-20-2.bmp\",\"fafasha\",\"Down\",\"40\",\"3\",\"1\",\"3B\",\"C1\",\"J\",\"49\"
\"\",\"\",\"approach-retreat\",\"198\",\"1433429\",\"0.0-198.0\",\"\",\"\",\"1-5\",\"4350\",\"38\",\"0\",\"Testing\",\"Stims/Figures/85-J-0-2.bmp\",\"za:sa:za\",\"Up\",\"40\",\"3\",\"2\",\"3B\",\"C2\",\"J\",\"50\"
\"\",\"\",\"approach-retreat\",\"199\",\"1439616\",\"0.0-199.0\",\"\",\"\",\"1-5\",\"4679\",\"37\",\"0\",\"Testing\",\"Stims/Figures/44-J-10-3.bmp\",\"za:sa:za\",\"Left\",\"39\",\"3\",\"3\",\"3B\",\"C2\",\"J\",\"51\"
\"\",\"\",\"approach-retreat\",\"200\",\"1445439\",\"0.0-200.0\",\"\",\"\",\"1-5\",\"4313\",\"37\",\"0\",\"Testing\",\"Stims/Figures/111-J-10-3.bmp\",\"za:sa:za\",\"Left\",\"39\",\"3\",\"4\",\"3B\",\"C2\",\"J\",\"52\"
\"\",\"\",\"approach-retreat\",\"201\",\"1451688\",\"0.0-201.0\",\"\",\"\",\"1-5\",\"4741\",\"40\",\"0\",\"Testing\",\"Stims/Figures/44-C-30-3.bmp\",\"fafasha\",\"Up\",\"38\",\"3\",\"5\",\"3B\",\"C1\",\"J\",\"53\"
\"\",\"\",\"approach-retreat\",\"202\",\"1457590\",\"0.0-202.0\",\"\",\"\",\"1-5\",\"4394\",\"39\",\"0\",\"Testing\",\"Stims/Figures/102-J-10-4.bmp\",\"za:sa:za\",\"Right\",\"37\",\"3\",\"6\",\"3B\",\"C2\",\"J\",\"54\"
\"\",\"\",\"approach-retreat\",\"203\",\"1465272\",\"0.0-203.0\",\"\",\"\",\"1-5\",\"6173\",\"40\",\"0\",\"Testing\",\"Stims/Figures/57-C-30-1.bmp\",\"fafasha\",\"Up\",\"38\",\"3\",\"7\",\"3B\",\"C1\",\"J\",\"55\"
\"\",\"\",\"approach-retreat\",\"204\",\"1472860\",\"0.0-204.0\",\"\",\"\",\"1-5\",\"6080\",\"39\",\"0\",\"Testing\",\"Stims/Figures/19-C-20-4.bmp\",\"fafasha\",\"Left\",\"37\",\"3\",\"8\",\"3B\",\"C1\",\"J\",\"56\"
\"\",\"\",\"approach-retreat\",\"205\",\"1480310\",\"0.0-205.0\",\"\",\"\",\"1-5\",\"5941\",\"39\",\"0\",\"Testing\",\"Stims/Figures/84-J-0-2.bmp\",\"za:sa:za\",\"Right\",\"37\",\"3\",\"9\",\"3B\",\"C2\",\"J\",\"57\"
\"\",\"\",\"approach-retreat\",\"206\",\"1488283\",\"0.0-206.0\",\"\",\"\",\"1-5\",\"6465\",\"37\",\"0\",\"Testing\",\"Stims/Figures/87-J-10-4.bmp\",\"za:sa:za\",\"Left\",\"39\",\"3\",\"10\",\"3B\",\"C2\",\"J\",\"58\"
\"\",\"\",\"approach-retreat\",\"207\",\"1494136\",\"0.0-207.0\",\"\",\"\",\"1-5\",\"4343\",\"37\",\"0\",\"Testing\",\"Stims/Figures/111-C-30-3.bmp\",\"fafasha\",\"Right\",\"39\",\"3\",\"11\",\"3B\",\"C1\",\"J\",\"59\"
\"\",\"\",\"approach-retreat\",\"208\",\"1501526\",\"0.0-208.0\",\"\",\"\",\"1-5\",\"5882\",\"38\",\"0\",\"Testing\",\"Stims/Figures/71-C-30-1.bmp\",\"fafasha\",\"Down\",\"40\",\"3\",\"12\",\"3B\",\"C1\",\"J\",\"60\"
\"\",\"\",\"approach-retreat\",\"209\",\"1508840\",\"0.0-209.0\",\"\",\"\",\"1-5\",\"5806\",\"40\",\"0\",\"Testing\",\"Stims/Figures/94-C-20-2.bmp\",\"fafasha\",\"Up\",\"38\",\"3\",\"13\",\"3B\",\"C1\",\"J\",\"61\"
\"\",\"\",\"approach-retreat\",\"210\",\"1514534\",\"0.0-210.0\",\"\",\"\",\"1-5\",\"4186\",\"39\",\"0\",\"Testing\",\"Stims/Figures/86-J-0-1.bmp\",\"za:sa:za\",\"Right\",\"37\",\"3\",\"14\",\"3B\",\"C2\",\"J\",\"62\"
\"\",\"\",\"approach-retreat\",\"211\",\"1520875\",\"0.0-211.0\",\"\",\"\",\"1-5\",\"4834\",\"40\",\"0\",\"Testing\",\"Stims/Figures/84-C-20-2.bmp\",\"fafasha\",\"Up\",\"38\",\"3\",\"15\",\"3B\",\"C1\",\"J\",\"63\"
\"\",\"\",\"approach-retreat\",\"212\",\"1526664\",\"0.0-212.0\",\"\",\"\",\"1-5\",\"4282\",\"38\",\"0\",\"Testing\",\"Stims/Figures/87-C-20-4.bmp\",\"fafasha\",\"Down\",\"40\",\"3\",\"16\",\"3B\",\"C1\",\"J\",\"64\"
\"\",\"\",\"approach-retreat\",\"213\",\"1533461\",\"0.0-213.0\",\"\",\"\",\"1-5\",\"5290\",\"40\",\"0\",\"Testing\",\"Stims/Figures/71-J-0-1.bmp\",\"za:sa:za\",\"Down\",\"38\",\"3\",\"17\",\"3B\",\"C2\",\"J\",\"65\"
\"\",\"\",\"approach-retreat\",\"214\",\"1540076\",\"0.0-214.0\",\"\",\"\",\"1-5\",\"5109\",\"39\",\"0\",\"Testing\",\"Stims/Figures/86-C-30-1.bmp\",\"fafasha\",\"Left\",\"37\",\"3\",\"18\",\"3B\",\"C1\",\"J\",\"66\"
\"\",\"\",\"approach-retreat\",\"215\",\"1546727\",\"0.0-215.0\",\"\",\"\",\"1-5\",\"5144\",\"39\",\"0\",\"Testing\",\"Stims/Figures/57-J-0-1.bmp\",\"za:sa:za\",\"Right\",\"37\",\"3\",\"19\",\"3B\",\"C2\",\"J\",\"67\"
\"\",\"\",\"approach-retreat\",\"216\",\"1556726\",\"0.0-216.0\",\"\",\"\",\"1-5\",\"8491\",\"40\",\"0\",\"Testing\",\"Stims/Figures/19-J-10-4.bmp\",\"za:sa:za\",\"Down\",\"38\",\"3\",\"20\",\"3B\",\"C2\",\"J\",\"68\"
\"\",\"\",\"approach-retreat\",\"217\",\"1565223\",\"0.0-217.0\",\"\",\"\",\"1-5\",\"6989\",\"40\",\"0\",\"Testing\",\"Stims/Figures/94-J-0-2.bmp\",\"za:sa:za\",\"Down\",\"38\",\"3\",\"21\",\"3B\",\"C2\",\"J\",\"69\"
\"\",\"\",\"approach-retreat\",\"218\",\"1572523\",\"0.0-218.0\",\"\",\"\",\"1-5\",\"5792\",\"39\",\"0\",\"Testing\",\"Stims/Figures/102-C-20-4.bmp\",\"fafasha\",\"Left\",\"37\",\"3\",\"22\",\"3B\",\"C1\",\"J\",\"70\"
\"\",\"\",\"approach-retreat\",\"219\",\"1581417\",\"0.0-219.0\",\"\",\"\",\"1-5\",\"7386\",\"39\",\"0\",\"Testing\",\"Stims/Figures/100-J-10-3.bmp\",\"za:sa:za\",\"Right\",\"37\",\"3\",\"23\",\"3B\",\"C2\",\"J\",\"71\"
\"\",\"\",\"approach-retreat\",\"220\",\"1588111\",\"0.0-220.0\",\"\",\"\",\"1-5\",\"5185\",\"40\",\"0\",\"Testing\",\"Stims/Figures/100-C-30-3.bmp\",\"fafasha\",\"Up\",\"38\",\"3\",\"24\",\"3B\",\"C1\",\"J\",\"72\"
\"\",\"\",\"approach-retreat\",\"221\",\"1593929\",\"0.0-221.0\",\"\",\"\",\"1-5\",\"4311\",\"40\",\"0\",\"Testing\",\"Stims/Figures/85-C-20-2.bmp\",\"fafasha\",\"Up\",\"38\",\"4\",\"1\",\"3B\",\"C1\",\"J\",\"73\"
\"\",\"\",\"approach-retreat\",\"222\",\"1599779\",\"0.0-222.0\",\"\",\"\",\"1-5\",\"4340\",\"40\",\"1\",\"Testing\",\"Stims/Figures/102-C-20-4.bmp\",\"fafasha\",\"Down\",\"40\",\"4\",\"2\",\"3B\",\"C1\",\"J\",\"74\"
\"\",\"\",\"approach-retreat\",\"223\",\"1605821\",\"0.0-223.0\",\"\",\"\",\"1-5\",\"4536\",\"37\",\"0\",\"Testing\",\"Stims/Figures/94-J-0-2.bmp\",\"za:sa:za\",\"Left\",\"39\",\"4\",\"3\",\"3B\",\"C2\",\"J\",\"75\"
\"\",\"\",\"approach-retreat\",\"224\",\"1611945\",\"0.0-224.0\",\"\",\"\",\"1-5\",\"4614\",\"40\",\"0\",\"Testing\",\"Stims/Figures/85-J-0-2.bmp\",\"za:sa:za\",\"Down\",\"38\",\"4\",\"4\",\"3B\",\"C2\",\"J\",\"76\"
\"\",\"\",\"approach-retreat\",\"225\",\"1618939\",\"0.0-225.0\",\"\",\"\",\"1-5\",\"5485\",\"38\",\"0\",\"Testing\",\"Stims/Figures/87-C-20-4.bmp\",\"fafasha\",\"Down\",\"40\",\"4\",\"5\",\"3B\",\"C1\",\"J\",\"77\"
\"\",\"\",\"approach-retreat\",\"226\",\"1625219\",\"0.0-226.0\",\"\",\"\",\"1-5\",\"4769\",\"38\",\"0\",\"Testing\",\"Stims/Figures/100-C-30-3.bmp\",\"fafasha\",\"Down\",\"40\",\"4\",\"6\",\"3B\",\"C1\",\"J\",\"78\"
\"\",\"\",\"approach-retreat\",\"227\",\"1631690\",\"0.0-227.0\",\"\",\"\",\"1-5\",\"4962\",\"37\",\"0\",\"Testing\",\"Stims/Figures/86-J-0-1.bmp\",\"za:sa:za\",\"Left\",\"39\",\"4\",\"7\",\"3B\",\"C2\",\"J\",\"79\"
\"\",\"\",\"approach-retreat\",\"228\",\"1638820\",\"0.0-228.0\",\"\",\"\",\"1-5\",\"5621\",\"37\",\"0\",\"Testing\",\"Stims/Figures/19-C-20-4.bmp\",\"fafasha\",\"Right\",\"39\",\"4\",\"8\",\"3B\",\"C1\",\"J\",\"80\"
\"\",\"\",\"approach-retreat\",\"229\",\"1644832\",\"0.0-229.0\",\"\",\"\",\"1-5\",\"4504\",\"37\",\"0\",\"Testing\",\"Stims/Figures/57-C-30-1.bmp\",\"fafasha\",\"Right\",\"39\",\"4\",\"9\",\"3B\",\"C1\",\"J\",\"81\"
\"\",\"\",\"approach-retreat\",\"230\",\"1650809\",\"0.0-230.0\",\"\",\"\",\"1-5\",\"4466\",\"39\",\"0\",\"Testing\",\"Stims/Figures/102-J-10-4.bmp\",\"za:sa:za\",\"Right\",\"37\",\"4\",\"10\",\"3B\",\"C2\",\"J\",\"82\"
\"\",\"\",\"approach-retreat\",\"231\",\"1658393\",\"0.0-231.0\",\"\",\"\",\"1-5\",\"6073\",\"40\",\"0\",\"Testing\",\"Stims/Figures/111-C-30-3.bmp\",\"fafasha\",\"Up\",\"38\",\"4\",\"11\",\"3B\",\"C1\",\"J\",\"83\"
\"\",\"\",\"approach-retreat\",\"232\",\"1664798\",\"0.0-232.0\",\"\",\"\",\"1-5\",\"4895\",\"40\",\"0\",\"Testing\",\"Stims/Figures/111-J-10-3.bmp\",\"za:sa:za\",\"Down\",\"38\",\"4\",\"12\",\"3B\",\"C2\",\"J\",\"84\"
\"\",\"\",\"approach-retreat\",\"233\",\"1671292\",\"0.0-233.0\",\"\",\"\",\"1-5\",\"4981\",\"38\",\"0\",\"Testing\",\"Stims/Figures/57-J-0-1.bmp\",\"za:sa:za\",\"Up\",\"40\",\"4\",\"13\",\"3B\",\"C2\",\"J\",\"85\"
\"\",\"\",\"approach-retreat\",\"234\",\"1678452\",\"0.0-234.0\",\"\",\"\",\"1-5\",\"5646\",\"39\",\"1\",\"Testing\",\"Stims/Figures/71-C-30-1.bmp\",\"fafasha\",\"Right\",\"39\",\"4\",\"14\",\"3B\",\"C1\",\"J\",\"86\"
\"\",\"\",\"approach-retreat\",\"235\",\"1684573\",\"0.0-235.0\",\"\",\"\",\"1-5\",\"4613\",\"39\",\"0\",\"Testing\",\"Stims/Figures/84-J-0-2.bmp\",\"za:sa:za\",\"Right\",\"37\",\"4\",\"15\",\"3B\",\"C2\",\"J\",\"87\"
\"\",\"\",\"approach-retreat\",\"236\",\"1690600\",\"0.0-236.0\",\"\",\"\",\"1-5\",\"4518\",\"37\",\"0\",\"Testing\",\"Stims/Figures/44-J-10-3.bmp\",\"za:sa:za\",\"Left\",\"39\",\"4\",\"16\",\"3B\",\"C2\",\"J\",\"88\"
\"\",\"\",\"approach-retreat\",\"237\",\"1696406\",\"0.0-237.0\",\"\",\"\",\"1-5\",\"4297\",\"39\",\"0\",\"Testing\",\"Stims/Figures/94-C-20-2.bmp\",\"fafasha\",\"Left\",\"37\",\"4\",\"17\",\"3B\",\"C1\",\"J\",\"89\"
\"\",\"\",\"approach-retreat\",\"238\",\"1702057\",\"0.0-238.0\",\"\",\"\",\"1-5\",\"4145\",\"39\",\"0\",\"Testing\",\"Stims/Figures/84-C-20-2.bmp\",\"fafasha\",\"Left\",\"37\",\"4\",\"18\",\"3B\",\"C1\",\"J\",\"90\"
\"\",\"\",\"approach-retreat\",\"239\",\"1708930\",\"0.0-239.0\",\"\",\"\",\"1-5\",\"5363\",\"39\",\"0\",\"Testing\",\"Stims/Figures/100-J-10-3.bmp\",\"za:sa:za\",\"Right\",\"37\",\"4\",\"19\",\"3B\",\"C2\",\"J\",\"91\"
\"\",\"\",\"approach-retreat\",\"240\",\"1715457\",\"0.0-240.0\",\"\",\"\",\"1-5\",\"5017\",\"38\",\"0\",\"Testing\",\"Stims/Figures/19-J-10-4.bmp\",\"za:sa:za\",\"Up\",\"40\",\"4\",\"20\",\"3B\",\"C2\",\"J\",\"92\"
\"\",\"\",\"approach-retreat\",\"241\",\"1722162\",\"0.0-241.0\",\"\",\"\",\"1-5\",\"5196\",\"40\",\"0\",\"Testing\",\"Stims/Figures/86-C-30-1.bmp\",\"fafasha\",\"Up\",\"38\",\"4\",\"21\",\"3B\",\"C1\",\"J\",\"93\"
\"\",\"\",\"approach-retreat\",\"242\",\"1729039\",\"0.0-242.0\",\"\",\"\",\"1-5\",\"5369\",\"38\",\"0\",\"Testing\",\"Stims/Figures/87-J-10-4.bmp\",\"za:sa:za\",\"Up\",\"40\",\"4\",\"22\",\"3B\",\"C2\",\"J\",\"94\"
\"\",\"\",\"approach-retreat\",\"243\",\"1734957\",\"0.0-243.0\",\"\",\"\",\"1-5\",\"4408\",\"40\",\"0\",\"Testing\",\"Stims/Figures/71-J-0-1.bmp\",\"za:sa:za\",\"Down\",\"38\",\"4\",\"23\",\"3B\",\"C2\",\"J\",\"95\"
\"\",\"\",\"approach-retreat\",\"244\",\"1742241\",\"0.0-244.0\",\"\",\"\",\"1-5\",\"5773\",\"39\",\"0\",\"Testing\",\"Stims/Figures/44-C-30-3.bmp\",\"fafasha\",\"Left\",\"37\",\"4\",\"24\",\"3B\",\"C1\",\"J\",\"96\"
\"24175\",\"\",\"survey-text\",\"245\",\"1766422\",\"0.0-245.0\",\"\",\"{\"\"Q0\"\":\"\"1264\"\"}\",\"\",\"\",\"\",\"\",\"\",\"\",\"\",\"\",\"\",\"\",\"\",\"\",\"\",\"\",\"\"
