"rt","key_press","trial_type","trial_index","time_elapsed","internal_node_id","view_history","responses","Id","Rt","ResKeyCode","ResCorr","TrialType2","Image","Label","Location","CorrectResponse","Block","BlockTrial","Condition","LabelType","Subcondition","trialNum"
"1927","32","text","0","1935","0.0-0.0-0.0","","","","","","","","","","","","","","","","",""
"945","","instructions","1","2885","0.0-1.0","[{""page_index"":0,""viewing_time"":943}]","","","","","","","","","","","","","","","",""
"9945","","survey-multi-choice","2","12871","0.0-2.0","","{""Q0"":""Da"",""Q1"":""Da"",""Q2"":""Da"",""Q3"":""Da"",""Q4"":""Da"",""Q5"":""Da""}","","","","","","","","","","","","","","",""
"","","bio","3","18400","0.0-3.0","","{""age"":""19"",""gender"":""f"",""specify"":""""}","","","","","","","","","","","","","","",""
"","","approach-retreat","4","24116","0.0-4.0","","","2-2","4207","38","0","Training","Stims/Figures/86-J-0-1.bmp","taka:ta","Up","40","1","1","7","P","J","1"
"","","approach-retreat","5","29898","0.0-5.0","","","2-2","4264","40","0","Training","Stims/Figures/118-J-0-2.bmp","tapa:ka","Down","38","1","2","7","P","J","2"
"","","approach-retreat","6","35488","0.0-6.0","","","2-2","4073","39","0","Training","Stims/Figures/100-J-10-3.bmp","malana","Right","37","1","3","7","S","J","3"
"","","approach-retreat","7","41328","0.0-7.0","","","2-2","4327","38","1","Training","Stims/Figures/57-C-30-1.bmp","pa:kaka","Up","38","1","4","7","P","J","4"
"","","approach-retreat","8","46997","0.0-8.0","","","2-2","4155","37","1","Training","Stims/Figures/19-C-20-4.bmp","na:ma:la","Left","37","1","5","7","S","J","5"
"","","approach-retreat","9","52632","0.0-9.0","","","2-2","4128","38","1","Training","Stims/Figures/86-C-30-1.bmp","ta:kaka","Up","38","1","6","7","P","J","6"
"","","approach-retreat","10","58188","0.0-10.0","","","2-2","4040","39","1","Training","Stims/Figures/111-C-30-3.bmp","nala:la","Right","39","1","7","7","S","J","7"
"","","approach-retreat","11","63564","0.0-11.0","","","2-2","3860","38","1","Training","Stims/Figures/102-C-20-4.bmp","namala","Up","38","1","8","7","S","J","8"
"","","approach-retreat","12","69113","0.0-12.0","","","2-2","4040","39","0","Training","Stims/Figures/57-J-0-1.bmp","ta:pa:ta","Right","37","1","9","7","P","J","9"
"","","approach-retreat","13","74761","0.0-13.0","","","2-2","4130","38","1","Training","Stims/Figures/84-J-0-2.bmp","pa:pa:ka","Down","38","1","10","7","P","J","10"
"","","approach-retreat","14","80279","0.0-14.0","","","2-2","4000","37","0","Training","Stims/Figures/102-J-10-4.bmp","ma:ma:na","Left","39","1","11","7","S","J","11"
"","","approach-retreat","15","85874","0.0-15.0","","","2-2","4086","39","0","Training","Stims/Figures/118-C-20-2.bmp","tapaka","Left","37","1","12","7","P","J","12"
"","","approach-retreat","16","91391","0.0-16.0","","","2-2","4004","39","0","Training","Stims/Figures/84-C-20-2.bmp","ta:pa:ka","Left","37","1","13","7","P","J","13"
"","","approach-retreat","17","97177","0.0-17.0","","","2-2","4269","38","1","Training","Stims/Figures/111-J-10-3.bmp","na:mana","Down","38","1","14","7","S","J","14"
"","","approach-retreat","18","102722","0.0-18.0","","","2-2","4032","38","0","Training","Stims/Figures/100-C-30-3.bmp","namana","Down","40","1","15","7","S","J","15"
"","","approach-retreat","19","108314","0.0-19.0","","","2-2","4073","39","0","Training","Stims/Figures/19-J-10-4.bmp","mala:la","Right","37","1","16","7","S","J","16"
"","","approach-retreat","20","114081","0.0-20.0","","","2-2","4252","38","0","Training","Stims/Figures/84-J-0-2.bmp","pa:pa:ka","Up","40","2","1","7","P","J","17"
"","","approach-retreat","21","119859","0.0-21.0","","","2-2","4265","39","1","Training","Stims/Figures/118-C-20-2.bmp","tapaka","Right","39","2","2","7","P","J","18"
"","","approach-retreat","22","125452","0.0-22.0","","","2-2","4085","38","1","Training","Stims/Figures/57-C-30-1.bmp","pa:kaka","Up","38","2","3","7","P","J","19"
"","","approach-retreat","23","131051","0.0-23.0","","","2-2","4085","38","0","Training","Stims/Figures/86-C-30-1.bmp","ta:kaka","Down","40","2","4","7","P","J","20"
"","","approach-retreat","24","136520","0.0-24.0","","","2-2","3950","39","0","Training","Stims/Figures/57-J-0-1.bmp","ta:pa:ta","Right","37","2","5","7","P","J","21"
"","","approach-retreat","25","142130","0.0-25.0","","","2-2","4095","37","1","Training","Stims/Figures/19-J-10-4.bmp","mala:la","Right","37","2","6","7","S","J","22"
"","","approach-retreat","26","147721","0.0-26.0","","","2-2","4074","38","1","Training","Stims/Figures/102-J-10-4.bmp","ma:ma:na","Down","38","2","7","7","S","J","23"
"","","approach-retreat","27","153172","0.0-27.0","","","2-2","3935","38","0","Training","Stims/Figures/86-J-0-1.bmp","taka:ta","Up","40","2","8","7","P","J","24"
"","","approach-retreat","28","158745","0.0-28.0","","","2-2","4060","40","1","Training","Stims/Figures/84-C-20-2.bmp","ta:pa:ka","Down","40","2","9","7","P","J","25"
"","","approach-retreat","29","164311","0.0-29.0","","","2-2","4049","39","0","Training","Stims/Figures/111-J-10-3.bmp","na:mana","Right","37","2","10","7","S","J","26"
"","","approach-retreat","30","169890","0.0-30.0","","","2-2","4065","38","1","Training","Stims/Figures/102-C-20-4.bmp","namala","Up","38","2","11","7","S","J","27"
"","","approach-retreat","31","175483","0.0-31.0","","","2-2","4083","38","0","Training","Stims/Figures/19-C-20-4.bmp","na:ma:la","Down","40","2","12","7","S","J","28"
"","","approach-retreat","32","181103","0.0-32.0","","","2-2","4099","39","0","Training","Stims/Figures/100-C-30-3.bmp","namana","Left","37","2","13","7","S","J","29"
"","","approach-retreat","33","187093","0.0-33.0","","","2-2","4482","37","0","Training","Stims/Figures/100-J-10-3.bmp","malana","Left","39","2","14","7","S","J","30"
"","","approach-retreat","34","192840","0.0-34.0","","","2-2","4232","39","0","Training","Stims/Figures/111-C-30-3.bmp","nala:la","Left","37","2","15","7","S","J","31"
"","","approach-retreat","35","198621","0.0-35.0","","","2-2","4262","39","1","Training","Stims/Figures/118-J-0-2.bmp","tapa:ka","Left","39","2","16","7","P","J","32"
"","","approach-retreat","36","204201","0.0-36.0","","","2-2","4071","38","0","Training","Stims/Figures/102-C-20-4.bmp","namala","Down","40","3","1","7","S","J","33"
"","","approach-retreat","37","209830","0.0-37.0","","","2-2","4117","38","1","Training","Stims/Figures/118-C-20-2.bmp","tapaka","Up","38","3","2","7","P","J","34"
"","","approach-retreat","38","215426","0.0-38.0","","","2-2","4081","38","1","Training","Stims/Figures/86-C-30-1.bmp","ta:kaka","Up","38","3","3","7","P","J","35"
"","","approach-retreat","39","221056","0.0-39.0","","","2-2","4119","39","1","Training","Stims/Figures/84-C-20-2.bmp","ta:pa:ka","Right","39","3","4","7","P","J","36"
"","","approach-retreat","40","226630","0.0-40.0","","","2-2","4059","39","1","Training","Stims/Figures/100-C-30-3.bmp","namana","Right","39","3","5","7","S","J","37"
"","","approach-retreat","41","232230","0.0-41.0","","","2-2","4082","37","0","Training","Stims/Figures/102-J-10-4.bmp","ma:ma:na","Left","39","3","6","7","S","J","38"
"","","approach-retreat","42","237830","0.0-42.0","","","2-2","4085","38","0","Training","Stims/Figures/86-J-0-1.bmp","taka:ta","Up","40","3","7","7","P","J","39"
"","","approach-retreat","43","243385","0.0-43.0","","","2-2","4041","39","0","Training","Stims/Figures/84-J-0-2.bmp","pa:pa:ka","Right","37","3","8","7","P","J","40"
"","","approach-retreat","44","248925","0.0-44.0","","","2-2","4024","38","1","Training","Stims/Figures/19-J-10-4.bmp","mala:la","Down","38","3","9","7","S","J","41"
"","","approach-retreat","45","254583","0.0-45.0","","","2-2","4139","39","1","Training","Stims/Figures/111-J-10-3.bmp","na:mana","Left","39","3","10","7","S","J","42"
"","","approach-retreat","46","260183","0.0-46.0","","","2-2","4083","39","0","Training","Stims/Figures/57-J-0-1.bmp","ta:pa:ta","Right","37","3","11","7","P","J","43"
"","","approach-retreat","47","265748","0.0-47.0","","","2-2","4049","37","1","Training","Stims/Figures/57-C-30-1.bmp","pa:kaka","Left","37","3","12","7","P","J","44"
"","","approach-retreat","48","271490","0.0-48.0","","","2-2","4228","38","0","Training","Stims/Figures/111-C-30-3.bmp","nala:la","Down","40","3","13","7","S","J","45"
"","","approach-retreat","49","277078","0.0-49.0","","","2-2","4077","39","1","Training","Stims/Figures/118-J-0-2.bmp","tapa:ka","Left","39","3","14","7","P","J","46"
"","","approach-retreat","50","282650","0.0-50.0","","","2-2","4056","38","0","Training","Stims/Figures/19-C-20-4.bmp","na:ma:la","Down","40","3","15","7","S","J","47"
"","","approach-retreat","51","288158","0.0-51.0","","","2-2","3996","38","0","Training","Stims/Figures/100-J-10-3.bmp","malana","Up","40","3","16","7","S","J","48"
"","","approach-retreat","52","293807","0.0-52.0","","","2-2","4128","38","0","Training","Stims/Figures/57-J-0-1.bmp","ta:pa:ta","Up","40","4","1","7","P","J","49"
"","","approach-retreat","53","300063","0.0-53.0","","","2-2","4739","40","0","Training","Stims/Figures/19-J-10-4.bmp","mala:la","Down","38","4","2","7","S","J","50"
"","","approach-retreat","54","305656","0.0-54.0","","","2-2","4076","38","1","Training","Stims/Figures/84-C-20-2.bmp","ta:pa:ka","Up","38","4","3","7","P","J","51"
"","","approach-retreat","55","311580","0.0-55.0","","","2-2","4410","38","0","Training","Stims/Figures/118-C-20-2.bmp","tapaka","Down","40","4","4","7","P","J","52"
"","","approach-retreat","56","317070","0.0-56.0","","","2-2","3971","39","0","Training","Stims/Figures/84-J-0-2.bmp","pa:pa:ka","Right","37","4","5","7","P","J","53"
"","","approach-retreat","57","322668","0.0-57.0","","","2-2","4089","37","1","Training","Stims/Figures/86-C-30-1.bmp","ta:kaka","Left","37","4","6","7","P","J","54"
"","","approach-retreat","58","328396","0.0-58.0","","","2-2","4211","38","0","Training","Stims/Figures/111-C-30-3.bmp","nala:la","Down","40","4","7","7","S","J","55"
"","","approach-retreat","59","334075","0.0-59.0","","","2-2","4169","40","1","Training","Stims/Figures/19-C-20-4.bmp","na:ma:la","Down","40","4","8","7","S","J","56"
"","","approach-retreat","60","339863","0.0-60.0","","","2-2","4281","38","1","Training","Stims/Figures/102-C-20-4.bmp","namala","Up","38","4","9","7","S","J","57"
"","","approach-retreat","61","345454","0.0-61.0","","","2-2","4079","39","0","Training","Stims/Figures/86-J-0-1.bmp","taka:ta","Right","37","4","10","7","P","J","58"
"","","approach-retreat","62","351212","0.0-62.0","","","2-2","4239","37","0","Training","Stims/Figures/111-J-10-3.bmp","na:mana","Left","39","4","11","7","S","J","59"
"","","approach-retreat","63","357122","0.0-63.0","","","2-2","4395","39","1","Training","Stims/Figures/100-C-30-3.bmp","namana","Right","39","4","12","7","S","J","60"
"","","approach-retreat","64","362759","0.0-64.0","","","2-2","4126","38","0","Training","Stims/Figures/118-J-0-2.bmp","tapa:ka","Up","40","4","13","7","P","J","61"
"","","approach-retreat","65","368349","0.0-65.0","","","2-2","4079","39","0","Training","Stims/Figures/57-C-30-1.bmp","pa:kaka","Left","37","4","14","7","P","J","62"
"","","approach-retreat","66","374467","0.0-66.0","","","2-2","4602","39","0","Training","Stims/Figures/102-J-10-4.bmp","ma:ma:na","Right","37","4","15","7","S","J","63"
"","","approach-retreat","67","380309","0.0-67.0","","","2-2","4327","39","1","Training","Stims/Figures/100-J-10-3.bmp","malana","Left","39","4","16","7","S","J","64"
"","","approach-retreat","68","386177","0.0-68.0","","","2-2","4345","38","1","Training","Stims/Figures/100-J-10-3.bmp","malana","Down","38","5","1","7","S","J","65"
"","","approach-retreat","69","391815","0.0-69.0","","","2-2","4125","38","0","Training","Stims/Figures/86-J-0-1.bmp","taka:ta","Up","40","5","2","7","P","J","66"
"","","approach-retreat","70","397400","0.0-70.0","","","2-2","4068","39","1","Training","Stims/Figures/100-C-30-3.bmp","namana","Right","39","5","3","7","S","J","67"
"","","approach-retreat","71","403054","0.0-71.0","","","2-2","4145","38","1","Training","Stims/Figures/111-J-10-3.bmp","na:mana","Down","38","5","4","7","S","J","68"
"","","approach-retreat","72","409299","0.0-72.0","","","2-2","4730","38","1","Training","Stims/Figures/19-J-10-4.bmp","mala:la","Down","38","5","5","7","S","J","69"
"","","approach-retreat","73","414871","0.0-73.0","","","2-2","4056","38","0","Training","Stims/Figures/86-C-30-1.bmp","ta:kaka","Down","40","5","6","7","P","J","70"
"","","approach-retreat","74","420553","0.0-74.0","","","2-2","4169","38","0","Training","Stims/Figures/57-J-0-1.bmp","ta:pa:ta","Up","40","5","7","7","P","J","71"
"","","approach-retreat","75","426201","0.0-75.0","","","2-2","4132","39","0","Training","Stims/Figures/57-C-30-1.bmp","pa:kaka","Left","37","5","8","7","P","J","72"
"","","approach-retreat","76","432039","0.0-76.0","","","2-2","4324","39","0","Training","Stims/Figures/19-C-20-4.bmp","na:ma:la","Left","37","5","9","7","S","J","73"
"","","approach-retreat","77","437858","0.0-77.0","","","2-2","4313","38","1","Training","Stims/Figures/111-C-30-3.bmp","nala:la","Up","38","5","10","7","S","J","74"
"","","approach-retreat","78","443464","0.0-78.0","","","2-2","4092","39","0","Training","Stims/Figures/102-C-20-4.bmp","namala","Left","37","5","11","7","S","J","75"
"","","approach-retreat","79","449036","0.0-79.0","","","2-2","4060","39","1","Training","Stims/Figures/84-C-20-2.bmp","ta:pa:ka","Right","39","5","12","7","P","J","76"
"","","approach-retreat","80","454568","0.0-80.0","","","2-2","4011","39","0","Training","Stims/Figures/84-J-0-2.bmp","pa:pa:ka","Right","37","5","13","7","P","J","77"
"","","approach-retreat","81","460736","0.0-81.0","","","2-2","4652","39","0","Training","Stims/Figures/118-J-0-2.bmp","tapa:ka","Right","37","5","14","7","P","J","78"
"","","approach-retreat","82","466413","0.0-82.0","","","2-2","4170","37","1","Training","Stims/Figures/118-C-20-2.bmp","tapaka","Left","37","5","15","7","P","J","79"
"","","approach-retreat","83","471972","0.0-83.0","","","2-2","4046","38","0","Training","Stims/Figures/102-J-10-4.bmp","ma:ma:na","Up","40","5","16","7","S","J","80"
"","","approach-retreat","84","477477","0.0-84.0","","","2-2","3997","39","0","Training","Stims/Figures/57-J-0-1.bmp","ta:pa:ta","Right","37","6","1","7","P","J","81"
"","","approach-retreat","85","482910","0.0-85.0","","","2-2","3916","38","1","Training","Stims/Figures/86-J-0-1.bmp","taka:ta","Down","38","6","2","7","P","J","82"
"","","approach-retreat","86","488359","0.0-86.0","","","2-2","3938","38","1","Training","Stims/Figures/100-J-10-3.bmp","malana","Down","38","6","3","7","S","J","83"
"","","approach-retreat","87","493926","0.0-87.0","","","2-2","4049","38","0","Training","Stims/Figures/102-J-10-4.bmp","ma:ma:na","Up","40","6","4","7","S","J","84"
"","","approach-retreat","88","499547","0.0-88.0","","","2-2","4106","39","0","Training","Stims/Figures/102-C-20-4.bmp","namala","Left","37","6","5","7","S","J","85"
"","","approach-retreat","89","505278","0.0-89.0","","","2-2","4215","39","1","Training","Stims/Figures/57-C-30-1.bmp","pa:kaka","Right","39","6","6","7","P","J","86"
"","","approach-retreat","90","510832","0.0-90.0","","","2-2","4037","39","1","Training","Stims/Figures/19-C-20-4.bmp","na:ma:la","Right","39","6","7","7","S","J","87"
"","","approach-retreat","91","516408","0.0-91.0","","","2-2","4066","39","0","Training","Stims/Figures/84-C-20-2.bmp","ta:pa:ka","Left","37","6","8","7","P","J","88"
"","","approach-retreat","92","521966","0.0-92.0","","","2-2","4046","39","0","Training","Stims/Figures/111-J-10-3.bmp","na:mana","Right","37","6","9","7","S","J","89"
"","","approach-retreat","93","527444","0.0-93.0","","","2-2","3963","38","0","Training","Stims/Figures/118-C-20-2.bmp","tapaka","Down","40","6","10","7","P","J","90"
"","","approach-retreat","94","532956","0.0-94.0","","","2-2","3998","39","1","Training","Stims/Figures/19-J-10-4.bmp","mala:la","Left","39","6","11","7","S","J","91"
"","","approach-retreat","95","538568","0.0-95.0","","","2-2","4099","38","1","Training","Stims/Figures/118-J-0-2.bmp","tapa:ka","Down","38","6","12","7","P","J","92"
"","","approach-retreat","96","544092","0.0-96.0","","","2-2","4014","38","1","Training","Stims/Figures/111-C-30-3.bmp","nala:la","Up","38","6","13","7","S","J","93"
"","","approach-retreat","97","549660","0.0-97.0","","","2-2","4052","38","1","Training","Stims/Figures/100-C-30-3.bmp","namana","Up","38","6","14","7","S","J","94"
"","","approach-retreat","98","555209","0.0-98.0","","","2-2","4034","38","1","Training","Stims/Figures/86-C-30-1.bmp","ta:kaka","Up","38","6","15","7","P","J","95"
"","","approach-retreat","99","560853","0.0-99.0","","","2-2","4130","39","1","Training","Stims/Figures/84-J-0-2.bmp","pa:pa:ka","Left","39","6","16","7","P","J","96"
"","","approach-retreat","100","566437","0.0-100.0","","","2-2","4067","38","0","Training","Stims/Figures/102-J-10-4.bmp","ma:ma:na","Up","40","7","1","7","S","J","97"
"","","approach-retreat","101","571976","0.0-101.0","","","2-2","4024","38","1","Training","Stims/Figures/19-C-20-4.bmp","na:ma:la","Up","38","7","2","7","S","J","98"
"","","approach-retreat","102","577556","0.0-102.0","","","2-2","4064","39","1","Training","Stims/Figures/19-J-10-4.bmp","mala:la","Left","39","7","3","7","S","J","99"
"","","approach-retreat","103","583160","0.0-103.0","","","2-2","4090","38","1","Training","Stims/Figures/118-J-0-2.bmp","tapa:ka","Down","38","7","4","7","P","J","100"
"","","approach-retreat","104","588712","0.0-104.0","","","2-2","4039","38","1","Training","Stims/Figures/102-C-20-4.bmp","namala","Up","38","7","5","7","S","J","101"
"","","approach-retreat","105","594257","0.0-105.0","","","2-2","4026","39","1","Training","Stims/Figures/84-C-20-2.bmp","ta:pa:ka","Right","39","7","6","7","P","J","102"
"","","approach-retreat","106","599875","0.0-106.0","","","2-2","4106","39","1","Training","Stims/Figures/57-J-0-1.bmp","ta:pa:ta","Left","39","7","7","7","P","J","103"
"","","approach-retreat","107","605343","0.0-107.0","","","2-2","3952","39","0","Training","Stims/Figures/84-J-0-2.bmp","pa:pa:ka","Right","37","7","8","7","P","J","104"
"","","approach-retreat","108","611421","0.0-108.0","","","2-2","4561","39","1","Training","Stims/Figures/86-C-30-1.bmp","ta:kaka","Right","39","7","9","7","P","J","105"
"","","approach-retreat","109","617072","0.0-109.0","","","2-2","4135","38","0","Training","Stims/Figures/57-C-30-1.bmp","pa:kaka","Down","40","7","10","7","P","J","106"
"","","approach-retreat","110","622538","0.0-110.0","","","2-2","3948","39","1","Training","Stims/Figures/118-C-20-2.bmp","tapaka","Right","39","7","11","7","P","J","107"
"","","approach-retreat","111","628334","0.0-111.0","","","2-2","4282","38","1","Training","Stims/Figures/100-J-10-3.bmp","malana","Down","38","7","12","7","S","J","108"
"","","approach-retreat","112","633994","0.0-112.0","","","2-2","4144","38","0","Training","Stims/Figures/111-J-10-3.bmp","na:mana","Up","40","7","13","7","S","J","109"
"","","approach-retreat","113","639659","0.0-113.0","","","2-2","4148","39","0","Training","Stims/Figures/111-C-30-3.bmp","nala:la","Left","37","7","14","7","S","J","110"
"","","approach-retreat","114","646399","0.0-114.0","","","2-2","5227","39","0","Training","Stims/Figures/100-C-30-3.bmp","namana","Left","37","7","15","7","S","J","111"
"","","approach-retreat","115","651920","0.0-115.0","","","2-2","4006","38","1","Training","Stims/Figures/86-J-0-1.bmp","taka:ta","Down","38","7","16","7","P","J","112"
"","","approach-retreat","116","657445","0.0-116.0","","","2-2","4007","38","0","Training","Stims/Figures/102-C-20-4.bmp","namala","Down","40","8","1","7","S","J","113"
"","","approach-retreat","117","663198","0.0-117.0","","","2-2","4240","38","0","Training","Stims/Figures/84-C-20-2.bmp","ta:pa:ka","Down","40","8","2","7","P","J","114"
"","","approach-retreat","118","668673","0.0-118.0","","","2-2","3962","39","1","Training","Stims/Figures/57-C-30-1.bmp","pa:kaka","Right","39","8","3","7","P","J","115"
"","","approach-retreat","119","674401","0.0-119.0","","","2-2","4220","38","1","Training","Stims/Figures/111-J-10-3.bmp","na:mana","Down","38","8","4","7","S","J","116"
"","","approach-retreat","120","680160","0.0-120.0","","","2-2","4241","39","1","Training","Stims/Figures/118-J-0-2.bmp","tapa:ka","Left","39","8","5","7","P","J","117"
"","","approach-retreat","121","685818","0.0-121.0","","","2-2","4140","38","0","Training","Stims/Figures/84-J-0-2.bmp","pa:pa:ka","Up","40","8","6","7","P","J","118"
"","","approach-retreat","122","691368","0.0-122.0","","","2-2","4034","39","1","Training","Stims/Figures/86-J-0-1.bmp","taka:ta","Left","39","8","7","7","P","J","119"
"","","approach-retreat","123","696849","0.0-123.0","","","2-2","3962","39","1","Training","Stims/Figures/100-C-30-3.bmp","namana","Right","39","8","8","7","S","J","120"
"","","approach-retreat","124","702552","0.0-124.0","","","2-2","4189","38","0","Training","Stims/Figures/102-J-10-4.bmp","ma:ma:na","Up","40","8","9","7","S","J","121"
"","","approach-retreat","125","708288","0.0-125.0","","","2-2","4221","38","1","Training","Stims/Figures/19-C-20-4.bmp","na:ma:la","Up","38","8","10","7","S","J","122"
"","","approach-retreat","126","713810","0.0-126.0","","","2-2","4008","38","1","Training","Stims/Figures/19-J-10-4.bmp","mala:la","Down","38","8","11","7","S","J","123"
"","","approach-retreat","127","720164","0.0-127.0","","","2-2","4843","39","0","Training","Stims/Figures/86-C-30-1.bmp","ta:kaka","Left","37","8","12","7","P","J","124"
"","","approach-retreat","128","725640","0.0-128.0","","","2-2","3961","38","1","Training","Stims/Figures/118-C-20-2.bmp","tapaka","Up","38","8","13","7","P","J","125"
"","","approach-retreat","129","731568","0.0-129.0","","","2-2","4420","39","0","Training","Stims/Figures/111-C-30-3.bmp","nala:la","Left","37","8","14","7","S","J","126"
"","","approach-retreat","130","737071","0.0-130.0","","","2-2","3989","39","0","Training","Stims/Figures/100-J-10-3.bmp","malana","Right","37","8","15","7","S","J","127"
"","","approach-retreat","131","742589","0.0-131.0","","","2-2","4008","39","0","Training","Stims/Figures/57-J-0-1.bmp","ta:pa:ta","Right","37","8","16","7","P","J","128"
"","","approach-retreat","132","748116","0.0-132.0","","","2-2","4011","38","0","Training","Stims/Figures/100-C-30-3.bmp","namana","Down","40","9","1","7","S","J","129"
"","","approach-retreat","133","753767","0.0-133.0","","","2-2","4137","39","0","Training","Stims/Figures/111-C-30-3.bmp","nala:la","Left","37","9","2","7","S","J","130"
"","","approach-retreat","134","759523","0.0-134.0","","","2-2","4244","39","0","Training","Stims/Figures/100-J-10-3.bmp","malana","Right","37","9","3","7","S","J","131"
"","","approach-retreat","135","765389","0.0-135.0","","","2-2","4357","38","1","Training","Stims/Figures/102-C-20-4.bmp","namala","Up","38","9","4","7","S","J","132"
"","","approach-retreat","136","770933","0.0-136.0","","","2-2","4027","38","1","Training","Stims/Figures/118-J-0-2.bmp","tapa:ka","Down","38","9","5","7","P","J","133"
"","","approach-retreat","137","776495","0.0-137.0","","","2-2","4047","39","1","Training","Stims/Figures/84-J-0-2.bmp","pa:pa:ka","Left","39","9","6","7","P","J","134"
"","","approach-retreat","138","782069","0.0-138.0","","","2-2","4059","38","0","Training","Stims/Figures/86-C-30-1.bmp","ta:kaka","Down","40","9","7","7","P","J","135"
"","","approach-retreat","139","787479","0.0-139.0","","","2-2","3896","39","0","Training","Stims/Figures/84-C-20-2.bmp","ta:pa:ka","Left","37","9","8","7","P","J","136"
"","","approach-retreat","140","792968","0.0-140.0","","","2-2","3975","39","1","Training","Stims/Figures/19-C-20-4.bmp","na:ma:la","Right","39","9","9","7","S","J","137"
"","","approach-retreat","141","798481","0.0-141.0","","","2-2","3998","38","0","Training","Stims/Figures/19-J-10-4.bmp","mala:la","Up","40","9","10","7","S","J","138"
"","","approach-retreat","142","804072","0.0-142.0","","","2-2","4080","38","1","Training","Stims/Figures/111-J-10-3.bmp","na:mana","Down","38","9","11","7","S","J","139"
"","","approach-retreat","143","809694","0.0-143.0","","","2-2","4101","39","0","Training","Stims/Figures/57-J-0-1.bmp","ta:pa:ta","Right","37","9","12","7","P","J","140"
"","","approach-retreat","144","815181","0.0-144.0","","","2-2","3977","38","1","Training","Stims/Figures/118-C-20-2.bmp","tapaka","Up","38","9","13","7","P","J","141"
"","","approach-retreat","145","820679","0.0-145.0","","","2-2","3987","38","1","Training","Stims/Figures/57-C-30-1.bmp","pa:kaka","Up","38","9","14","7","P","J","142"
"","","approach-retreat","146","826325","0.0-146.0","","","2-2","4128","39","0","Training","Stims/Figures/102-J-10-4.bmp","ma:ma:na","Right","37","9","15","7","S","J","143"
"","","approach-retreat","147","831999","0.0-147.0","","","2-2","4162","37","0","Training","Stims/Figures/86-J-0-1.bmp","taka:ta","Left","39","9","16","7","P","J","144"
"14369","","instructions","148","846368","0.0-148.0","[{""page_index"":0,""viewing_time"":14368}]","","","","","","","","","","","","","","","",""
"","","approach-retreat","149","852104","0.0-149.0","","","2-2","4222","39","1","Testing","Stims/Figures/111-C-30-3.bmp","nala:la","Right","39","1","1","7","S","J","1"
"","","approach-retreat","150","857549","0.0-150.0","","","2-2","3934","38","0","Testing","Stims/Figures/100-J-10-3.bmp","malana","Up","40","1","2","7","S","J","2"
"","","approach-retreat","151","863244","0.0-151.0","","","2-2","4181","39","0","Testing","Stims/Figures/74-J-10-4.bmp","ma:lala","Right","37","1","3","7","S","J","3"
"","","approach-retreat","152","868879","0.0-152.0","","","2-2","4127","38","1","Testing","Stims/Figures/118-J-0-2.bmp","tapa:ka","Down","38","1","4","7","P","J","4"
"","","approach-retreat","153","874916","0.0-153.0","","","2-2","4527","37","0","Testing","Stims/Figures/57-C-30-1.bmp","pa:kaka","Right","39","1","5","7","P","J","5"
"","","approach-retreat","154","881803","0.0-154.0","","","2-2","5379","38","0","Testing","Stims/Figures/118-C-20-2.bmp","tapaka","Down","40","1","6","7","P","J","6"
"","","approach-retreat","155","887407","0.0-155.0","","","2-2","4090","37","0","Testing","Stims/Figures/93-J-0-1.bmp","paka:ka","Left","39","1","7","7","P","J","7"
"","","approach-retreat","156","893738","0.0-156.0","","","2-2","4824","38","1","Testing","Stims/Figures/86-C-30-1.bmp","ta:kaka","Up","38","1","8","7","P","J","8"
"","","approach-retreat","157","899475","0.0-157.0","","","2-2","4228","38","1","Testing","Stims/Figures/44-J-10-3.bmp","malala","Down","38","1","9","7","S","J","9"
"","","approach-retreat","158","905102","0.0-158.0","","","2-2","4118","39","0","Testing","Stims/Figures/139-C-20-2.bmp","takata","Left","37","1","10","7","P","J","10"
"","","approach-retreat","159","910863","0.0-159.0","","","2-2","4252","38","1","Testing","Stims/Figures/19-C-20-4.bmp","na:ma:la","Up","38","1","11","7","S","J","11"
"","","approach-retreat","160","916667","0.0-160.0","","","2-2","4296","38","1","Testing","Stims/Figures/19-J-10-4.bmp","mala:la","Down","38","1","12","7","S","J","12"
"","","approach-retreat","161","922488","0.0-161.0","","","2-2","4312","39","0","Testing","Stims/Figures/86-J-0-1.bmp","taka:ta","Right","37","1","13","7","P","J","13"
"","","approach-retreat","162","928324","0.0-162.0","","","2-2","4326","39","1","Testing","Stims/Figures/57-J-0-1.bmp","ta:pa:ta","Left","39","1","14","7","P","J","14"
"","","approach-retreat","163","934137","0.0-163.0","","","2-2","4304","38","0","Testing","Stims/Figures/93-C-30-1.bmp","pa:ka:ta","Down","40","1","15","7","P","J","15"
"","","approach-retreat","164","939820","0.0-164.0","","","2-2","4172","38","0","Testing","Stims/Figures/102-J-10-4.bmp","ma:ma:na","Up","40","1","16","7","S","J","16"
"","","approach-retreat","165","945556","0.0-165.0","","","2-2","4224","38","1","Testing","Stims/Figures/102-C-20-4.bmp","namala","Up","38","1","17","7","S","J","17"
"","","approach-retreat","166","951919","0.0-166.0","","","2-2","4850","39","0","Testing","Stims/Figures/100-C-30-3.bmp","namana","Left","37","1","18","7","S","J","18"
"","","approach-retreat","167","957479","0.0-167.0","","","2-2","4035","39","0","Testing","Stims/Figures/84-C-20-2.bmp","ta:pa:ka","Left","37","1","19","7","P","J","19"
"","","approach-retreat","168","963360","0.0-168.0","","","2-2","4373","38","1","Testing","Stims/Figures/44-C-30-3.bmp","mama:la","Up","38","1","20","7","S","J","20"
"","","approach-retreat","169","969843","0.0-169.0","","","2-2","4976","38","1","Testing","Stims/Figures/139-J-0-2.bmp","tapata","Down","38","1","21","7","P","J","21"
"","","approach-retreat","170","976140","0.0-170.0","","","2-2","4788","39","0","Testing","Stims/Figures/74-C-20-4.bmp","ma:ma:la","Left","37","1","22","7","S","J","22"
"","","approach-retreat","171","982003","0.0-171.0","","","2-2","4349","39","0","Testing","Stims/Figures/84-J-0-2.bmp","pa:pa:ka","Right","37","1","23","7","P","J","23"
"","","approach-retreat","172","987599","0.0-172.0","","","2-2","4085","39","0","Testing","Stims/Figures/111-J-10-3.bmp","na:mana","Right","37","1","24","7","S","J","24"
"","","approach-retreat","173","993406","0.0-173.0","","","2-2","4297","38","1","Testing","Stims/Figures/86-C-30-1.bmp","ta:kaka","Up","38","2","1","7","P","J","25"
"","","approach-retreat","174","999764","0.0-174.0","","","2-2","4850","39","0","Testing","Stims/Figures/100-C-30-3.bmp","namana","Left","37","2","2","7","S","J","26"
"","","approach-retreat","175","1005424","0.0-175.0","","","2-2","4148","38","0","Testing","Stims/Figures/100-J-10-3.bmp","malana","Up","40","2","3","7","S","J","27"
"","","approach-retreat","176","1011129","0.0-176.0","","","2-2","4195","39","0","Testing","Stims/Figures/74-C-20-4.bmp","ma:ma:la","Left","37","2","4","7","S","J","28"
"","","approach-retreat","177","1016696","0.0-177.0","","","2-2","4059","39","0","Testing","Stims/Figures/102-J-10-4.bmp","ma:ma:na","Right","37","2","5","7","S","J","29"
"","","approach-retreat","178","1022705","0.0-178.0","","","2-2","4499","38","1","Testing","Stims/Figures/19-C-20-4.bmp","na:ma:la","Up","38","2","6","7","S","J","30"
"","","approach-retreat","179","1028487","0.0-179.0","","","2-2","4272","38","0","Testing","Stims/Figures/111-C-30-3.bmp","nala:la","Down","40","2","7","7","S","J","31"
"","","approach-retreat","180","1034410","0.0-180.0","","","2-2","4415","39","0","Testing","Stims/Figures/86-J-0-1.bmp","taka:ta","Right","37","2","8","7","P","J","32"
"","","approach-retreat","181","1040321","0.0-181.0","","","2-2","4403","39","0","Testing","Stims/Figures/44-J-10-3.bmp","malala","Right","37","2","9","7","S","J","33"
"","","approach-retreat","182","1046131","0.0-182.0","","","2-2","4300","39","1","Testing","Stims/Figures/139-C-20-2.bmp","takata","Right","39","2","10","7","P","J","34"
"","","approach-retreat","183","1051867","0.0-183.0","","","2-2","4227","39","0","Testing","Stims/Figures/118-C-20-2.bmp","tapaka","Left","37","2","11","7","P","J","35"
"","","approach-retreat","184","1058630","0.0-184.0","","","2-2","5253","38","0","Testing","Stims/Figures/74-J-10-4.bmp","ma:lala","Up","40","2","12","7","S","J","36"
"","","approach-retreat","185","1064157","0.0-185.0","","","2-2","4017","38","1","Testing","Stims/Figures/93-J-0-1.bmp","paka:ka","Down","38","2","13","7","P","J","37"
"","","approach-retreat","186","1070164","0.0-186.0","","","2-2","4499","39","1","Testing","Stims/Figures/57-J-0-1.bmp","ta:pa:ta","Left","39","2","14","7","P","J","38"
"","","approach-retreat","187","1076109","0.0-187.0","","","2-2","4439","39","0","Testing","Stims/Figures/102-C-20-4.bmp","namala","Left","37","2","15","7","S","J","39"
"","","approach-retreat","188","1081811","0.0-188.0","","","2-2","4191","39","1","Testing","Stims/Figures/118-J-0-2.bmp","tapa:ka","Left","39","2","16","7","P","J","40"
"","","approach-retreat","189","1089115","0.0-189.0","","","2-2","5794","38","0","Testing","Stims/Figures/84-C-20-2.bmp","ta:pa:ka","Down","40","2","17","7","P","J","41"
"","","approach-retreat","190","1094729","0.0-190.0","","","2-2","4100","39","0","Testing","Stims/Figures/19-J-10-4.bmp","mala:la","Right","37","2","18","7","S","J","42"
"","","approach-retreat","191","1100223","0.0-191.0","","","2-2","3983","38","1","Testing","Stims/Figures/111-J-10-3.bmp","na:mana","Down","38","2","19","7","S","J","43"
"","","approach-retreat","192","1106116","0.0-192.0","","","2-2","4382","39","1","Testing","Stims/Figures/57-C-30-1.bmp","pa:kaka","Right","39","2","20","7","P","J","44"
"","","approach-retreat","193","1111739","0.0-193.0","","","2-2","4116","38","1","Testing","Stims/Figures/84-J-0-2.bmp","pa:pa:ka","Down","38","2","21","7","P","J","45"
"","","approach-retreat","194","1117275","0.0-194.0","","","2-2","4021","38","0","Testing","Stims/Figures/139-J-0-2.bmp","tapata","Up","40","2","22","7","P","J","46"
"","","approach-retreat","195","1122917","0.0-195.0","","","2-2","4132","38","0","Testing","Stims/Figures/44-C-30-3.bmp","mama:la","Down","40","2","23","7","S","J","47"
"","","approach-retreat","196","1128569","0.0-196.0","","","2-2","4140","38","1","Testing","Stims/Figures/93-C-30-1.bmp","pa:ka:ta","Up","38","2","24","7","P","J","48"
"","","approach-retreat","197","1134520","0.0-197.0","","","2-2","4439","39","0","Testing","Stims/Figures/86-J-0-1.bmp","taka:ta","Right","37","3","1","7","P","J","49"
"","","approach-retreat","198","1140590","0.0-198.0","","","2-2","4560","38","1","Testing","Stims/Figures/19-C-20-4.bmp","na:ma:la","Up","38","3","2","7","S","J","50"
"","","approach-retreat","199","1146274","0.0-199.0","","","2-2","4174","38","0","Testing","Stims/Figures/74-C-20-4.bmp","ma:ma:la","Down","40","3","3","7","S","J","51"
"","","approach-retreat","200","1151978","0.0-200.0","","","2-2","4194","39","1","Testing","Stims/Figures/57-J-0-1.bmp","ta:pa:ta","Left","39","3","4","7","P","J","52"
"","","approach-retreat","201","1157652","0.0-201.0","","","2-2","4163","40","0","Testing","Stims/Figures/93-J-0-1.bmp","paka:ka","Down","38","3","5","7","P","J","53"
"","","approach-retreat","202","1164643","0.0-202.0","","","2-2","5480","39","0","Testing","Stims/Figures/111-J-10-3.bmp","na:mana","Right","37","3","6","7","S","J","54"
"","","approach-retreat","203","1171410","0.0-203.0","","","2-2","5260","38","0","Testing","Stims/Figures/100-J-10-3.bmp","malana","Up","40","3","7","7","S","J","55"
"","","approach-retreat","204","1177290","0.0-204.0","","","2-2","4370","38","0","Testing","Stims/Figures/86-C-30-1.bmp","ta:kaka","Down","40","3","8","7","P","J","56"
"","","approach-retreat","205","1182947","0.0-205.0","","","2-2","4146","38","1","Testing","Stims/Figures/44-C-30-3.bmp","mama:la","Up","38","3","9","7","S","J","57"
"","","approach-retreat","206","1189209","0.0-206.0","","","2-2","4748","39","1","Testing","Stims/Figures/118-C-20-2.bmp","tapaka","Right","39","3","10","7","P","J","58"
"","","approach-retreat","207","1196039","0.0-207.0","","","2-2","5321","38","0","Testing","Stims/Figures/102-C-20-4.bmp","namala","Down","40","3","11","7","S","J","59"
"","","approach-retreat","208","1202477","0.0-208.0","","","2-2","4923","39","1","Testing","Stims/Figures/57-C-30-1.bmp","pa:kaka","Right","39","3","12","7","P","J","60"
"","","approach-retreat","209","1208920","0.0-209.0","","","2-2","4934","37","0","Testing","Stims/Figures/139-J-0-2.bmp","tapata","Left","39","3","13","7","P","J","61"
"","","approach-retreat","210","1215269","0.0-210.0","","","2-2","4842","39","1","Testing","Stims/Figures/118-J-0-2.bmp","tapa:ka","Left","39","3","14","7","P","J","62"
"","","approach-retreat","211","1221044","0.0-211.0","","","2-2","4265","39","0","Testing","Stims/Figures/102-J-10-4.bmp","ma:ma:na","Right","37","3","15","7","S","J","63"
"","","approach-retreat","212","1226856","0.0-212.0","","","2-2","4303","39","0","Testing","Stims/Figures/139-C-20-2.bmp","takata","Left","37","3","16","7","P","J","64"
"","","approach-retreat","213","1232540","0.0-213.0","","","2-2","4170","39","0","Testing","Stims/Figures/93-C-30-1.bmp","pa:ka:ta","Left","37","3","17","7","P","J","65"
"","","approach-retreat","214","1238650","0.0-214.0","","","2-2","4600","38","0","Testing","Stims/Figures/84-J-0-2.bmp","pa:pa:ka","Up","40","3","18","7","P","J","66"
"","","approach-retreat","215","1244350","0.0-215.0","","","2-2","4187","38","1","Testing","Stims/Figures/100-C-30-3.bmp","namana","Up","38","3","19","7","S","J","67"
"","","approach-retreat","216","1250780","0.0-216.0","","","2-2","4920","38","0","Testing","Stims/Figures/44-J-10-3.bmp","malala","Up","40","3","20","7","S","J","68"
"","","approach-retreat","217","1256588","0.0-217.0","","","2-2","4297","39","0","Testing","Stims/Figures/84-C-20-2.bmp","ta:pa:ka","Left","37","3","21","7","P","J","69"
"","","approach-retreat","218","1262604","0.0-218.0","","","2-2","4506","39","1","Testing","Stims/Figures/111-C-30-3.bmp","nala:la","Right","39","3","22","7","S","J","70"
"","","approach-retreat","219","1268428","0.0-219.0","","","2-2","4317","38","1","Testing","Stims/Figures/74-J-10-4.bmp","ma:lala","Down","38","3","23","7","S","J","71"
"","","approach-retreat","220","1274449","0.0-220.0","","","2-2","4510","40","0","Testing","Stims/Figures/19-J-10-4.bmp","mala:la","Down","38","3","24","7","S","J","72"
"","","approach-retreat","221","1280366","0.0-221.0","","","2-2","4406","38","1","Testing","Stims/Figures/57-J-0-1.bmp","ta:pa:ta","Down","38","4","1","7","P","J","73"
"","","approach-retreat","222","1286404","0.0-222.0","","","2-2","4532","38","0","Testing","Stims/Figures/118-J-0-2.bmp","tapa:ka","Up","40","4","2","7","P","J","74"
"","","approach-retreat","223","1291909","0.0-223.0","","","2-2","3998","39","1","Testing","Stims/Figures/118-C-20-2.bmp","tapaka","Right","39","4","3","7","P","J","75"
"","","approach-retreat","224","1297544","0.0-224.0","","","2-2","4120","37","1","Testing","Stims/Figures/74-C-20-4.bmp","ma:ma:la","Left","37","4","4","7","S","J","76"
"","","approach-retreat","225","1303344","0.0-225.0","","","2-2","4290","39","0","Testing","Stims/Figures/139-J-0-2.bmp","tapata","Right","37","4","5","7","P","J","77"
"","","approach-retreat","226","1309770","0.0-226.0","","","2-2","4915","37","0","Testing","Stims/Figures/86-J-0-1.bmp","taka:ta","Left","39","4","6","7","P","J","78"
"","","approach-retreat","227","1315338","0.0-227.0","","","2-2","4058","39","0","Testing","Stims/Figures/74-J-10-4.bmp","ma:lala","Right","37","4","7","7","S","J","79"
"","","approach-retreat","228","1320970","0.0-228.0","","","2-2","4119","38","0","Testing","Stims/Figures/111-C-30-3.bmp","nala:la","Down","40","4","8","7","S","J","80"
"","","approach-retreat","229","1326614","0.0-229.0","","","2-2","4137","39","1","Testing","Stims/Figures/102-C-20-4.bmp","namala","Right","39","4","9","7","S","J","81"
"","","approach-retreat","230","1332230","0.0-230.0","","","2-2","4106","39","1","Testing","Stims/Figures/93-J-0-1.bmp","paka:ka","Left","39","4","10","7","P","J","82"
"","","approach-retreat","231","1338053","0.0-231.0","","","2-2","4317","38","0","Testing","Stims/Figures/84-J-0-2.bmp","pa:pa:ka","Up","40","4","11","7","P","J","83"
"","","approach-retreat","232","1343970","0.0-232.0","","","2-2","4406","38","1","Testing","Stims/Figures/139-C-20-2.bmp","takata","Up","38","4","12","7","P","J","84"
"","","approach-retreat","233","1349584","0.0-233.0","","","2-2","4105","38","1","Testing","Stims/Figures/86-C-30-1.bmp","ta:kaka","Up","38","4","13","7","P","J","85"
"","","approach-retreat","234","1356778","0.0-234.0","","","2-2","5683","39","1","Testing","Stims/Figures/19-J-10-4.bmp","mala:la","Left","39","4","14","7","S","J","86"
"","","approach-retreat","235","1362547","0.0-235.0","","","2-2","4255","39","0","Testing","Stims/Figures/84-C-20-2.bmp","ta:pa:ka","Left","37","4","15","7","P","J","87"
"","","approach-retreat","236","1368127","0.0-236.0","","","2-2","4066","38","0","Testing","Stims/Figures/111-J-10-3.bmp","na:mana","Up","40","4","16","7","S","J","88"
"","","approach-retreat","237","1373714","0.0-237.0","","","2-2","4077","39","1","Testing","Stims/Figures/93-C-30-1.bmp","pa:ka:ta","Right","39","4","17","7","P","J","89"
"","","approach-retreat","238","1379300","0.0-238.0","","","2-2","4080","38","1","Testing","Stims/Figures/44-C-30-3.bmp","mama:la","Up","38","4","18","7","S","J","90"
"","","approach-retreat","239","1385148","0.0-239.0","","","2-2","4341","38","0","Testing","Stims/Figures/57-C-30-1.bmp","pa:kaka","Down","40","4","19","7","P","J","91"
"","","approach-retreat","240","1390790","0.0-240.0","","","2-2","4132","39","0","Testing","Stims/Figures/100-J-10-3.bmp","malana","Right","37","4","20","7","S","J","92"
"","","approach-retreat","241","1396987","0.0-241.0","","","2-2","4687","39","1","Testing","Stims/Figures/102-J-10-4.bmp","ma:ma:na","Left","39","4","21","7","S","J","93"
"","","approach-retreat","242","1403010","0.0-242.0","","","2-2","4514","38","0","Testing","Stims/Figures/100-C-30-3.bmp","namana","Down","40","4","22","7","S","J","94"
"","","approach-retreat","243","1408563","0.0-243.0","","","2-2","4045","38","1","Testing","Stims/Figures/44-J-10-3.bmp","malala","Down","38","4","23","7","S","J","95"
"","","approach-retreat","244","1414434","0.0-244.0","","","2-2","4360","38","0","Testing","Stims/Figures/19-C-20-4.bmp","na:ma:la","Down","40","4","24","7","S","J","96"
"20524","","survey-text","245","1434964","0.0-245.0","","{""Q0"":""1030/2018""}","","","","","","","","","","","","","","",""
