\"rt\",\"key_press\",\"trial_type\",\"trial_index\",\"time_elapsed\",\"internal_node_id\",\"view_history\",\"responses\",\"Id\",\"Rt\",\"ResKeyCode\",\"ResCorr\",\"TrialType2\",\"Image\",\"Label\",\"Location\",\"CorrectResponse\",\"Block\",\"BlockTrial\",\"Condition\",\"LabelType\",\"Subcondition\",\"trialNum\"
\"29932\",\"32\",\"text\",\"0\",\"29948\",\"0.0-0.0-0.0\",\"\",\"\",\"\",\"\",\"\",\"\",\"\",\"\",\"\",\"\",\"\",\"\",\"\",\"\",\"\",\"\",\"\"
\"53159\",\"\",\"instructions\",\"1\",\"83121\",\"0.0-1.0\",\"[{\"\"page_index\"\":0,\"\"viewing_time\"\":53155}]\",\"\",\"\",\"\",\"\",\"\",\"\",\"\",\"\",\"\",\"\",\"\",\"\",\"\",\"\",\"\",\"\"
\"21281\",\"\",\"survey-multi-choice\",\"2\",\"104474\",\"0.0-2.0\",\"\",\"{\"\"Q0\"\":\"\"Da\"\",\"\"Q1\"\":\"\"Da\"\",\"\"Q2\"\":\"\"Da\"\",\"\"Q3\"\":\"\"Da\"\",\"\"Q4\"\":\"\"Da\"\",\"\"Q5\"\":\"\"Da\"\"}\",\"\",\"\",\"\",\"\",\"\",\"\",\"\",\"\",\"\",\"\",\"\",\"\",\"\",\"\",\"\"
\"\",\"\",\"bio\",\"3\",\"113942\",\"0.0-3.0\",\"\",\"{\"\"age\"\":\"\"19\"\",\"\"gender\"\":\"\"f\"\",\"\"specify\"\":\"\"\"\"}\",\"\",\"\",\"\",\"\",\"\",\"\",\"\",\"\",\"\",\"\",\"\",\"\",\"\",\"\",\"\"
\"\",\"\",\"approach-retreat\",\"4\",\"122392\",\"0.0-4.0\",\"\",\"\",\"1-5\",\"6922\",\"39\",\"0\",\"Training\",\"Stims/Figures/87-C-20-4.bmp\",\"zasaha\",\"Left\",\"37\",\"1\",\"1\",\"3A\",\"C2\",\"J\",\"1\"
\"\",\"\",\"approach-retreat\",\"5\",\"129872\",\"0.0-5.0\",\"\",\"\",\"1-5\",\"5959\",\"38\",\"1\",\"Training\",\"Stims/Figures/44-C-30-3.bmp\",\"zasaha\",\"Up\",\"38\",\"1\",\"2\",\"3A\",\"C2\",\"J\",\"2\"
\"\",\"\",\"approach-retreat\",\"6\",\"136514\",\"0.0-6.0\",\"\",\"\",\"1-5\",\"5125\",\"39\",\"1\",\"Training\",\"Stims/Figures/87-J-10-4.bmp\",\"fa:fasha\",\"Left\",\"39\",\"1\",\"3\",\"3A\",\"C1\",\"J\",\"3\"
\"\",\"\",\"approach-retreat\",\"7\",\"143384\",\"0.0-7.0\",\"\",\"\",\"1-5\",\"5353\",\"39\",\"1\",\"Training\",\"Stims/Figures/144-C-30-3.bmp\",\"zasaha\",\"Right\",\"39\",\"1\",\"4\",\"3A\",\"C2\",\"J\",\"4\"
\"\",\"\",\"approach-retreat\",\"8\",\"149884\",\"0.0-8.0\",\"\",\"\",\"1-5\",\"4982\",\"40\",\"0\",\"Training\",\"Stims/Figures/102-J-10-4.bmp\",\"fa:fasha\",\"Down\",\"38\",\"1\",\"5\",\"3A\",\"C1\",\"J\",\"5\"
\"\",\"\",\"approach-retreat\",\"9\",\"157220\",\"0.0-9.0\",\"\",\"\",\"1-5\",\"5809\",\"37\",\"0\",\"Training\",\"Stims/Figures/139-J-0-2.bmp\",\"fa:fasha\",\"Left\",\"39\",\"1\",\"6\",\"3A\",\"C1\",\"J\",\"6\"
\"\",\"\",\"approach-retreat\",\"10\",\"163442\",\"0.0-10.0\",\"\",\"\",\"1-5\",\"4698\",\"37\",\"1\",\"Training\",\"Stims/Figures/27-J-0-1.bmp\",\"fa:fasha\",\"Right\",\"37\",\"1\",\"7\",\"3A\",\"C1\",\"J\",\"7\"
\"\",\"\",\"approach-retreat\",\"11\",\"169227\",\"0.0-11.0\",\"\",\"\",\"1-5\",\"4264\",\"39\",\"1\",\"Training\",\"Stims/Figures/139-C-20-2.bmp\",\"zasaha\",\"Right\",\"39\",\"1\",\"8\",\"3A\",\"C2\",\"J\",\"8\"
\"\",\"\",\"approach-retreat\",\"12\",\"177293\",\"0.0-12.0\",\"\",\"\",\"1-5\",\"6551\",\"40\",\"1\",\"Training\",\"Stims/Figures/27-C-30-1.bmp\",\"zasaha\",\"Down\",\"40\",\"1\",\"9\",\"3A\",\"C2\",\"J\",\"9\"
\"\",\"\",\"approach-retreat\",\"13\",\"183407\",\"0.0-13.0\",\"\",\"\",\"1-5\",\"4588\",\"39\",\"1\",\"Training\",\"Stims/Figures/144-J-10-3.bmp\",\"fa:fasha\",\"Left\",\"39\",\"1\",\"10\",\"3A\",\"C1\",\"J\",\"10\"
\"\",\"\",\"approach-retreat\",\"14\",\"188806\",\"0.0-14.0\",\"\",\"\",\"1-5\",\"3869\",\"40\",\"0\",\"Training\",\"Stims/Figures/102-C-20-4.bmp\",\"zasaha\",\"Up\",\"38\",\"1\",\"11\",\"3A\",\"C2\",\"J\",\"11\"
\"\",\"\",\"approach-retreat\",\"15\",\"196324\",\"0.0-15.0\",\"\",\"\",\"1-5\",\"5989\",\"40\",\"1\",\"Training\",\"Stims/Figures/93-J-0-1.bmp\",\"fa:fasha\",\"Up\",\"40\",\"1\",\"12\",\"3A\",\"C1\",\"J\",\"12\"
\"\",\"\",\"approach-retreat\",\"16\",\"203980\",\"0.0-16.0\",\"\",\"\",\"1-5\",\"6143\",\"38\",\"1\",\"Training\",\"Stims/Figures/118-C-20-2.bmp\",\"zasaha\",\"Up\",\"38\",\"1\",\"13\",\"3A\",\"C2\",\"J\",\"13\"
\"\",\"\",\"approach-retreat\",\"17\",\"210224\",\"0.0-17.0\",\"\",\"\",\"1-5\",\"4715\",\"39\",\"0\",\"Training\",\"Stims/Figures/118-J-0-2.bmp\",\"fa:fasha\",\"Right\",\"37\",\"1\",\"14\",\"3A\",\"C1\",\"J\",\"14\"
\"\",\"\",\"approach-retreat\",\"18\",\"217863\",\"0.0-18.0\",\"\",\"\",\"1-5\",\"6107\",\"38\",\"1\",\"Training\",\"Stims/Figures/44-J-10-3.bmp\",\"fa:fasha\",\"Down\",\"38\",\"1\",\"15\",\"3A\",\"C1\",\"J\",\"15\"
\"\",\"\",\"approach-retreat\",\"19\",\"223927\",\"0.0-19.0\",\"\",\"\",\"1-5\",\"4548\",\"38\",\"0\",\"Training\",\"Stims/Figures/93-C-30-1.bmp\",\"zasaha\",\"Down\",\"40\",\"1\",\"16\",\"3A\",\"C2\",\"J\",\"16\"
\"\",\"\",\"approach-retreat\",\"20\",\"230046\",\"0.0-20.0\",\"\",\"\",\"1-5\",\"4589\",\"37\",\"1\",\"Training\",\"Stims/Figures/102-C-20-4.bmp\",\"zasaha\",\"Left\",\"37\",\"2\",\"1\",\"3A\",\"C2\",\"J\",\"17\"
\"\",\"\",\"approach-retreat\",\"21\",\"237658\",\"0.0-21.0\",\"\",\"\",\"1-5\",\"6095\",\"40\",\"1\",\"Training\",\"Stims/Figures/118-J-0-2.bmp\",\"fa:fasha\",\"Up\",\"40\",\"2\",\"2\",\"3A\",\"C1\",\"J\",\"18\"
\"\",\"\",\"approach-retreat\",\"22\",\"243550\",\"0.0-22.0\",\"\",\"\",\"1-5\",\"4364\",\"39\",\"1\",\"Training\",\"Stims/Figures/87-C-20-4.bmp\",\"zasaha\",\"Right\",\"39\",\"2\",\"3\",\"3A\",\"C2\",\"J\",\"19\"
\"\",\"\",\"approach-retreat\",\"23\",\"250200\",\"0.0-23.0\",\"\",\"\",\"1-5\",\"5128\",\"39\",\"1\",\"Training\",\"Stims/Figures/44-J-10-3.bmp\",\"fa:fasha\",\"Left\",\"39\",\"2\",\"4\",\"3A\",\"C1\",\"J\",\"20\"
\"\",\"\",\"approach-retreat\",\"24\",\"257188\",\"0.0-24.0\",\"\",\"\",\"1-5\",\"5476\",\"37\",\"1\",\"Training\",\"Stims/Figures/139-J-0-2.bmp\",\"fa:fasha\",\"Right\",\"37\",\"2\",\"5\",\"3A\",\"C1\",\"J\",\"21\"
\"\",\"\",\"approach-retreat\",\"25\",\"263030\",\"0.0-25.0\",\"\",\"\",\"1-5\",\"4323\",\"37\",\"1\",\"Training\",\"Stims/Figures/27-C-30-1.bmp\",\"zasaha\",\"Left\",\"37\",\"2\",\"6\",\"3A\",\"C2\",\"J\",\"22\"
\"\",\"\",\"approach-retreat\",\"26\",\"268869\",\"0.0-26.0\",\"\",\"\",\"1-5\",\"4324\",\"39\",\"1\",\"Training\",\"Stims/Figures/27-J-0-1.bmp\",\"fa:fasha\",\"Left\",\"39\",\"2\",\"7\",\"3A\",\"C1\",\"J\",\"23\"
\"\",\"\",\"approach-retreat\",\"27\",\"275993\",\"0.0-27.0\",\"\",\"\",\"1-5\",\"5585\",\"38\",\"1\",\"Training\",\"Stims/Figures/93-C-30-1.bmp\",\"zasaha\",\"Up\",\"38\",\"2\",\"8\",\"3A\",\"C2\",\"J\",\"24\"
\"\",\"\",\"approach-retreat\",\"28\",\"282579\",\"0.0-28.0\",\"\",\"\",\"1-5\",\"5062\",\"40\",\"1\",\"Training\",\"Stims/Figures/44-C-30-3.bmp\",\"zasaha\",\"Down\",\"40\",\"2\",\"9\",\"3A\",\"C2\",\"J\",\"25\"
\"\",\"\",\"approach-retreat\",\"29\",\"288957\",\"0.0-29.0\",\"\",\"\",\"1-5\",\"4852\",\"38\",\"1\",\"Training\",\"Stims/Figures/139-C-20-2.bmp\",\"zasaha\",\"Up\",\"38\",\"2\",\"10\",\"3A\",\"C2\",\"J\",\"26\"
\"\",\"\",\"approach-retreat\",\"30\",\"295145\",\"0.0-30.0\",\"\",\"\",\"1-5\",\"4665\",\"38\",\"1\",\"Training\",\"Stims/Figures/118-C-20-2.bmp\",\"zasaha\",\"Up\",\"38\",\"2\",\"11\",\"3A\",\"C2\",\"J\",\"27\"
\"\",\"\",\"approach-retreat\",\"31\",\"301540\",\"0.0-31.0\",\"\",\"\",\"1-5\",\"4859\",\"38\",\"1\",\"Training\",\"Stims/Figures/144-J-10-3.bmp\",\"fa:fasha\",\"Down\",\"38\",\"2\",\"12\",\"3A\",\"C1\",\"J\",\"28\"
\"\",\"\",\"approach-retreat\",\"32\",\"308181\",\"0.0-32.0\",\"\",\"\",\"1-5\",\"5104\",\"40\",\"1\",\"Training\",\"Stims/Figures/144-C-30-3.bmp\",\"zasaha\",\"Down\",\"40\",\"2\",\"13\",\"3A\",\"C2\",\"J\",\"29\"
\"\",\"\",\"approach-retreat\",\"33\",\"314122\",\"0.0-33.0\",\"\",\"\",\"1-5\",\"4417\",\"38\",\"1\",\"Training\",\"Stims/Figures/102-J-10-4.bmp\",\"fa:fasha\",\"Down\",\"38\",\"2\",\"14\",\"3A\",\"C1\",\"J\",\"30\"
\"\",\"\",\"approach-retreat\",\"34\",\"320067\",\"0.0-34.0\",\"\",\"\",\"1-5\",\"4422\",\"37\",\"1\",\"Training\",\"Stims/Figures/87-J-10-4.bmp\",\"fa:fasha\",\"Right\",\"37\",\"2\",\"15\",\"3A\",\"C1\",\"J\",\"31\"
\"\",\"\",\"approach-retreat\",\"35\",\"326799\",\"0.0-35.0\",\"\",\"\",\"1-5\",\"5220\",\"37\",\"1\",\"Training\",\"Stims/Figures/93-J-0-1.bmp\",\"fa:fasha\",\"Right\",\"37\",\"2\",\"16\",\"3A\",\"C1\",\"J\",\"32\"
\"\",\"\",\"approach-retreat\",\"36\",\"333428\",\"0.0-36.0\",\"\",\"\",\"1-5\",\"5099\",\"39\",\"1\",\"Training\",\"Stims/Figures/87-C-20-4.bmp\",\"zasaha\",\"Right\",\"39\",\"3\",\"1\",\"3A\",\"C2\",\"J\",\"33\"
\"\",\"\",\"approach-retreat\",\"37\",\"339346\",\"0.0-37.0\",\"\",\"\",\"1-5\",\"4400\",\"37\",\"1\",\"Training\",\"Stims/Figures/27-C-30-1.bmp\",\"zasaha\",\"Left\",\"37\",\"3\",\"2\",\"3A\",\"C2\",\"J\",\"34\"
\"\",\"\",\"approach-retreat\",\"38\",\"345368\",\"0.0-38.0\",\"\",\"\",\"1-5\",\"4509\",\"37\",\"1\",\"Training\",\"Stims/Figures/93-C-30-1.bmp\",\"zasaha\",\"Left\",\"37\",\"3\",\"3\",\"3A\",\"C2\",\"J\",\"35\"
\"\",\"\",\"approach-retreat\",\"39\",\"351299\",\"0.0-39.0\",\"\",\"\",\"1-5\",\"4414\",\"37\",\"1\",\"Training\",\"Stims/Figures/27-J-0-1.bmp\",\"fa:fasha\",\"Right\",\"37\",\"3\",\"4\",\"3A\",\"C1\",\"J\",\"36\"
\"\",\"\",\"approach-retreat\",\"40\",\"356959\",\"0.0-40.0\",\"\",\"\",\"1-5\",\"4138\",\"40\",\"1\",\"Training\",\"Stims/Figures/87-J-10-4.bmp\",\"fa:fasha\",\"Up\",\"40\",\"3\",\"5\",\"3A\",\"C1\",\"J\",\"37\"
\"\",\"\",\"approach-retreat\",\"41\",\"363033\",\"0.0-41.0\",\"\",\"\",\"1-5\",\"4552\",\"38\",\"1\",\"Training\",\"Stims/Figures/93-J-0-1.bmp\",\"fa:fasha\",\"Down\",\"38\",\"3\",\"6\",\"3A\",\"C1\",\"J\",\"38\"
\"\",\"\",\"approach-retreat\",\"42\",\"369193\",\"0.0-42.0\",\"\",\"\",\"1-5\",\"4637\",\"39\",\"1\",\"Training\",\"Stims/Figures/144-C-30-3.bmp\",\"zasaha\",\"Right\",\"39\",\"3\",\"7\",\"3A\",\"C2\",\"J\",\"39\"
\"\",\"\",\"approach-retreat\",\"43\",\"375360\",\"0.0-43.0\",\"\",\"\",\"1-5\",\"4642\",\"38\",\"1\",\"Training\",\"Stims/Figures/118-C-20-2.bmp\",\"zasaha\",\"Up\",\"38\",\"3\",\"8\",\"3A\",\"C2\",\"J\",\"40\"
\"\",\"\",\"approach-retreat\",\"44\",\"381958\",\"0.0-44.0\",\"\",\"\",\"1-5\",\"5072\",\"37\",\"1\",\"Training\",\"Stims/Figures/118-J-0-2.bmp\",\"fa:fasha\",\"Right\",\"37\",\"3\",\"9\",\"3A\",\"C1\",\"J\",\"41\"
\"\",\"\",\"approach-retreat\",\"45\",\"387812\",\"0.0-45.0\",\"\",\"\",\"1-5\",\"4340\",\"39\",\"1\",\"Training\",\"Stims/Figures/44-J-10-3.bmp\",\"fa:fasha\",\"Left\",\"39\",\"3\",\"10\",\"3A\",\"C1\",\"J\",\"42\"
\"\",\"\",\"approach-retreat\",\"46\",\"393513\",\"0.0-46.0\",\"\",\"\",\"1-5\",\"4169\",\"38\",\"1\",\"Training\",\"Stims/Figures/102-J-10-4.bmp\",\"fa:fasha\",\"Down\",\"38\",\"3\",\"11\",\"3A\",\"C1\",\"J\",\"43\"
\"\",\"\",\"approach-retreat\",\"47\",\"399041\",\"0.0-47.0\",\"\",\"\",\"1-5\",\"3990\",\"40\",\"1\",\"Training\",\"Stims/Figures/144-J-10-3.bmp\",\"fa:fasha\",\"Up\",\"40\",\"3\",\"12\",\"3A\",\"C1\",\"J\",\"44\"
\"\",\"\",\"approach-retreat\",\"48\",\"404727\",\"0.0-48.0\",\"\",\"\",\"1-5\",\"4160\",\"38\",\"0\",\"Training\",\"Stims/Figures/102-C-20-4.bmp\",\"zasaha\",\"Down\",\"40\",\"3\",\"13\",\"3A\",\"C2\",\"J\",\"45\"
\"\",\"\",\"approach-retreat\",\"49\",\"410413\",\"0.0-49.0\",\"\",\"\",\"1-5\",\"4174\",\"39\",\"1\",\"Training\",\"Stims/Figures/139-J-0-2.bmp\",\"fa:fasha\",\"Left\",\"39\",\"3\",\"14\",\"3A\",\"C1\",\"J\",\"46\"
\"\",\"\",\"approach-retreat\",\"50\",\"416313\",\"0.0-50.0\",\"\",\"\",\"1-5\",\"4378\",\"40\",\"1\",\"Training\",\"Stims/Figures/139-C-20-2.bmp\",\"zasaha\",\"Down\",\"40\",\"3\",\"15\",\"3A\",\"C2\",\"J\",\"47\"
\"\",\"\",\"approach-retreat\",\"51\",\"424412\",\"0.0-51.0\",\"\",\"\",\"1-5\",\"6585\",\"38\",\"1\",\"Training\",\"Stims/Figures/44-C-30-3.bmp\",\"zasaha\",\"Up\",\"38\",\"3\",\"16\",\"3A\",\"C2\",\"J\",\"48\"
\"\",\"\",\"approach-retreat\",\"52\",\"431033\",\"0.0-52.0\",\"\",\"\",\"1-5\",\"5101\",\"40\",\"1\",\"Training\",\"Stims/Figures/27-C-30-1.bmp\",\"zasaha\",\"Down\",\"40\",\"4\",\"1\",\"3A\",\"C2\",\"J\",\"49\"
\"\",\"\",\"approach-retreat\",\"53\",\"437115\",\"0.0-53.0\",\"\",\"\",\"1-5\",\"4559\",\"37\",\"1\",\"Training\",\"Stims/Figures/144-C-30-3.bmp\",\"zasaha\",\"Left\",\"37\",\"4\",\"2\",\"3A\",\"C2\",\"J\",\"50\"
\"\",\"\",\"approach-retreat\",\"54\",\"444490\",\"0.0-54.0\",\"\",\"\",\"1-5\",\"5839\",\"37\",\"1\",\"Training\",\"Stims/Figures/139-J-0-2.bmp\",\"fa:fasha\",\"Right\",\"37\",\"4\",\"3\",\"3A\",\"C1\",\"J\",\"51\"
\"\",\"\",\"approach-retreat\",\"55\",\"450725\",\"0.0-55.0\",\"\",\"\",\"1-5\",\"4713\",\"39\",\"1\",\"Training\",\"Stims/Figures/144-J-10-3.bmp\",\"fa:fasha\",\"Left\",\"39\",\"4\",\"4\",\"3A\",\"C1\",\"J\",\"52\"
\"\",\"\",\"approach-retreat\",\"56\",\"457042\",\"0.0-56.0\",\"\",\"\",\"1-5\",\"4797\",\"37\",\"1\",\"Training\",\"Stims/Figures/118-J-0-2.bmp\",\"fa:fasha\",\"Right\",\"37\",\"4\",\"5\",\"3A\",\"C1\",\"J\",\"53\"
\"\",\"\",\"approach-retreat\",\"57\",\"462939\",\"0.0-57.0\",\"\",\"\",\"1-5\",\"4382\",\"37\",\"1\",\"Training\",\"Stims/Figures/44-C-30-3.bmp\",\"zasaha\",\"Left\",\"37\",\"4\",\"6\",\"3A\",\"C2\",\"J\",\"54\"
\"\",\"\",\"approach-retreat\",\"58\",\"469668\",\"0.0-58.0\",\"\",\"\",\"1-5\",\"5219\",\"39\",\"1\",\"Training\",\"Stims/Figures/102-J-10-4.bmp\",\"fa:fasha\",\"Left\",\"39\",\"4\",\"7\",\"3A\",\"C1\",\"J\",\"55\"
\"\",\"\",\"approach-retreat\",\"59\",\"476786\",\"0.0-59.0\",\"\",\"\",\"1-5\",\"5587\",\"40\",\"1\",\"Training\",\"Stims/Figures/27-J-0-1.bmp\",\"fa:fasha\",\"Up\",\"40\",\"4\",\"8\",\"3A\",\"C1\",\"J\",\"56\"
\"\",\"\",\"approach-retreat\",\"60\",\"483068\",\"0.0-60.0\",\"\",\"\",\"1-5\",\"4761\",\"39\",\"1\",\"Training\",\"Stims/Figures/118-C-20-2.bmp\",\"zasaha\",\"Right\",\"39\",\"4\",\"9\",\"3A\",\"C2\",\"J\",\"57\"
\"\",\"\",\"approach-retreat\",\"61\",\"488660\",\"0.0-61.0\",\"\",\"\",\"1-5\",\"4067\",\"40\",\"1\",\"Training\",\"Stims/Figures/93-J-0-1.bmp\",\"fa:fasha\",\"Up\",\"40\",\"4\",\"10\",\"3A\",\"C1\",\"J\",\"58\"
\"\",\"\",\"approach-retreat\",\"62\",\"495447\",\"0.0-62.0\",\"\",\"\",\"1-5\",\"5263\",\"38\",\"1\",\"Training\",\"Stims/Figures/102-C-20-4.bmp\",\"zasaha\",\"Up\",\"38\",\"4\",\"11\",\"3A\",\"C2\",\"J\",\"59\"
\"\",\"\",\"approach-retreat\",\"63\",\"501285\",\"0.0-63.0\",\"\",\"\",\"1-5\",\"4317\",\"40\",\"1\",\"Training\",\"Stims/Figures/87-J-10-4.bmp\",\"fa:fasha\",\"Up\",\"40\",\"4\",\"12\",\"3A\",\"C1\",\"J\",\"60\"
\"\",\"\",\"approach-retreat\",\"64\",\"507007\",\"0.0-64.0\",\"\",\"\",\"1-5\",\"4210\",\"38\",\"1\",\"Training\",\"Stims/Figures/44-J-10-3.bmp\",\"fa:fasha\",\"Down\",\"38\",\"4\",\"13\",\"3A\",\"C1\",\"J\",\"61\"
\"\",\"\",\"approach-retreat\",\"65\",\"512744\",\"0.0-65.0\",\"\",\"\",\"1-5\",\"4214\",\"40\",\"1\",\"Training\",\"Stims/Figures/87-C-20-4.bmp\",\"zasaha\",\"Down\",\"40\",\"4\",\"14\",\"3A\",\"C2\",\"J\",\"62\"
\"\",\"\",\"approach-retreat\",\"66\",\"519192\",\"0.0-66.0\",\"\",\"\",\"1-5\",\"4932\",\"40\",\"1\",\"Training\",\"Stims/Figures/139-C-20-2.bmp\",\"zasaha\",\"Down\",\"40\",\"4\",\"15\",\"3A\",\"C2\",\"J\",\"63\"
\"\",\"\",\"approach-retreat\",\"67\",\"525326\",\"0.0-67.0\",\"\",\"\",\"1-5\",\"4596\",\"39\",\"1\",\"Training\",\"Stims/Figures/93-C-30-1.bmp\",\"zasaha\",\"Right\",\"39\",\"4\",\"16\",\"3A\",\"C2\",\"J\",\"64\"
\"\",\"\",\"approach-retreat\",\"68\",\"531510\",\"0.0-68.0\",\"\",\"\",\"1-5\",\"4659\",\"37\",\"1\",\"Training\",\"Stims/Figures/144-J-10-3.bmp\",\"fa:fasha\",\"Right\",\"37\",\"5\",\"1\",\"3A\",\"C1\",\"J\",\"65\"
\"\",\"\",\"approach-retreat\",\"69\",\"537479\",\"0.0-69.0\",\"\",\"\",\"1-5\",\"4451\",\"40\",\"1\",\"Training\",\"Stims/Figures/87-C-20-4.bmp\",\"zasaha\",\"Down\",\"40\",\"5\",\"2\",\"3A\",\"C2\",\"J\",\"66\"
\"\",\"\",\"approach-retreat\",\"70\",\"543189\",\"0.0-70.0\",\"\",\"\",\"1-5\",\"4183\",\"40\",\"1\",\"Training\",\"Stims/Figures/27-J-0-1.bmp\",\"fa:fasha\",\"Up\",\"40\",\"5\",\"3\",\"3A\",\"C1\",\"J\",\"67\"
\"\",\"\",\"approach-retreat\",\"71\",\"549313\",\"0.0-71.0\",\"\",\"\",\"1-5\",\"4606\",\"40\",\"1\",\"Training\",\"Stims/Figures/102-J-10-4.bmp\",\"fa:fasha\",\"Up\",\"40\",\"5\",\"4\",\"3A\",\"C1\",\"J\",\"68\"
\"\",\"\",\"approach-retreat\",\"72\",\"554915\",\"0.0-72.0\",\"\",\"\",\"1-5\",\"4081\",\"40\",\"1\",\"Training\",\"Stims/Figures/139-J-0-2.bmp\",\"fa:fasha\",\"Up\",\"40\",\"5\",\"5\",\"3A\",\"C1\",\"J\",\"69\"
\"\",\"\",\"approach-retreat\",\"73\",\"561340\",\"0.0-73.0\",\"\",\"\",\"1-5\",\"4896\",\"37\",\"1\",\"Training\",\"Stims/Figures/93-J-0-1.bmp\",\"fa:fasha\",\"Right\",\"37\",\"5\",\"6\",\"3A\",\"C1\",\"J\",\"70\"
\"\",\"\",\"approach-retreat\",\"74\",\"567176\",\"0.0-74.0\",\"\",\"\",\"1-5\",\"4297\",\"37\",\"1\",\"Training\",\"Stims/Figures/118-J-0-2.bmp\",\"fa:fasha\",\"Right\",\"37\",\"5\",\"7\",\"3A\",\"C1\",\"J\",\"71\"
\"\",\"\",\"approach-retreat\",\"75\",\"573298\",\"0.0-75.0\",\"\",\"\",\"1-5\",\"4608\",\"39\",\"1\",\"Training\",\"Stims/Figures/87-J-10-4.bmp\",\"fa:fasha\",\"Left\",\"39\",\"5\",\"8\",\"3A\",\"C1\",\"J\",\"72\"
\"\",\"\",\"approach-retreat\",\"76\",\"579059\",\"0.0-76.0\",\"\",\"\",\"1-5\",\"4245\",\"39\",\"1\",\"Training\",\"Stims/Figures/144-C-30-3.bmp\",\"zasaha\",\"Right\",\"39\",\"5\",\"9\",\"3A\",\"C2\",\"J\",\"73\"
\"\",\"\",\"approach-retreat\",\"77\",\"585454\",\"0.0-77.0\",\"\",\"\",\"1-5\",\"4883\",\"38\",\"1\",\"Training\",\"Stims/Figures/44-C-30-3.bmp\",\"zasaha\",\"Up\",\"38\",\"5\",\"10\",\"3A\",\"C2\",\"J\",\"74\"
\"\",\"\",\"approach-retreat\",\"78\",\"591700\",\"0.0-78.0\",\"\",\"\",\"1-5\",\"4718\",\"40\",\"1\",\"Training\",\"Stims/Figures/102-C-20-4.bmp\",\"zasaha\",\"Down\",\"40\",\"5\",\"11\",\"3A\",\"C2\",\"J\",\"75\"
\"\",\"\",\"approach-retreat\",\"79\",\"597244\",\"0.0-79.0\",\"\",\"\",\"1-5\",\"4027\",\"39\",\"1\",\"Training\",\"Stims/Figures/44-J-10-3.bmp\",\"fa:fasha\",\"Left\",\"39\",\"5\",\"12\",\"3A\",\"C1\",\"J\",\"76\"
\"\",\"\",\"approach-retreat\",\"80\",\"603289\",\"0.0-80.0\",\"\",\"\",\"1-5\",\"4529\",\"37\",\"1\",\"Training\",\"Stims/Figures/27-C-30-1.bmp\",\"zasaha\",\"Left\",\"37\",\"5\",\"13\",\"3A\",\"C2\",\"J\",\"77\"
\"\",\"\",\"approach-retreat\",\"81\",\"609216\",\"0.0-81.0\",\"\",\"\",\"1-5\",\"4393\",\"37\",\"1\",\"Training\",\"Stims/Figures/93-C-30-1.bmp\",\"zasaha\",\"Left\",\"37\",\"5\",\"14\",\"3A\",\"C2\",\"J\",\"78\"
\"\",\"\",\"approach-retreat\",\"82\",\"616486\",\"0.0-82.0\",\"\",\"\",\"1-5\",\"5750\",\"40\",\"1\",\"Training\",\"Stims/Figures/118-C-20-2.bmp\",\"zasaha\",\"Down\",\"40\",\"5\",\"15\",\"3A\",\"C2\",\"J\",\"79\"
\"\",\"\",\"approach-retreat\",\"83\",\"622070\",\"0.0-83.0\",\"\",\"\",\"1-5\",\"4065\",\"40\",\"1\",\"Training\",\"Stims/Figures/139-C-20-2.bmp\",\"zasaha\",\"Down\",\"40\",\"5\",\"16\",\"3A\",\"C2\",\"J\",\"80\"
\"\",\"\",\"approach-retreat\",\"84\",\"627728\",\"0.0-84.0\",\"\",\"\",\"1-5\",\"4131\",\"39\",\"1\",\"Training\",\"Stims/Figures/118-J-0-2.bmp\",\"fa:fasha\",\"Left\",\"39\",\"6\",\"1\",\"3A\",\"C1\",\"J\",\"81\"
\"\",\"\",\"approach-retreat\",\"85\",\"633356\",\"0.0-85.0\",\"\",\"\",\"1-5\",\"4108\",\"40\",\"1\",\"Training\",\"Stims/Figures/93-J-0-1.bmp\",\"fa:fasha\",\"Up\",\"40\",\"6\",\"2\",\"3A\",\"C1\",\"J\",\"82\"
\"\",\"\",\"approach-retreat\",\"86\",\"638950\",\"0.0-86.0\",\"\",\"\",\"1-5\",\"4075\",\"37\",\"1\",\"Training\",\"Stims/Figures/93-C-30-1.bmp\",\"zasaha\",\"Left\",\"37\",\"6\",\"3\",\"3A\",\"C2\",\"J\",\"83\"
\"\",\"\",\"approach-retreat\",\"87\",\"644840\",\"0.0-87.0\",\"\",\"\",\"1-5\",\"4376\",\"40\",\"1\",\"Training\",\"Stims/Figures/27-J-0-1.bmp\",\"fa:fasha\",\"Up\",\"40\",\"6\",\"4\",\"3A\",\"C1\",\"J\",\"84\"
\"\",\"\",\"approach-retreat\",\"88\",\"650524\",\"0.0-88.0\",\"\",\"\",\"1-5\",\"4169\",\"38\",\"1\",\"Training\",\"Stims/Figures/87-J-10-4.bmp\",\"fa:fasha\",\"Down\",\"38\",\"6\",\"5\",\"3A\",\"C1\",\"J\",\"85\"
\"\",\"\",\"approach-retreat\",\"89\",\"656049\",\"0.0-89.0\",\"\",\"\",\"1-5\",\"3999\",\"40\",\"0\",\"Training\",\"Stims/Figures/118-C-20-2.bmp\",\"zasaha\",\"Up\",\"38\",\"6\",\"6\",\"3A\",\"C2\",\"J\",\"86\"
\"\",\"\",\"approach-retreat\",\"90\",\"662268\",\"0.0-90.0\",\"\",\"\",\"1-5\",\"4699\",\"40\",\"1\",\"Training\",\"Stims/Figures/27-C-30-1.bmp\",\"zasaha\",\"Down\",\"40\",\"6\",\"7\",\"3A\",\"C2\",\"J\",\"87\"
\"\",\"\",\"approach-retreat\",\"91\",\"668277\",\"0.0-91.0\",\"\",\"\",\"1-5\",\"4484\",\"39\",\"1\",\"Training\",\"Stims/Figures/87-C-20-4.bmp\",\"zasaha\",\"Right\",\"39\",\"6\",\"8\",\"3A\",\"C2\",\"J\",\"88\"
\"\",\"\",\"approach-retreat\",\"92\",\"673761\",\"0.0-92.0\",\"\",\"\",\"1-5\",\"3969\",\"40\",\"1\",\"Training\",\"Stims/Figures/102-C-20-4.bmp\",\"zasaha\",\"Down\",\"40\",\"6\",\"9\",\"3A\",\"C2\",\"J\",\"89\"
\"\",\"\",\"approach-retreat\",\"93\",\"679756\",\"0.0-93.0\",\"\",\"\",\"1-5\",\"4463\",\"39\",\"1\",\"Training\",\"Stims/Figures/44-C-30-3.bmp\",\"zasaha\",\"Right\",\"39\",\"6\",\"10\",\"3A\",\"C2\",\"J\",\"90\"
\"\",\"\",\"approach-retreat\",\"94\",\"685811\",\"0.0-94.0\",\"\",\"\",\"1-5\",\"4531\",\"39\",\"1\",\"Training\",\"Stims/Figures/144-J-10-3.bmp\",\"fa:fasha\",\"Left\",\"39\",\"6\",\"11\",\"3A\",\"C1\",\"J\",\"91\"
\"\",\"\",\"approach-retreat\",\"95\",\"692533\",\"0.0-95.0\",\"\",\"\",\"1-5\",\"5193\",\"39\",\"1\",\"Training\",\"Stims/Figures/144-C-30-3.bmp\",\"zasaha\",\"Right\",\"39\",\"6\",\"12\",\"3A\",\"C2\",\"J\",\"92\"
\"\",\"\",\"approach-retreat\",\"96\",\"698623\",\"0.0-96.0\",\"\",\"\",\"1-5\",\"4562\",\"37\",\"1\",\"Training\",\"Stims/Figures/139-J-0-2.bmp\",\"fa:fasha\",\"Right\",\"37\",\"6\",\"13\",\"3A\",\"C1\",\"J\",\"93\"
\"\",\"\",\"approach-retreat\",\"97\",\"705270\",\"0.0-97.0\",\"\",\"\",\"1-5\",\"5124\",\"40\",\"1\",\"Training\",\"Stims/Figures/139-C-20-2.bmp\",\"zasaha\",\"Down\",\"40\",\"6\",\"14\",\"3A\",\"C2\",\"J\",\"94\"
\"\",\"\",\"approach-retreat\",\"98\",\"711163\",\"0.0-98.0\",\"\",\"\",\"1-5\",\"4381\",\"39\",\"1\",\"Training\",\"Stims/Figures/44-J-10-3.bmp\",\"fa:fasha\",\"Left\",\"39\",\"6\",\"15\",\"3A\",\"C1\",\"J\",\"95\"
\"\",\"\",\"approach-retreat\",\"99\",\"716931\",\"0.0-99.0\",\"\",\"\",\"1-5\",\"4241\",\"40\",\"1\",\"Training\",\"Stims/Figures/102-J-10-4.bmp\",\"fa:fasha\",\"Up\",\"40\",\"6\",\"16\",\"3A\",\"C1\",\"J\",\"96\"
\"\",\"\",\"approach-retreat\",\"100\",\"722537\",\"0.0-100.0\",\"\",\"\",\"1-5\",\"4071\",\"39\",\"1\",\"Training\",\"Stims/Figures/144-J-10-3.bmp\",\"fa:fasha\",\"Left\",\"39\",\"7\",\"1\",\"3A\",\"C1\",\"J\",\"97\"
\"\",\"\",\"approach-retreat\",\"101\",\"728214\",\"0.0-101.0\",\"\",\"\",\"1-5\",\"4152\",\"40\",\"1\",\"Training\",\"Stims/Figures/87-J-10-4.bmp\",\"fa:fasha\",\"Up\",\"40\",\"7\",\"2\",\"3A\",\"C1\",\"J\",\"98\"
\"\",\"\",\"approach-retreat\",\"102\",\"733752\",\"0.0-102.0\",\"\",\"\",\"1-5\",\"4018\",\"40\",\"1\",\"Training\",\"Stims/Figures/93-J-0-1.bmp\",\"fa:fasha\",\"Up\",\"40\",\"7\",\"3\",\"3A\",\"C1\",\"J\",\"99\"
\"\",\"\",\"approach-retreat\",\"103\",\"739516\",\"0.0-103.0\",\"\",\"\",\"1-5\",\"4249\",\"38\",\"1\",\"Training\",\"Stims/Figures/27-J-0-1.bmp\",\"fa:fasha\",\"Down\",\"38\",\"7\",\"4\",\"3A\",\"C1\",\"J\",\"100\"
\"\",\"\",\"approach-retreat\",\"104\",\"745113\",\"0.0-104.0\",\"\",\"\",\"1-5\",\"4082\",\"40\",\"1\",\"Training\",\"Stims/Figures/93-C-30-1.bmp\",\"zasaha\",\"Down\",\"40\",\"7\",\"5\",\"3A\",\"C2\",\"J\",\"101\"
\"\",\"\",\"approach-retreat\",\"105\",\"750731\",\"0.0-105.0\",\"\",\"\",\"1-5\",\"4105\",\"38\",\"1\",\"Training\",\"Stims/Figures/27-C-30-1.bmp\",\"zasaha\",\"Up\",\"38\",\"7\",\"6\",\"3A\",\"C2\",\"J\",\"102\"
\"\",\"\",\"approach-retreat\",\"106\",\"756351\",\"0.0-106.0\",\"\",\"\",\"1-5\",\"4100\",\"39\",\"0\",\"Training\",\"Stims/Figures/118-J-0-2.bmp\",\"fa:fasha\",\"Right\",\"37\",\"7\",\"7\",\"3A\",\"C1\",\"J\",\"103\"
\"\",\"\",\"approach-retreat\",\"107\",\"761891\",\"0.0-107.0\",\"\",\"\",\"1-5\",\"4020\",\"40\",\"1\",\"Training\",\"Stims/Figures/87-C-20-4.bmp\",\"zasaha\",\"Down\",\"40\",\"7\",\"8\",\"3A\",\"C2\",\"J\",\"104\"
\"\",\"\",\"approach-retreat\",\"108\",\"767346\",\"0.0-108.0\",\"\",\"\",\"1-5\",\"3941\",\"39\",\"0\",\"Training\",\"Stims/Figures/102-J-10-4.bmp\",\"fa:fasha\",\"Right\",\"37\",\"7\",\"9\",\"3A\",\"C1\",\"J\",\"105\"
\"\",\"\",\"approach-retreat\",\"109\",\"772956\",\"0.0-109.0\",\"\",\"\",\"1-5\",\"4093\",\"40\",\"1\",\"Training\",\"Stims/Figures/102-C-20-4.bmp\",\"zasaha\",\"Down\",\"40\",\"7\",\"10\",\"3A\",\"C2\",\"J\",\"106\"
\"\",\"\",\"approach-retreat\",\"110\",\"778698\",\"0.0-110.0\",\"\",\"\",\"1-5\",\"4225\",\"39\",\"1\",\"Training\",\"Stims/Figures/144-C-30-3.bmp\",\"zasaha\",\"Right\",\"39\",\"7\",\"11\",\"3A\",\"C2\",\"J\",\"107\"
\"\",\"\",\"approach-retreat\",\"111\",\"784309\",\"0.0-111.0\",\"\",\"\",\"1-5\",\"4096\",\"39\",\"1\",\"Training\",\"Stims/Figures/139-J-0-2.bmp\",\"fa:fasha\",\"Left\",\"39\",\"7\",\"12\",\"3A\",\"C1\",\"J\",\"108\"
\"\",\"\",\"approach-retreat\",\"112\",\"791489\",\"0.0-112.0\",\"\",\"\",\"1-5\",\"5667\",\"38\",\"1\",\"Training\",\"Stims/Figures/139-C-20-2.bmp\",\"zasaha\",\"Up\",\"38\",\"7\",\"13\",\"3A\",\"C2\",\"J\",\"109\"
\"\",\"\",\"approach-retreat\",\"113\",\"797654\",\"0.0-113.0\",\"\",\"\",\"1-5\",\"4642\",\"37\",\"1\",\"Training\",\"Stims/Figures/118-C-20-2.bmp\",\"zasaha\",\"Left\",\"37\",\"7\",\"14\",\"3A\",\"C2\",\"J\",\"110\"
\"\",\"\",\"approach-retreat\",\"114\",\"803240\",\"0.0-114.0\",\"\",\"\",\"1-5\",\"4066\",\"37\",\"1\",\"Training\",\"Stims/Figures/44-C-30-3.bmp\",\"zasaha\",\"Left\",\"37\",\"7\",\"15\",\"3A\",\"C2\",\"J\",\"111\"
\"\",\"\",\"approach-retreat\",\"115\",\"809983\",\"0.0-115.0\",\"\",\"\",\"1-5\",\"5220\",\"37\",\"1\",\"Training\",\"Stims/Figures/44-J-10-3.bmp\",\"fa:fasha\",\"Right\",\"37\",\"7\",\"16\",\"3A\",\"C1\",\"J\",\"112\"
\"\",\"\",\"approach-retreat\",\"116\",\"815626\",\"0.0-116.0\",\"\",\"\",\"1-5\",\"4098\",\"37\",\"1\",\"Training\",\"Stims/Figures/44-C-30-3.bmp\",\"zasaha\",\"Left\",\"37\",\"8\",\"1\",\"3A\",\"C2\",\"J\",\"113\"
\"\",\"\",\"approach-retreat\",\"117\",\"821003\",\"0.0-117.0\",\"\",\"\",\"1-5\",\"3855\",\"40\",\"1\",\"Training\",\"Stims/Figures/118-C-20-2.bmp\",\"zasaha\",\"Down\",\"40\",\"8\",\"2\",\"3A\",\"C2\",\"J\",\"114\"
\"\",\"\",\"approach-retreat\",\"118\",\"827554\",\"0.0-118.0\",\"\",\"\",\"1-5\",\"5033\",\"37\",\"1\",\"Training\",\"Stims/Figures/102-J-10-4.bmp\",\"fa:fasha\",\"Right\",\"37\",\"8\",\"3\",\"3A\",\"C1\",\"J\",\"115\"
\"\",\"\",\"approach-retreat\",\"119\",\"833932\",\"0.0-119.0\",\"\",\"\",\"1-5\",\"4859\",\"39\",\"1\",\"Training\",\"Stims/Figures/27-C-30-1.bmp\",\"zasaha\",\"Right\",\"39\",\"8\",\"4\",\"3A\",\"C2\",\"J\",\"116\"
\"\",\"\",\"approach-retreat\",\"120\",\"839686\",\"0.0-120.0\",\"\",\"\",\"1-5\",\"4228\",\"37\",\"0\",\"Training\",\"Stims/Figures/118-J-0-2.bmp\",\"fa:fasha\",\"Left\",\"39\",\"8\",\"5\",\"3A\",\"C1\",\"J\",\"117\"
\"\",\"\",\"approach-retreat\",\"121\",\"845848\",\"0.0-121.0\",\"\",\"\",\"1-5\",\"4651\",\"37\",\"1\",\"Training\",\"Stims/Figures/144-J-10-3.bmp\",\"fa:fasha\",\"Right\",\"37\",\"8\",\"6\",\"3A\",\"C1\",\"J\",\"118\"
\"\",\"\",\"approach-retreat\",\"122\",\"851894\",\"0.0-122.0\",\"\",\"\",\"1-5\",\"4529\",\"40\",\"1\",\"Training\",\"Stims/Figures/93-C-30-1.bmp\",\"zasaha\",\"Down\",\"40\",\"8\",\"7\",\"3A\",\"C2\",\"J\",\"119\"
\"\",\"\",\"approach-retreat\",\"123\",\"857932\",\"0.0-123.0\",\"\",\"\",\"1-5\",\"4510\",\"40\",\"0\",\"Training\",\"Stims/Figures/93-J-0-1.bmp\",\"fa:fasha\",\"Down\",\"38\",\"8\",\"8\",\"3A\",\"C1\",\"J\",\"120\"
\"\",\"\",\"approach-retreat\",\"124\",\"863488\",\"0.0-124.0\",\"\",\"\",\"1-5\",\"4043\",\"40\",\"1\",\"Training\",\"Stims/Figures/139-J-0-2.bmp\",\"fa:fasha\",\"Up\",\"40\",\"8\",\"9\",\"3A\",\"C1\",\"J\",\"121\"
\"\",\"\",\"approach-retreat\",\"125\",\"869840\",\"0.0-125.0\",\"\",\"\",\"1-5\",\"4834\",\"38\",\"1\",\"Training\",\"Stims/Figures/102-C-20-4.bmp\",\"zasaha\",\"Up\",\"38\",\"8\",\"10\",\"3A\",\"C2\",\"J\",\"122\"
\"\",\"\",\"approach-retreat\",\"126\",\"875578\",\"0.0-126.0\",\"\",\"\",\"1-5\",\"4210\",\"38\",\"1\",\"Training\",\"Stims/Figures/139-C-20-2.bmp\",\"zasaha\",\"Up\",\"38\",\"8\",\"11\",\"3A\",\"C2\",\"J\",\"123\"
\"\",\"\",\"approach-retreat\",\"127\",\"880929\",\"0.0-127.0\",\"\",\"\",\"1-5\",\"3830\",\"37\",\"0\",\"Training\",\"Stims/Figures/87-J-10-4.bmp\",\"fa:fasha\",\"Left\",\"39\",\"8\",\"12\",\"3A\",\"C1\",\"J\",\"124\"
\"\",\"\",\"approach-retreat\",\"128\",\"886217\",\"0.0-128.0\",\"\",\"\",\"1-5\",\"3775\",\"37\",\"0\",\"Training\",\"Stims/Figures/87-C-20-4.bmp\",\"zasaha\",\"Right\",\"39\",\"8\",\"13\",\"3A\",\"C2\",\"J\",\"125\"
\"\",\"\",\"approach-retreat\",\"129\",\"891793\",\"0.0-129.0\",\"\",\"\",\"1-5\",\"4046\",\"38\",\"1\",\"Training\",\"Stims/Figures/27-J-0-1.bmp\",\"fa:fasha\",\"Down\",\"38\",\"8\",\"14\",\"3A\",\"C1\",\"J\",\"126\"
\"\",\"\",\"approach-retreat\",\"130\",\"897253\",\"0.0-130.0\",\"\",\"\",\"1-5\",\"3922\",\"40\",\"0\",\"Training\",\"Stims/Figures/144-C-30-3.bmp\",\"zasaha\",\"Up\",\"38\",\"8\",\"15\",\"3A\",\"C2\",\"J\",\"127\"
\"\",\"\",\"approach-retreat\",\"131\",\"902647\",\"0.0-131.0\",\"\",\"\",\"1-5\",\"3876\",\"37\",\"0\",\"Training\",\"Stims/Figures/44-J-10-3.bmp\",\"fa:fasha\",\"Left\",\"39\",\"8\",\"16\",\"3A\",\"C1\",\"J\",\"128\"
\"\",\"\",\"approach-retreat\",\"132\",\"908627\",\"0.0-132.0\",\"\",\"\",\"1-5\",\"4456\",\"40\",\"1\",\"Training\",\"Stims/Figures/139-C-20-2.bmp\",\"zasaha\",\"Down\",\"40\",\"9\",\"1\",\"3A\",\"C2\",\"J\",\"129\"
\"\",\"\",\"approach-retreat\",\"133\",\"915192\",\"0.0-133.0\",\"\",\"\",\"1-5\",\"5039\",\"37\",\"1\",\"Training\",\"Stims/Figures/87-J-10-4.bmp\",\"fa:fasha\",\"Right\",\"37\",\"9\",\"2\",\"3A\",\"C1\",\"J\",\"130\"
\"\",\"\",\"approach-retreat\",\"134\",\"921596\",\"0.0-134.0\",\"\",\"\",\"1-5\",\"4889\",\"40\",\"1\",\"Training\",\"Stims/Figures/144-J-10-3.bmp\",\"fa:fasha\",\"Up\",\"40\",\"9\",\"3\",\"3A\",\"C1\",\"J\",\"131\"
\"\",\"\",\"approach-retreat\",\"135\",\"926820\",\"0.0-135.0\",\"\",\"\",\"1-5\",\"3691\",\"37\",\"0\",\"Training\",\"Stims/Figures/27-C-30-1.bmp\",\"zasaha\",\"Right\",\"39\",\"9\",\"4\",\"3A\",\"C2\",\"J\",\"132\"
\"\",\"\",\"approach-retreat\",\"136\",\"931900\",\"0.0-136.0\",\"\",\"\",\"1-5\",\"3561\",\"39\",\"1\",\"Training\",\"Stims/Figures/27-J-0-1.bmp\",\"fa:fasha\",\"Left\",\"39\",\"9\",\"5\",\"3A\",\"C1\",\"J\",\"133\"
\"\",\"\",\"approach-retreat\",\"137\",\"937079\",\"0.0-137.0\",\"\",\"\",\"1-5\",\"3646\",\"38\",\"1\",\"Training\",\"Stims/Figures/87-C-20-4.bmp\",\"zasaha\",\"Up\",\"38\",\"9\",\"6\",\"3A\",\"C2\",\"J\",\"134\"
\"\",\"\",\"approach-retreat\",\"138\",\"942114\",\"0.0-138.0\",\"\",\"\",\"1-5\",\"3516\",\"37\",\"0\",\"Training\",\"Stims/Figures/102-J-10-4.bmp\",\"fa:fasha\",\"Left\",\"39\",\"9\",\"7\",\"3A\",\"C1\",\"J\",\"135\"
\"\",\"\",\"approach-retreat\",\"139\",\"948078\",\"0.0-139.0\",\"\",\"\",\"1-5\",\"4441\",\"38\",\"0\",\"Training\",\"Stims/Figures/44-C-30-3.bmp\",\"zasaha\",\"Down\",\"40\",\"9\",\"8\",\"3A\",\"C2\",\"J\",\"136\"
\"\",\"\",\"approach-retreat\",\"140\",\"953218\",\"0.0-140.0\",\"\",\"\",\"1-5\",\"3611\",\"39\",\"0\",\"Training\",\"Stims/Figures/93-J-0-1.bmp\",\"fa:fasha\",\"Right\",\"37\",\"9\",\"9\",\"3A\",\"C1\",\"J\",\"137\"
\"\",\"\",\"approach-retreat\",\"141\",\"958961\",\"0.0-141.0\",\"\",\"\",\"1-5\",\"4230\",\"38\",\"0\",\"Training\",\"Stims/Figures/139-J-0-2.bmp\",\"fa:fasha\",\"Up\",\"40\",\"9\",\"10\",\"3A\",\"C1\",\"J\",\"138\"
\"\",\"\",\"approach-retreat\",\"142\",\"966453\",\"0.0-142.0\",\"\",\"\",\"1-5\",\"5979\",\"40\",\"0\",\"Training\",\"Stims/Figures/144-C-30-3.bmp\",\"zasaha\",\"Up\",\"38\",\"9\",\"11\",\"3A\",\"C2\",\"J\",\"139\"
\"\",\"\",\"approach-retreat\",\"143\",\"973150\",\"0.0-143.0\",\"\",\"\",\"1-5\",\"5171\",\"40\",\"0\",\"Training\",\"Stims/Figures/44-J-10-3.bmp\",\"fa:fasha\",\"Down\",\"38\",\"9\",\"12\",\"3A\",\"C1\",\"J\",\"140\"
\"\",\"\",\"approach-retreat\",\"144\",\"978223\",\"0.0-144.0\",\"\",\"\",\"1-5\",\"3540\",\"37\",\"0\",\"Training\",\"Stims/Figures/118-J-0-2.bmp\",\"fa:fasha\",\"Left\",\"39\",\"9\",\"13\",\"3A\",\"C1\",\"J\",\"141\"
\"\",\"\",\"approach-retreat\",\"145\",\"983327\",\"0.0-145.0\",\"\",\"\",\"1-5\",\"3585\",\"39\",\"1\",\"Training\",\"Stims/Figures/93-C-30-1.bmp\",\"zasaha\",\"Right\",\"39\",\"9\",\"14\",\"3A\",\"C2\",\"J\",\"142\"
\"\",\"\",\"approach-retreat\",\"146\",\"988573\",\"0.0-146.0\",\"\",\"\",\"1-5\",\"3533\",\"39\",\"0\",\"Training\",\"Stims/Figures/102-C-20-4.bmp\",\"zasaha\",\"Left\",\"37\",\"9\",\"15\",\"3A\",\"C2\",\"J\",\"143\"
\"\",\"\",\"approach-retreat\",\"147\",\"993745\",\"0.0-147.0\",\"\",\"\",\"1-5\",\"3658\",\"40\",\"1\",\"Training\",\"Stims/Figures/118-C-20-2.bmp\",\"zasaha\",\"Down\",\"40\",\"9\",\"16\",\"3A\",\"C2\",\"J\",\"144\"
\"15450\",\"\",\"instructions\",\"148\",\"1009196\",\"0.0-148.0\",\"[{\"\"page_index\"\":0,\"\"viewing_time\"\":15448}]\",\"\",\"\",\"\",\"\",\"\",\"\",\"\",\"\",\"\",\"\",\"\",\"\",\"\",\"\",\"\",\"\"
\"\",\"\",\"approach-retreat\",\"149\",\"1015809\",\"0.0-149.0\",\"\",\"\",\"1-5\",\"5101\",\"40\",\"1\",\"Testing\",\"Stims/Figures/118-J-0-2.bmp\",\"fa:fasha\",\"Up\",\"40\",\"1\",\"1\",\"3A\",\"C1\",\"J\",\"1\"
\"\",\"\",\"approach-retreat\",\"150\",\"1021629\",\"0.0-150.0\",\"\",\"\",\"1-5\",\"4300\",\"40\",\"1\",\"Testing\",\"Stims/Figures/87-C-20-4.bmp\",\"zasaha\",\"Down\",\"40\",\"1\",\"2\",\"3A\",\"C2\",\"J\",\"2\"
\"\",\"\",\"approach-retreat\",\"151\",\"1027822\",\"0.0-151.0\",\"\",\"\",\"1-5\",\"4683\",\"38\",\"1\",\"Testing\",\"Stims/Figures/44-J-10-3.bmp\",\"fa:fasha\",\"Down\",\"38\",\"1\",\"3\",\"3A\",\"C1\",\"J\",\"3\"
\"\",\"\",\"approach-retreat\",\"152\",\"1033812\",\"0.0-152.0\",\"\",\"\",\"1-5\",\"4457\",\"40\",\"1\",\"Testing\",\"Stims/Figures/144-C-30-3.bmp\",\"zasaha\",\"Down\",\"40\",\"1\",\"4\",\"3A\",\"C2\",\"J\",\"4\"
\"\",\"\",\"approach-retreat\",\"153\",\"1039251\",\"0.0-153.0\",\"\",\"\",\"1-5\",\"3908\",\"37\",\"1\",\"Testing\",\"Stims/Figures/139-J-0-2.bmp\",\"fa:fasha\",\"Right\",\"37\",\"1\",\"5\",\"3A\",\"C1\",\"J\",\"5\"
\"\",\"\",\"approach-retreat\",\"154\",\"1044715\",\"0.0-154.0\",\"\",\"\",\"1-5\",\"3923\",\"39\",\"0\",\"Testing\",\"Stims/Figures/111-J-10-3.bmp\",\"fa:fasha\",\"Right\",\"37\",\"1\",\"6\",\"3A\",\"C1\",\"J\",\"6\"
\"\",\"\",\"approach-retreat\",\"155\",\"1051532\",\"0.0-155.0\",\"\",\"\",\"1-5\",\"5299\",\"37\",\"0\",\"Testing\",\"Stims/Figures/94-J-0-2.bmp\",\"fa:fasha\",\"Left\",\"39\",\"1\",\"7\",\"3A\",\"C1\",\"J\",\"7\"
\"\",\"\",\"approach-retreat\",\"156\",\"1057607\",\"0.0-156.0\",\"\",\"\",\"1-5\",\"4539\",\"38\",\"0\",\"Testing\",\"Stims/Figures/87-J-10-4.bmp\",\"fa:fasha\",\"Up\",\"40\",\"1\",\"8\",\"3A\",\"C1\",\"J\",\"8\"
\"\",\"\",\"approach-retreat\",\"157\",\"1062832\",\"0.0-157.0\",\"\",\"\",\"1-5\",\"3690\",\"37\",\"1\",\"Testing\",\"Stims/Figures/93-J-0-1.bmp\",\"fa:fasha\",\"Right\",\"37\",\"1\",\"9\",\"3A\",\"C1\",\"J\",\"9\"
\"\",\"\",\"approach-retreat\",\"158\",\"1068586\",\"0.0-158.0\",\"\",\"\",\"1-5\",\"4213\",\"37\",\"1\",\"Testing\",\"Stims/Figures/111-C-30-3.bmp\",\"zasaha\",\"Left\",\"37\",\"1\",\"10\",\"3A\",\"C2\",\"J\",\"10\"
\"\",\"\",\"approach-retreat\",\"159\",\"1074245\",\"0.0-159.0\",\"\",\"\",\"1-5\",\"4145\",\"38\",\"0\",\"Testing\",\"Stims/Figures/57-J-0-1.bmp\",\"fa:fasha\",\"Up\",\"40\",\"1\",\"11\",\"3A\",\"C1\",\"J\",\"11\"
\"\",\"\",\"approach-retreat\",\"160\",\"1080466\",\"0.0-160.0\",\"\",\"\",\"1-5\",\"4711\",\"39\",\"1\",\"Testing\",\"Stims/Figures/44-C-30-3.bmp\",\"zasaha\",\"Right\",\"39\",\"1\",\"12\",\"3A\",\"C2\",\"J\",\"12\"
\"\",\"\",\"approach-retreat\",\"161\",\"1086610\",\"0.0-161.0\",\"\",\"\",\"1-5\",\"4623\",\"40\",\"1\",\"Testing\",\"Stims/Figures/27-J-0-1.bmp\",\"fa:fasha\",\"Up\",\"40\",\"1\",\"13\",\"3A\",\"C1\",\"J\",\"13\"
\"\",\"\",\"approach-retreat\",\"162\",\"1092500\",\"0.0-162.0\",\"\",\"\",\"1-5\",\"4351\",\"37\",\"1\",\"Testing\",\"Stims/Figures/102-C-20-4.bmp\",\"zasaha\",\"Left\",\"37\",\"1\",\"14\",\"3A\",\"C2\",\"J\",\"14\"
\"\",\"\",\"approach-retreat\",\"163\",\"1098342\",\"0.0-163.0\",\"\",\"\",\"1-5\",\"4301\",\"39\",\"1\",\"Testing\",\"Stims/Figures/93-C-30-1.bmp\",\"zasaha\",\"Right\",\"39\",\"1\",\"15\",\"3A\",\"C2\",\"J\",\"15\"
\"\",\"\",\"approach-retreat\",\"164\",\"1104608\",\"0.0-164.0\",\"\",\"\",\"1-5\",\"4745\",\"40\",\"0\",\"Testing\",\"Stims/Figures/57-C-30-1.bmp\",\"zasaha\",\"Up\",\"38\",\"1\",\"16\",\"3A\",\"C2\",\"J\",\"16\"
\"\",\"\",\"approach-retreat\",\"165\",\"1119213\",\"0.0-165.0\",\"\",\"\",\"1-5\",\"13058\",\"40\",\"1\",\"Testing\",\"Stims/Figures/118-C-20-2.bmp\",\"zasaha\",\"Down\",\"40\",\"1\",\"17\",\"3A\",\"C2\",\"J\",\"17\"
\"\",\"\",\"approach-retreat\",\"166\",\"1125309\",\"0.0-166.0\",\"\",\"\",\"1-5\",\"4563\",\"37\",\"1\",\"Testing\",\"Stims/Figures/94-C-20-2.bmp\",\"zasaha\",\"Left\",\"37\",\"1\",\"18\",\"3A\",\"C2\",\"J\",\"18\"
\"\",\"\",\"approach-retreat\",\"167\",\"1130421\",\"0.0-167.0\",\"\",\"\",\"1-5\",\"3546\",\"39\",\"0\",\"Testing\",\"Stims/Figures/19-C-20-4.bmp\",\"zasaha\",\"Left\",\"37\",\"1\",\"19\",\"3A\",\"C2\",\"J\",\"19\"
\"\",\"\",\"approach-retreat\",\"168\",\"1136274\",\"0.0-168.0\",\"\",\"\",\"1-5\",\"4323\",\"38\",\"0\",\"Testing\",\"Stims/Figures/27-C-30-1.bmp\",\"zasaha\",\"Down\",\"40\",\"1\",\"20\",\"3A\",\"C2\",\"J\",\"20\"
\"\",\"\",\"approach-retreat\",\"169\",\"1141337\",\"0.0-169.0\",\"\",\"\",\"1-5\",\"3530\",\"37\",\"1\",\"Testing\",\"Stims/Figures/102-J-10-4.bmp\",\"fa:fasha\",\"Right\",\"37\",\"1\",\"21\",\"3A\",\"C1\",\"J\",\"21\"
\"\",\"\",\"approach-retreat\",\"170\",\"1147171\",\"0.0-170.0\",\"\",\"\",\"1-5\",\"4301\",\"37\",\"0\",\"Testing\",\"Stims/Figures/144-J-10-3.bmp\",\"fa:fasha\",\"Left\",\"39\",\"1\",\"22\",\"3A\",\"C1\",\"J\",\"22\"
\"\",\"\",\"approach-retreat\",\"171\",\"1152287\",\"0.0-171.0\",\"\",\"\",\"1-5\",\"3605\",\"40\",\"0\",\"Testing\",\"Stims/Figures/139-C-20-2.bmp\",\"zasaha\",\"Up\",\"38\",\"1\",\"23\",\"3A\",\"C2\",\"J\",\"23\"
\"\",\"\",\"approach-retreat\",\"172\",\"1157345\",\"0.0-172.0\",\"\",\"\",\"1-5\",\"3546\",\"38\",\"1\",\"Testing\",\"Stims/Figures/19-J-10-4.bmp\",\"fa:fasha\",\"Down\",\"38\",\"1\",\"24\",\"3A\",\"C1\",\"J\",\"24\"
\"\",\"\",\"approach-retreat\",\"173\",\"1162707\",\"0.0-173.0\",\"\",\"\",\"1-5\",\"3827\",\"37\",\"1\",\"Testing\",\"Stims/Figures/118-J-0-2.bmp\",\"fa:fasha\",\"Right\",\"37\",\"2\",\"1\",\"3A\",\"C1\",\"J\",\"25\"
\"\",\"\",\"approach-retreat\",\"174\",\"1167756\",\"0.0-174.0\",\"\",\"\",\"1-5\",\"3528\",\"39\",\"1\",\"Testing\",\"Stims/Figures/94-J-0-2.bmp\",\"fa:fasha\",\"Left\",\"39\",\"2\",\"2\",\"3A\",\"C1\",\"J\",\"26\"
\"\",\"\",\"approach-retreat\",\"175\",\"1172848\",\"0.0-175.0\",\"\",\"\",\"1-5\",\"3575\",\"39\",\"1\",\"Testing\",\"Stims/Figures/111-J-10-3.bmp\",\"fa:fasha\",\"Left\",\"39\",\"2\",\"3\",\"3A\",\"C1\",\"J\",\"27\"
\"\",\"\",\"approach-retreat\",\"176\",\"1178312\",\"0.0-176.0\",\"\",\"\",\"1-5\",\"3954\",\"40\",\"0\",\"Testing\",\"Stims/Figures/139-J-0-2.bmp\",\"fa:fasha\",\"Down\",\"38\",\"2\",\"4\",\"3A\",\"C1\",\"J\",\"28\"
\"\",\"\",\"approach-retreat\",\"177\",\"1183426\",\"0.0-177.0\",\"\",\"\",\"1-5\",\"3574\",\"37\",\"1\",\"Testing\",\"Stims/Figures/19-J-10-4.bmp\",\"fa:fasha\",\"Right\",\"37\",\"2\",\"5\",\"3A\",\"C1\",\"J\",\"29\"
\"\",\"\",\"approach-retreat\",\"178\",\"1188488\",\"0.0-178.0\",\"\",\"\",\"1-5\",\"3532\",\"40\",\"0\",\"Testing\",\"Stims/Figures/27-C-30-1.bmp\",\"zasaha\",\"Up\",\"38\",\"2\",\"6\",\"3A\",\"C2\",\"J\",\"30\"
\"\",\"\",\"approach-retreat\",\"179\",\"1193542\",\"0.0-179.0\",\"\",\"\",\"1-5\",\"3518\",\"40\",\"0\",\"Testing\",\"Stims/Figures/87-C-20-4.bmp\",\"zasaha\",\"Up\",\"38\",\"2\",\"7\",\"3A\",\"C2\",\"J\",\"31\"
\"\",\"\",\"approach-retreat\",\"180\",\"1198598\",\"0.0-180.0\",\"\",\"\",\"1-5\",\"3515\",\"40\",\"1\",\"Testing\",\"Stims/Figures/57-C-30-1.bmp\",\"zasaha\",\"Down\",\"40\",\"2\",\"8\",\"3A\",\"C2\",\"J\",\"32\"
\"\",\"\",\"approach-retreat\",\"181\",\"1204047\",\"0.0-181.0\",\"\",\"\",\"1-5\",\"3918\",\"39\",\"0\",\"Testing\",\"Stims/Figures/111-C-30-3.bmp\",\"zasaha\",\"Left\",\"37\",\"2\",\"9\",\"3A\",\"C2\",\"J\",\"33\"
\"\",\"\",\"approach-retreat\",\"182\",\"1209154\",\"0.0-182.0\",\"\",\"\",\"1-5\",\"3580\",\"37\",\"1\",\"Testing\",\"Stims/Figures/102-C-20-4.bmp\",\"zasaha\",\"Left\",\"37\",\"2\",\"10\",\"3A\",\"C2\",\"J\",\"34\"
\"\",\"\",\"approach-retreat\",\"183\",\"1214599\",\"0.0-183.0\",\"\",\"\",\"1-5\",\"3932\",\"37\",\"1\",\"Testing\",\"Stims/Figures/87-J-10-4.bmp\",\"fa:fasha\",\"Right\",\"37\",\"2\",\"11\",\"3A\",\"C1\",\"J\",\"35\"
\"\",\"\",\"approach-retreat\",\"184\",\"1220170\",\"0.0-184.0\",\"\",\"\",\"1-5\",\"4044\",\"40\",\"0\",\"Testing\",\"Stims/Figures/93-C-30-1.bmp\",\"zasaha\",\"Up\",\"38\",\"2\",\"12\",\"3A\",\"C2\",\"J\",\"36\"
\"\",\"\",\"approach-retreat\",\"185\",\"1226258\",\"0.0-185.0\",\"\",\"\",\"1-5\",\"4550\",\"38\",\"1\",\"Testing\",\"Stims/Figures/144-J-10-3.bmp\",\"fa:fasha\",\"Down\",\"38\",\"2\",\"13\",\"3A\",\"C1\",\"J\",\"37\"
\"\",\"\",\"approach-retreat\",\"186\",\"1231853\",\"0.0-186.0\",\"\",\"\",\"1-5\",\"4061\",\"38\",\"1\",\"Testing\",\"Stims/Figures/93-J-0-1.bmp\",\"fa:fasha\",\"Down\",\"38\",\"2\",\"14\",\"3A\",\"C1\",\"J\",\"38\"
\"\",\"\",\"approach-retreat\",\"187\",\"1237271\",\"0.0-187.0\",\"\",\"\",\"1-5\",\"3886\",\"37\",\"0\",\"Testing\",\"Stims/Figures/139-C-20-2.bmp\",\"zasaha\",\"Right\",\"39\",\"2\",\"15\",\"3A\",\"C2\",\"J\",\"39\"
\"\",\"\",\"approach-retreat\",\"188\",\"1242877\",\"0.0-188.0\",\"\",\"\",\"1-5\",\"4073\",\"39\",\"0\",\"Testing\",\"Stims/Figures/102-J-10-4.bmp\",\"fa:fasha\",\"Right\",\"37\",\"2\",\"16\",\"3A\",\"C1\",\"J\",\"40\"
\"\",\"\",\"approach-retreat\",\"189\",\"1247953\",\"0.0-189.0\",\"\",\"\",\"1-5\",\"3564\",\"38\",\"1\",\"Testing\",\"Stims/Figures/144-C-30-3.bmp\",\"zasaha\",\"Up\",\"38\",\"2\",\"17\",\"3A\",\"C2\",\"J\",\"41\"
\"\",\"\",\"approach-retreat\",\"190\",\"1253539\",\"0.0-190.0\",\"\",\"\",\"1-5\",\"4059\",\"38\",\"1\",\"Testing\",\"Stims/Figures/19-C-20-4.bmp\",\"zasaha\",\"Up\",\"38\",\"2\",\"18\",\"3A\",\"C2\",\"J\",\"42\"
\"\",\"\",\"approach-retreat\",\"191\",\"1258979\",\"0.0-191.0\",\"\",\"\",\"1-5\",\"3904\",\"40\",\"0\",\"Testing\",\"Stims/Figures/27-J-0-1.bmp\",\"fa:fasha\",\"Down\",\"38\",\"2\",\"19\",\"3A\",\"C1\",\"J\",\"43\"
\"\",\"\",\"approach-retreat\",\"192\",\"1264389\",\"0.0-192.0\",\"\",\"\",\"1-5\",\"3885\",\"37\",\"1\",\"Testing\",\"Stims/Figures/44-C-30-3.bmp\",\"zasaha\",\"Left\",\"37\",\"2\",\"20\",\"3A\",\"C2\",\"J\",\"44\"
\"\",\"\",\"approach-retreat\",\"193\",\"1270243\",\"0.0-193.0\",\"\",\"\",\"1-5\",\"4319\",\"39\",\"1\",\"Testing\",\"Stims/Figures/118-C-20-2.bmp\",\"zasaha\",\"Right\",\"39\",\"2\",\"21\",\"3A\",\"C2\",\"J\",\"45\"
\"\",\"\",\"approach-retreat\",\"194\",\"1275860\",\"0.0-194.0\",\"\",\"\",\"1-5\",\"4084\",\"40\",\"0\",\"Testing\",\"Stims/Figures/94-C-20-2.bmp\",\"zasaha\",\"Up\",\"38\",\"2\",\"22\",\"3A\",\"C2\",\"J\",\"46\"
\"\",\"\",\"approach-retreat\",\"195\",\"1281467\",\"0.0-195.0\",\"\",\"\",\"1-5\",\"4073\",\"37\",\"0\",\"Testing\",\"Stims/Figures/44-J-10-3.bmp\",\"fa:fasha\",\"Left\",\"39\",\"2\",\"23\",\"3A\",\"C1\",\"J\",\"47\"
\"\",\"\",\"approach-retreat\",\"196\",\"1287880\",\"0.0-196.0\",\"\",\"\",\"1-5\",\"4886\",\"40\",\"0\",\"Testing\",\"Stims/Figures/57-J-0-1.bmp\",\"fa:fasha\",\"Down\",\"38\",\"2\",\"24\",\"3A\",\"C1\",\"J\",\"48\"
\"\",\"\",\"approach-retreat\",\"197\",\"1292931\",\"0.0-197.0\",\"\",\"\",\"1-5\",\"3514\",\"38\",\"0\",\"Testing\",\"Stims/Figures/144-J-10-3.bmp\",\"fa:fasha\",\"Up\",\"40\",\"3\",\"1\",\"3A\",\"C1\",\"J\",\"49\"
\"\",\"\",\"approach-retreat\",\"198\",\"1297987\",\"0.0-198.0\",\"\",\"\",\"1-5\",\"3522\",\"38\",\"0\",\"Testing\",\"Stims/Figures/87-C-20-4.bmp\",\"zasaha\",\"Down\",\"40\",\"3\",\"2\",\"3A\",\"C2\",\"J\",\"50\"
\"\",\"\",\"approach-retreat\",\"199\",\"1303203\",\"0.0-199.0\",\"\",\"\",\"1-5\",\"3680\",\"38\",\"1\",\"Testing\",\"Stims/Figures/139-C-20-2.bmp\",\"zasaha\",\"Up\",\"38\",\"3\",\"3\",\"3A\",\"C2\",\"J\",\"51\"
\"\",\"\",\"approach-retreat\",\"200\",\"1308705\",\"0.0-200.0\",\"\",\"\",\"1-5\",\"3971\",\"40\",\"0\",\"Testing\",\"Stims/Figures/93-J-0-1.bmp\",\"fa:fasha\",\"Down\",\"38\",\"3\",\"4\",\"3A\",\"C1\",\"J\",\"52\"
\"\",\"\",\"approach-retreat\",\"201\",\"1314020\",\"0.0-201.0\",\"\",\"\",\"1-5\",\"3789\",\"38\",\"1\",\"Testing\",\"Stims/Figures/94-J-0-2.bmp\",\"fa:fasha\",\"Down\",\"38\",\"3\",\"5\",\"3A\",\"C1\",\"J\",\"53\"
\"\",\"\",\"approach-retreat\",\"202\",\"1321224\",\"0.0-202.0\",\"\",\"\",\"1-5\",\"5670\",\"37\",\"1\",\"Testing\",\"Stims/Figures/27-J-0-1.bmp\",\"fa:fasha\",\"Right\",\"37\",\"3\",\"6\",\"3A\",\"C1\",\"J\",\"54\"
\"\",\"\",\"approach-retreat\",\"203\",\"1330747\",\"0.0-203.0\",\"\",\"\",\"1-5\",\"7981\",\"39\",\"1\",\"Testing\",\"Stims/Figures/102-C-20-4.bmp\",\"zasaha\",\"Right\",\"39\",\"3\",\"7\",\"3A\",\"C2\",\"J\",\"55\"
\"\",\"\",\"approach-retreat\",\"204\",\"1336564\",\"0.0-204.0\",\"\",\"\",\"1-5\",\"4286\",\"40\",\"1\",\"Testing\",\"Stims/Figures/93-C-30-1.bmp\",\"zasaha\",\"Down\",\"40\",\"3\",\"8\",\"3A\",\"C2\",\"J\",\"56\"
\"\",\"\",\"approach-retreat\",\"205\",\"1342432\",\"0.0-205.0\",\"\",\"\",\"1-5\",\"4334\",\"40\",\"0\",\"Testing\",\"Stims/Figures/118-J-0-2.bmp\",\"fa:fasha\",\"Down\",\"38\",\"3\",\"9\",\"3A\",\"C1\",\"J\",\"57\"
\"\",\"\",\"approach-retreat\",\"206\",\"1348084\",\"0.0-206.0\",\"\",\"\",\"1-5\",\"4145\",\"37\",\"1\",\"Testing\",\"Stims/Figures/118-C-20-2.bmp\",\"zasaha\",\"Left\",\"37\",\"3\",\"10\",\"3A\",\"C2\",\"J\",\"58\"
\"\",\"\",\"approach-retreat\",\"207\",\"1353158\",\"0.0-207.0\",\"\",\"\",\"1-5\",\"3569\",\"39\",\"0\",\"Testing\",\"Stims/Figures/87-J-10-4.bmp\",\"fa:fasha\",\"Right\",\"37\",\"3\",\"11\",\"3A\",\"C1\",\"J\",\"59\"
\"\",\"\",\"approach-retreat\",\"208\",\"1358674\",\"0.0-208.0\",\"\",\"\",\"1-5\",\"4007\",\"39\",\"0\",\"Testing\",\"Stims/Figures/144-C-30-3.bmp\",\"zasaha\",\"Left\",\"37\",\"3\",\"12\",\"3A\",\"C2\",\"J\",\"60\"
\"\",\"\",\"approach-retreat\",\"209\",\"1363798\",\"0.0-209.0\",\"\",\"\",\"1-5\",\"3614\",\"37\",\"1\",\"Testing\",\"Stims/Figures/19-J-10-4.bmp\",\"fa:fasha\",\"Right\",\"37\",\"3\",\"13\",\"3A\",\"C1\",\"J\",\"61\"
\"\",\"\",\"approach-retreat\",\"210\",\"1368818\",\"0.0-210.0\",\"\",\"\",\"1-5\",\"3509\",\"38\",\"0\",\"Testing\",\"Stims/Figures/139-J-0-2.bmp\",\"fa:fasha\",\"Up\",\"40\",\"3\",\"14\",\"3A\",\"C1\",\"J\",\"62\"
\"\",\"\",\"approach-retreat\",\"211\",\"1375704\",\"0.0-211.0\",\"\",\"\",\"1-5\",\"5357\",\"38\",\"1\",\"Testing\",\"Stims/Figures/44-C-30-3.bmp\",\"zasaha\",\"Up\",\"38\",\"3\",\"15\",\"3A\",\"C2\",\"J\",\"63\"
\"\",\"\",\"approach-retreat\",\"212\",\"1381506\",\"0.0-212.0\",\"\",\"\",\"1-5\",\"4276\",\"39\",\"0\",\"Testing\",\"Stims/Figures/27-C-30-1.bmp\",\"zasaha\",\"Left\",\"37\",\"3\",\"16\",\"3A\",\"C2\",\"J\",\"64\"
\"\",\"\",\"approach-retreat\",\"213\",\"1386822\",\"0.0-213.0\",\"\",\"\",\"1-5\",\"3780\",\"39\",\"0\",\"Testing\",\"Stims/Figures/111-C-30-3.bmp\",\"zasaha\",\"Left\",\"37\",\"3\",\"17\",\"3A\",\"C2\",\"J\",\"65\"
\"\",\"\",\"approach-retreat\",\"214\",\"1392776\",\"0.0-214.0\",\"\",\"\",\"1-5\",\"4420\",\"39\",\"1\",\"Testing\",\"Stims/Figures/57-C-30-1.bmp\",\"zasaha\",\"Right\",\"39\",\"3\",\"18\",\"3A\",\"C2\",\"J\",\"66\"
\"\",\"\",\"approach-retreat\",\"215\",\"1398283\",\"0.0-215.0\",\"\",\"\",\"1-5\",\"3976\",\"40\",\"0\",\"Testing\",\"Stims/Figures/57-J-0-1.bmp\",\"fa:fasha\",\"Down\",\"38\",\"3\",\"19\",\"3A\",\"C1\",\"J\",\"67\"
\"\",\"\",\"approach-retreat\",\"216\",\"1403729\",\"0.0-216.0\",\"\",\"\",\"1-5\",\"3904\",\"39\",\"0\",\"Testing\",\"Stims/Figures/94-C-20-2.bmp\",\"zasaha\",\"Left\",\"37\",\"3\",\"20\",\"3A\",\"C2\",\"J\",\"68\"
\"\",\"\",\"approach-retreat\",\"217\",\"1410514\",\"0.0-217.0\",\"\",\"\",\"1-5\",\"5275\",\"38\",\"0\",\"Testing\",\"Stims/Figures/102-J-10-4.bmp\",\"fa:fasha\",\"Up\",\"40\",\"3\",\"21\",\"3A\",\"C1\",\"J\",\"69\"
\"\",\"\",\"approach-retreat\",\"218\",\"1416791\",\"0.0-218.0\",\"\",\"\",\"1-5\",\"4745\",\"37\",\"1\",\"Testing\",\"Stims/Figures/19-C-20-4.bmp\",\"zasaha\",\"Left\",\"37\",\"3\",\"22\",\"3A\",\"C2\",\"J\",\"70\"
\"\",\"\",\"approach-retreat\",\"219\",\"1422340\",\"0.0-219.0\",\"\",\"\",\"1-5\",\"4015\",\"38\",\"0\",\"Testing\",\"Stims/Figures/111-J-10-3.bmp\",\"fa:fasha\",\"Up\",\"40\",\"3\",\"23\",\"3A\",\"C1\",\"J\",\"71\"
\"\",\"\",\"approach-retreat\",\"220\",\"1427882\",\"0.0-220.0\",\"\",\"\",\"1-5\",\"4014\",\"39\",\"0\",\"Testing\",\"Stims/Figures/44-J-10-3.bmp\",\"fa:fasha\",\"Right\",\"37\",\"3\",\"24\",\"3A\",\"C1\",\"J\",\"72\"
\"\",\"\",\"approach-retreat\",\"221\",\"1433679\",\"0.0-221.0\",\"\",\"\",\"1-5\",\"4262\",\"38\",\"1\",\"Testing\",\"Stims/Figures/93-C-30-1.bmp\",\"zasaha\",\"Up\",\"38\",\"4\",\"1\",\"3A\",\"C2\",\"J\",\"73\"
\"\",\"\",\"approach-retreat\",\"222\",\"1439503\",\"0.0-222.0\",\"\",\"\",\"1-5\",\"4314\",\"37\",\"1\",\"Testing\",\"Stims/Figures/19-C-20-4.bmp\",\"zasaha\",\"Left\",\"37\",\"4\",\"2\",\"3A\",\"C2\",\"J\",\"74\"
\"\",\"\",\"approach-retreat\",\"223\",\"1445825\",\"0.0-223.0\",\"\",\"\",\"1-5\",\"4791\",\"39\",\"1\",\"Testing\",\"Stims/Figures/57-C-30-1.bmp\",\"zasaha\",\"Right\",\"39\",\"4\",\"3\",\"3A\",\"C2\",\"J\",\"75\"
\"\",\"\",\"approach-retreat\",\"224\",\"1451482\",\"0.0-224.0\",\"\",\"\",\"1-5\",\"4120\",\"40\",\"0\",\"Testing\",\"Stims/Figures/27-J-0-1.bmp\",\"fa:fasha\",\"Down\",\"38\",\"4\",\"4\",\"3A\",\"C1\",\"J\",\"76\"
\"\",\"\",\"approach-retreat\",\"225\",\"1456617\",\"0.0-225.0\",\"\",\"\",\"1-5\",\"3602\",\"37\",\"0\",\"Testing\",\"Stims/Figures/57-J-0-1.bmp\",\"fa:fasha\",\"Left\",\"39\",\"4\",\"5\",\"3A\",\"C1\",\"J\",\"77\"
\"\",\"\",\"approach-retreat\",\"226\",\"1462555\",\"0.0-226.0\",\"\",\"\",\"1-5\",\"4404\",\"40\",\"1\",\"Testing\",\"Stims/Figures/94-J-0-2.bmp\",\"fa:fasha\",\"Up\",\"40\",\"4\",\"6\",\"3A\",\"C1\",\"J\",\"78\"
\"\",\"\",\"approach-retreat\",\"227\",\"1468357\",\"0.0-227.0\",\"\",\"\",\"1-5\",\"4264\",\"39\",\"0\",\"Testing\",\"Stims/Figures/102-C-20-4.bmp\",\"zasaha\",\"Left\",\"37\",\"4\",\"7\",\"3A\",\"C2\",\"J\",\"79\"
\"\",\"\",\"approach-retreat\",\"228\",\"1473975\",\"0.0-228.0\",\"\",\"\",\"1-5\",\"4085\",\"37\",\"0\",\"Testing\",\"Stims/Figures/118-J-0-2.bmp\",\"fa:fasha\",\"Left\",\"39\",\"4\",\"8\",\"3A\",\"C1\",\"J\",\"80\"
\"\",\"\",\"approach-retreat\",\"229\",\"1479518\",\"0.0-229.0\",\"\",\"\",\"1-5\",\"4023\",\"40\",\"0\",\"Testing\",\"Stims/Figures/27-C-30-1.bmp\",\"zasaha\",\"Up\",\"38\",\"4\",\"9\",\"3A\",\"C2\",\"J\",\"81\"
\"\",\"\",\"approach-retreat\",\"230\",\"1484730\",\"0.0-230.0\",\"\",\"\",\"1-5\",\"3680\",\"40\",\"0\",\"Testing\",\"Stims/Figures/94-C-20-2.bmp\",\"zasaha\",\"Up\",\"38\",\"4\",\"10\",\"3A\",\"C2\",\"J\",\"82\"
\"\",\"\",\"approach-retreat\",\"231\",\"1490136\",\"0.0-231.0\",\"\",\"\",\"1-5\",\"3892\",\"38\",\"0\",\"Testing\",\"Stims/Figures/118-C-20-2.bmp\",\"zasaha\",\"Down\",\"40\",\"4\",\"11\",\"3A\",\"C2\",\"J\",\"83\"
\"\",\"\",\"approach-retreat\",\"232\",\"1495609\",\"0.0-232.0\",\"\",\"\",\"1-5\",\"3937\",\"38\",\"0\",\"Testing\",\"Stims/Figures/44-C-30-3.bmp\",\"zasaha\",\"Down\",\"40\",\"4\",\"12\",\"3A\",\"C2\",\"J\",\"84\"
\"\",\"\",\"approach-retreat\",\"233\",\"1500800\",\"0.0-233.0\",\"\",\"\",\"1-5\",\"3653\",\"39\",\"1\",\"Testing\",\"Stims/Figures/87-C-20-4.bmp\",\"zasaha\",\"Right\",\"39\",\"4\",\"13\",\"3A\",\"C2\",\"J\",\"85\"
\"\",\"\",\"approach-retreat\",\"234\",\"1505918\",\"0.0-234.0\",\"\",\"\",\"1-5\",\"3580\",\"38\",\"1\",\"Testing\",\"Stims/Figures/44-J-10-3.bmp\",\"fa:fasha\",\"Down\",\"38\",\"4\",\"14\",\"3A\",\"C1\",\"J\",\"86\"
\"\",\"\",\"approach-retreat\",\"235\",\"1511070\",\"0.0-235.0\",\"\",\"\",\"1-5\",\"3615\",\"37\",\"1\",\"Testing\",\"Stims/Figures/111-J-10-3.bmp\",\"fa:fasha\",\"Right\",\"37\",\"4\",\"15\",\"3A\",\"C1\",\"J\",\"87\"
\"\",\"\",\"approach-retreat\",\"236\",\"1516620\",\"0.0-236.0\",\"\",\"\",\"1-5\",\"4015\",\"38\",\"1\",\"Testing\",\"Stims/Figures/102-J-10-4.bmp\",\"fa:fasha\",\"Down\",\"38\",\"4\",\"16\",\"3A\",\"C1\",\"J\",\"88\"
\"\",\"\",\"approach-retreat\",\"237\",\"1522009\",\"0.0-237.0\",\"\",\"\",\"1-5\",\"3858\",\"39\",\"0\",\"Testing\",\"Stims/Figures/139-C-20-2.bmp\",\"zasaha\",\"Left\",\"37\",\"4\",\"17\",\"3A\",\"C2\",\"J\",\"89\"
\"\",\"\",\"approach-retreat\",\"238\",\"1527340\",\"0.0-238.0\",\"\",\"\",\"1-5\",\"3794\",\"37\",\"1\",\"Testing\",\"Stims/Figures/93-J-0-1.bmp\",\"fa:fasha\",\"Right\",\"37\",\"4\",\"18\",\"3A\",\"C1\",\"J\",\"90\"
\"\",\"\",\"approach-retreat\",\"239\",\"1532410\",\"0.0-239.0\",\"\",\"\",\"1-5\",\"3550\",\"38\",\"1\",\"Testing\",\"Stims/Figures/139-J-0-2.bmp\",\"fa:fasha\",\"Down\",\"38\",\"4\",\"19\",\"3A\",\"C1\",\"J\",\"91\"
\"\",\"\",\"approach-retreat\",\"240\",\"1537795\",\"0.0-240.0\",\"\",\"\",\"1-5\",\"3862\",\"37\",\"1\",\"Testing\",\"Stims/Figures/19-J-10-4.bmp\",\"fa:fasha\",\"Right\",\"37\",\"4\",\"20\",\"3A\",\"C1\",\"J\",\"92\"
\"\",\"\",\"approach-retreat\",\"241\",\"1543507\",\"0.0-241.0\",\"\",\"\",\"1-5\",\"4177\",\"39\",\"0\",\"Testing\",\"Stims/Figures/144-J-10-3.bmp\",\"fa:fasha\",\"Right\",\"37\",\"4\",\"21\",\"3A\",\"C1\",\"J\",\"93\"
\"\",\"\",\"approach-retreat\",\"242\",\"1548597\",\"0.0-242.0\",\"\",\"\",\"1-5\",\"3557\",\"38\",\"1\",\"Testing\",\"Stims/Figures/111-C-30-3.bmp\",\"zasaha\",\"Up\",\"38\",\"4\",\"22\",\"3A\",\"C2\",\"J\",\"94\"
\"\",\"\",\"approach-retreat\",\"243\",\"1555501\",\"0.0-243.0\",\"\",\"\",\"1-5\",\"5371\",\"37\",\"0\",\"Testing\",\"Stims/Figures/87-J-10-4.bmp\",\"fa:fasha\",\"Left\",\"39\",\"4\",\"23\",\"3A\",\"C1\",\"J\",\"95\"
\"\",\"\",\"approach-retreat\",\"244\",\"1562387\",\"0.0-244.0\",\"\",\"\",\"1-5\",\"5353\",\"40\",\"0\",\"Testing\",\"Stims/Figures/144-C-30-3.bmp\",\"zasaha\",\"Up\",\"38\",\"4\",\"24\",\"3A\",\"C2\",\"J\",\"96\"
\"56196\",\"\",\"survey-text\",\"245\",\"1618601\",\"0.0-245.0\",\"\",\"{\"\"Q0\"\":\"\"PS183317\"\"}\",\"\",\"\",\"\",\"\",\"\",\"\",\"\",\"\",\"\",\"\",\"\",\"\",\"\",\"\",\"\"
