"rt","key_press","trial_type","trial_index","time_elapsed","internal_node_id","view_history","responses","Id","Rt","ResKeyCode","ResCorr","TrialType2","Image","Label","Location","CorrectResponse","Block","BlockTrial","Condition","LabelType","Subcondition","trialNum"
"47989","32","text","0","47994","0.0-0.0-0.0","","","","","","","","","","","","","","","","",""
"355385","","instructions","1","403384","0.0-1.0","[{""page_index"":0,""viewing_time"":355383}]","","","","","","","","","","","","","","","",""
"68718","","survey-multi-choice","2","472148","0.0-2.0","","{""Q0"":""Da"",""Q1"":""Da"",""Q2"":""Da"",""Q3"":""Da"",""Q4"":""Da"",""Q5"":""Da""}","","","","","","","","","","","","","","",""
"","","bio","3","493358","0.0-3.0","","{""age"":""19"",""gender"":""f"",""specify"":""""}","","","","","","","","","","","","","","",""
"","","approach-retreat","4","504745","0.0-4.0","","","1-4","9861","38","0","Training","Stims/Figures/100-J-10-3.bmp","za:saza","Up","40","1","1","8","C2","J","1"
"","","approach-retreat","5","545905","0.0-5.0","","","1-4","39636","39","0","Training","Stims/Figures/44-J-10-3.bmp","zasa:ha","Right","37","1","2","8","C2","J","2"
"","","approach-retreat","6","552088","0.0-6.0","","","1-4","4674","39","1","Training","Stims/Figures/139-C-20-2.bmp","vasha:sha","Right","39","1","3","8","C1","J","3"
"","","approach-retreat","7","559473","0.0-7.0","","","1-4","5869","40","0","Training","Stims/Figures/71-J-0-1.bmp","vafa:sha","Down","38","1","4","8","C1","J","4"
"","","approach-retreat","8","566644","0.0-8.0","","","1-4","5661","39","1","Training","Stims/Figures/94-C-20-2.bmp","fasha:va","Right","39","1","5","8","C1","J","5"
"","","approach-retreat","9","575223","0.0-9.0","","","1-4","7068","37","0","Training","Stims/Figures/57-J-0-1.bmp","fafasha","Left","39","1","6","8","C1","J","6"
"","","approach-retreat","10","581984","0.0-10.0","","","1-4","5248","38","0","Training","Stims/Figures/94-J-0-2.bmp","fashasha","Up","40","1","7","8","C1","J","7"
"","","approach-retreat","11","588764","0.0-11.0","","","1-4","5258","40","0","Training","Stims/Figures/102-J-10-4.bmp","sa:saza","Down","38","1","8","8","C2","J","8"
"","","approach-retreat","12","594753","0.0-12.0","","","1-4","4472","40","1","Training","Stims/Figures/7-J-10-4.bmp","sa:sa:za","Up","40","1","9","8","C2","J","9"
"","","approach-retreat","13","602934","0.0-13.0","","","1-4","6669","39","0","Training","Stims/Figures/100-C-30-3.bmp","sa:saha","Left","37","1","10","8","C2","J","10"
"","","approach-retreat","14","608974","0.0-14.0","","","1-4","4520","40","1","Training","Stims/Figures/57-C-30-1.bmp","vafa:va","Down","40","1","11","8","C1","J","11"
"","","approach-retreat","15","614593","0.0-15.0","","","1-4","4098","39","0","Training","Stims/Figures/71-C-30-1.bmp","fashava","Left","37","1","12","8","C1","J","12"
"","","approach-retreat","16","621003","0.0-16.0","","","1-4","4902","40","0","Training","Stims/Figures/139-J-0-2.bmp","va:shasha","Down","38","1","13","8","C1","J","13"
"","","approach-retreat","17","627313","0.0-17.0","","","1-4","4795","39","1","Training","Stims/Figures/7-C-20-4.bmp","sa:haha","Right","39","1","14","8","C2","J","14"
"","","approach-retreat","18","634754","0.0-18.0","","","1-4","5933","37","1","Training","Stims/Figures/102-C-20-4.bmp","zasaha","Left","37","1","15","8","C2","J","15"
"","","approach-retreat","19","640933","0.0-19.0","","","1-4","4661","40","0","Training","Stims/Figures/44-C-30-3.bmp","sasa:ha","Up","38","1","16","8","C2","J","16"
"","","approach-retreat","20","646734","0.0-20.0","","","1-4","4293","40","0","Training","Stims/Figures/100-C-30-3.bmp","sa:saha","Up","38","2","1","8","C2","J","17"
"","","approach-retreat","21","652593","0.0-21.0","","","1-4","4347","37","1","Training","Stims/Figures/102-C-20-4.bmp","zasaha","Left","37","2","2","8","C2","J","18"
"","","approach-retreat","22","659713","0.0-22.0","","","1-4","5600","37","0","Training","Stims/Figures/44-C-30-3.bmp","sasa:ha","Right","39","2","3","8","C2","J","19"
"","","approach-retreat","23","665603","0.0-23.0","","","1-4","4367","39","1","Training","Stims/Figures/7-C-20-4.bmp","sa:haha","Right","39","2","4","8","C2","J","20"
"","","approach-retreat","24","671564","0.0-24.0","","","1-4","4437","40","1","Training","Stims/Figures/94-J-0-2.bmp","fashasha","Up","40","2","5","8","C1","J","21"
"","","approach-retreat","25","682254","0.0-25.0","","","1-4","9170","40","1","Training","Stims/Figures/100-J-10-3.bmp","za:saza","Up","40","2","6","8","C2","J","22"
"","","approach-retreat","26","688123","0.0-26.0","","","1-4","4347","37","1","Training","Stims/Figures/139-C-20-2.bmp","vasha:sha","Left","37","2","7","8","C1","J","23"
"","","approach-retreat","27","694673","0.0-27.0","","","1-4","5032","39","1","Training","Stims/Figures/71-C-30-1.bmp","fashava","Right","39","2","8","8","C1","J","24"
"","","approach-retreat","28","702164","0.0-28.0","","","1-4","5972","37","1","Training","Stims/Figures/57-C-30-1.bmp","vafa:va","Left","37","2","9","8","C1","J","25"
"","","approach-retreat","29","708213","0.0-29.0","","","1-4","4535","38","1","Training","Stims/Figures/139-J-0-2.bmp","va:shasha","Down","38","2","10","8","C1","J","26"
"","","approach-retreat","30","714023","0.0-30.0","","","1-4","4290","40","1","Training","Stims/Figures/102-J-10-4.bmp","sa:saza","Up","40","2","11","8","C2","J","27"
"","","approach-retreat","31","720823","0.0-31.0","","","1-4","5290","37","1","Training","Stims/Figures/7-J-10-4.bmp","sa:sa:za","Right","37","2","12","8","C2","J","28"
"","","approach-retreat","32","726820","0.0-32.0","","","1-4","4468","37","0","Training","Stims/Figures/44-J-10-3.bmp","zasa:ha","Left","39","2","13","8","C2","J","29"
"","","approach-retreat","33","732323","0.0-33.0","","","1-4","3993","40","0","Training","Stims/Figures/57-J-0-1.bmp","fafasha","Down","38","2","14","8","C1","J","30"
"","","approach-retreat","34","738605","0.0-34.0","","","1-4","4760","38","1","Training","Stims/Figures/71-J-0-1.bmp","vafa:sha","Down","38","2","15","8","C1","J","31"
"","","approach-retreat","35","744543","0.0-35.0","","","1-4","4416","38","0","Training","Stims/Figures/94-C-20-2.bmp","fasha:va","Down","40","2","16","8","C1","J","32"
"","","approach-retreat","36","750503","0.0-36.0","","","1-4","4444","37","0","Training","Stims/Figures/94-J-0-2.bmp","fashasha","Left","39","3","1","8","C1","J","33"
"","","approach-retreat","37","756503","0.0-37.0","","","1-4","4483","38","0","Training","Stims/Figures/44-J-10-3.bmp","zasa:ha","Up","40","3","2","8","C2","J","34"
"","","approach-retreat","38","762434","0.0-38.0","","","1-4","4409","39","0","Training","Stims/Figures/102-C-20-4.bmp","zasaha","Left","37","3","3","8","C2","J","35"
"","","approach-retreat","39","768393","0.0-39.0","","","1-4","4442","40","0","Training","Stims/Figures/71-J-0-1.bmp","vafa:sha","Down","38","3","4","8","C1","J","36"
"","","approach-retreat","40","774183","0.0-40.0","","","1-4","4277","40","1","Training","Stims/Figures/102-J-10-4.bmp","sa:saza","Up","40","3","5","8","C2","J","37"
"","","approach-retreat","41","781093","0.0-41.0","","","1-4","5387","39","0","Training","Stims/Figures/100-J-10-3.bmp","za:saza","Right","37","3","6","8","C2","J","38"
"","","approach-retreat","42","787023","0.0-42.0","","","1-4","4422","40","1","Training","Stims/Figures/100-C-30-3.bmp","sa:saha","Down","40","3","7","8","C2","J","39"
"","","approach-retreat","43","792813","0.0-43.0","","","1-4","4266","39","0","Training","Stims/Figures/139-J-0-2.bmp","va:shasha","Right","37","3","8","8","C1","J","40"
"","","approach-retreat","44","799912","0.0-44.0","","","1-4","5589","40","0","Training","Stims/Figures/7-C-20-4.bmp","sa:haha","Up","38","3","9","8","C2","J","41"
"","","approach-retreat","45","805864","0.0-45.0","","","1-4","4444","38","0","Training","Stims/Figures/94-C-20-2.bmp","fasha:va","Down","40","3","10","8","C1","J","42"
"","","approach-retreat","46","811924","0.0-46.0","","","1-4","4546","39","1","Training","Stims/Figures/139-C-20-2.bmp","vasha:sha","Right","39","3","11","8","C1","J","43"
"","","approach-retreat","47","817764","0.0-47.0","","","1-4","4333","40","0","Training","Stims/Figures/44-C-30-3.bmp","sasa:ha","Up","38","3","12","8","C2","J","44"
"","","approach-retreat","48","823663","0.0-48.0","","","1-4","4381","37","1","Training","Stims/Figures/71-C-30-1.bmp","fashava","Left","37","3","13","8","C1","J","45"
"","","approach-retreat","49","829243","0.0-49.0","","","1-4","4075","39","1","Training","Stims/Figures/57-C-30-1.bmp","vafa:va","Right","39","3","14","8","C1","J","46"
"","","approach-retreat","50","835653","0.0-50.0","","","1-4","4887","37","0","Training","Stims/Figures/57-J-0-1.bmp","fafasha","Left","39","3","15","8","C1","J","47"
"","","approach-retreat","51","841714","0.0-51.0","","","1-4","4547","38","1","Training","Stims/Figures/7-J-10-4.bmp","sa:sa:za","Down","38","3","16","8","C2","J","48"
"","","approach-retreat","52","847533","0.0-52.0","","","1-4","4308","38","1","Training","Stims/Figures/71-J-0-1.bmp","vafa:sha","Down","38","4","1","8","C1","J","49"
"","","approach-retreat","53","853063","0.0-53.0","","","1-4","4019","39","0","Training","Stims/Figures/57-J-0-1.bmp","fafasha","Right","37","4","2","8","C1","J","50"
"","","approach-retreat","54","859994","0.0-54.0","","","1-4","5421","39","1","Training","Stims/Figures/44-C-30-3.bmp","sasa:ha","Right","39","4","3","8","C2","J","51"
"","","approach-retreat","55","866503","0.0-55.0","","","1-4","4998","39","0","Training","Stims/Figures/71-C-30-1.bmp","fashava","Left","37","4","4","8","C1","J","52"
"","","approach-retreat","56","872614","0.0-56.0","","","1-4","4591","38","0","Training","Stims/Figures/57-C-30-1.bmp","vafa:va","Down","40","4","5","8","C1","J","53"
"","","approach-retreat","57","878303","0.0-57.0","","","1-4","4175","39","1","Training","Stims/Figures/94-J-0-2.bmp","fashasha","Left","39","4","6","8","C1","J","54"
"","","approach-retreat","58","884403","0.0-58.0","","","1-4","4590","39","0","Training","Stims/Figures/100-J-10-3.bmp","za:saza","Right","37","4","7","8","C2","J","55"
"","","approach-retreat","59","890513","0.0-59.0","","","1-4","4593","40","1","Training","Stims/Figures/102-J-10-4.bmp","sa:saza","Up","40","4","8","8","C2","J","56"
"","","approach-retreat","60","897873","0.0-60.0","","","1-4","5838","37","1","Training","Stims/Figures/7-J-10-4.bmp","sa:sa:za","Right","37","4","9","8","C2","J","57"
"","","approach-retreat","61","903793","0.0-61.0","","","1-4","4410","38","0","Training","Stims/Figures/139-C-20-2.bmp","vasha:sha","Down","40","4","10","8","C1","J","58"
"","","approach-retreat","62","911494","0.0-62.0","","","1-4","6184","37","1","Training","Stims/Figures/100-C-30-3.bmp","sa:saha","Left","37","4","11","8","C2","J","59"
"","","approach-retreat","63","917523","0.0-63.0","","","1-4","4511","40","1","Training","Stims/Figures/44-J-10-3.bmp","zasa:ha","Up","40","4","12","8","C2","J","60"
"","","approach-retreat","64","923484","0.0-64.0","","","1-4","4442","40","0","Training","Stims/Figures/7-C-20-4.bmp","sa:haha","Up","38","4","13","8","C2","J","61"
"","","approach-retreat","65","929595","0.0-65.0","","","1-4","4593","38","0","Training","Stims/Figures/94-C-20-2.bmp","fasha:va","Down","40","4","14","8","C1","J","62"
"","","approach-retreat","66","935812","0.0-66.0","","","1-4","4701","39","0","Training","Stims/Figures/102-C-20-4.bmp","zasaha","Left","37","4","15","8","C2","J","63"
"","","approach-retreat","67","941493","0.0-67.0","","","1-4","4159","40","1","Training","Stims/Figures/139-J-0-2.bmp","va:shasha","Up","40","4","16","8","C1","J","64"
"","","approach-retreat","68","948243","0.0-68.0","","","1-4","5238","37","1","Training","Stims/Figures/57-J-0-1.bmp","fafasha","Right","37","5","1","8","C1","J","65"
"","","approach-retreat","69","954513","0.0-69.0","","","1-4","4766","39","1","Training","Stims/Figures/44-J-10-3.bmp","zasa:ha","Left","39","5","2","8","C2","J","66"
"","","approach-retreat","70","960833","0.0-70.0","","","1-4","4799","38","1","Training","Stims/Figures/44-C-30-3.bmp","sasa:ha","Up","38","5","3","8","C2","J","67"
"","","approach-retreat","71","967073","0.0-71.0","","","1-4","4723","39","0","Training","Stims/Figures/139-C-20-2.bmp","vasha:sha","Left","37","5","4","8","C1","J","68"
"","","approach-retreat","72","972894","0.0-72.0","","","1-4","4314","39","1","Training","Stims/Figures/7-J-10-4.bmp","sa:sa:za","Left","39","5","5","8","C2","J","69"
"","","approach-retreat","73","978593","0.0-73.0","","","1-4","4189","40","0","Training","Stims/Figures/57-C-30-1.bmp","vafa:va","Up","38","5","6","8","C1","J","70"
"","","approach-retreat","74","985395","0.0-74.0","","","1-4","5293","37","1","Training","Stims/Figures/100-J-10-3.bmp","za:saza","Right","37","5","7","8","C2","J","71"
"","","approach-retreat","75","991583","0.0-75.0","","","1-4","4679","40","0","Training","Stims/Figures/102-J-10-4.bmp","sa:saza","Down","38","5","8","8","C2","J","72"
"","","approach-retreat","76","997903","0.0-76.0","","","1-4","4810","40","1","Training","Stims/Figures/71-J-0-1.bmp","vafa:sha","Up","40","5","9","8","C1","J","73"
"","","approach-retreat","77","1004295","0.0-77.0","","","1-4","4882","40","1","Training","Stims/Figures/94-C-20-2.bmp","fasha:va","Down","40","5","10","8","C1","J","74"
"","","approach-retreat","78","1010773","0.0-78.0","","","1-4","4962","37","1","Training","Stims/Figures/102-C-20-4.bmp","zasaha","Left","37","5","11","8","C2","J","75"
"","","approach-retreat","79","1021083","0.0-79.0","","","1-4","8805","37","0","Training","Stims/Figures/7-C-20-4.bmp","sa:haha","Right","39","5","12","8","C2","J","76"
"","","approach-retreat","80","1027234","0.0-80.0","","","1-4","4628","40","1","Training","Stims/Figures/94-J-0-2.bmp","fashasha","Up","40","5","13","8","C1","J","77"
"","","approach-retreat","81","1033333","0.0-81.0","","","1-4","4580","37","0","Training","Stims/Figures/71-C-30-1.bmp","fashava","Right","39","5","14","8","C1","J","78"
"","","approach-retreat","82","1040233","0.0-82.0","","","1-4","5392","38","0","Training","Stims/Figures/100-C-30-3.bmp","sa:saha","Down","40","5","15","8","C2","J","79"
"","","approach-retreat","83","1046483","0.0-83.0","","","1-4","4738","40","0","Training","Stims/Figures/139-J-0-2.bmp","va:shasha","Down","38","5","16","8","C1","J","80"
"","","approach-retreat","84","1052624","0.0-84.0","","","1-4","4619","39","1","Training","Stims/Figures/139-C-20-2.bmp","vasha:sha","Right","39","6","1","8","C1","J","81"
"","","approach-retreat","85","1059223","0.0-85.0","","","1-4","5090","38","1","Training","Stims/Figures/94-C-20-2.bmp","fasha:va","Up","38","6","2","8","C1","J","82"
"","","approach-retreat","86","1065113","0.0-86.0","","","1-4","4375","39","1","Training","Stims/Figures/44-C-30-3.bmp","sasa:ha","Right","39","6","3","8","C2","J","83"
"","","approach-retreat","87","1076694","0.0-87.0","","","1-4","10071","40","0","Training","Stims/Figures/139-J-0-2.bmp","va:shasha","Down","38","6","4","8","C1","J","84"
"","","approach-retreat","88","1082784","0.0-88.0","","","1-4","4561","37","1","Training","Stims/Figures/102-C-20-4.bmp","zasaha","Left","37","6","5","8","C2","J","85"
"","","approach-retreat","89","1088214","0.0-89.0","","","1-4","3904","39","1","Training","Stims/Figures/7-J-10-4.bmp","sa:sa:za","Left","39","6","6","8","C2","J","86"
"","","approach-retreat","90","1093783","0.0-90.0","","","1-4","4064","38","1","Training","Stims/Figures/102-J-10-4.bmp","sa:saza","Down","38","6","7","8","C2","J","87"
"","","approach-retreat","91","1099853","0.0-91.0","","","1-4","4556","40","1","Training","Stims/Figures/44-J-10-3.bmp","zasa:ha","Up","40","6","8","8","C2","J","88"
"","","approach-retreat","92","1106263","0.0-92.0","","","1-4","4889","38","1","Training","Stims/Figures/94-J-0-2.bmp","fashasha","Down","38","6","9","8","C1","J","89"
"","","approach-retreat","93","1112255","0.0-93.0","","","1-4","4470","40","0","Training","Stims/Figures/100-C-30-3.bmp","sa:saha","Up","38","6","10","8","C2","J","90"
"","","approach-retreat","94","1118713","0.0-94.0","","","1-4","4953","40","1","Training","Stims/Figures/71-J-0-1.bmp","vafa:sha","Up","40","6","11","8","C1","J","91"
"","","approach-retreat","95","1124605","0.0-95.0","","","1-4","4376","37","1","Training","Stims/Figures/57-J-0-1.bmp","fafasha","Right","37","6","12","8","C1","J","92"
"","","approach-retreat","96","1130683","0.0-96.0","","","1-4","4559","37","1","Training","Stims/Figures/57-C-30-1.bmp","vafa:va","Left","37","6","13","8","C1","J","93"
"","","approach-retreat","97","1138063","0.0-97.0","","","1-4","5873","38","0","Training","Stims/Figures/7-C-20-4.bmp","sa:haha","Down","40","6","14","8","C2","J","94"
"","","approach-retreat","98","1144294","0.0-98.0","","","1-4","4714","37","0","Training","Stims/Figures/100-J-10-3.bmp","za:saza","Left","39","6","15","8","C2","J","95"
"","","approach-retreat","99","1151383","0.0-99.0","","","1-4","5583","37","0","Training","Stims/Figures/71-C-30-1.bmp","fashava","Right","39","6","16","8","C1","J","96"
"","","approach-retreat","100","1157512","0.0-100.0","","","1-4","4611","38","1","Training","Stims/Figures/44-C-30-3.bmp","sasa:ha","Up","38","7","1","8","C2","J","97"
"","","approach-retreat","101","1163273","0.0-101.0","","","1-4","4238","40","1","Training","Stims/Figures/57-J-0-1.bmp","fafasha","Up","40","7","2","8","C1","J","98"
"","","approach-retreat","102","1169474","0.0-102.0","","","1-4","4695","40","1","Training","Stims/Figures/102-C-20-4.bmp","zasaha","Down","40","7","3","8","C2","J","99"
"","","approach-retreat","103","1175733","0.0-103.0","","","1-4","4745","37","1","Training","Stims/Figures/7-J-10-4.bmp","sa:sa:za","Right","37","7","4","8","C2","J","100"
"","","approach-retreat","104","1182852","0.0-104.0","","","1-4","5604","37","0","Training","Stims/Figures/71-J-0-1.bmp","vafa:sha","Left","39","7","5","8","C1","J","101"
"","","approach-retreat","105","1188913","0.0-105.0","","","1-4","4541","40","0","Training","Stims/Figures/94-J-0-2.bmp","fashasha","Down","38","7","6","8","C1","J","102"
"","","approach-retreat","106","1194783","0.0-106.0","","","1-4","4354","37","0","Training","Stims/Figures/102-J-10-4.bmp","sa:saza","Left","39","7","7","8","C2","J","103"
"","","approach-retreat","107","1200633","0.0-107.0","","","1-4","4342","40","1","Training","Stims/Figures/139-C-20-2.bmp","vasha:sha","Down","40","7","8","8","C1","J","104"
"","","approach-retreat","108","1206553","0.0-108.0","","","1-4","4406","38","1","Training","Stims/Figures/44-J-10-3.bmp","zasa:ha","Down","38","7","9","8","C2","J","105"
"","","approach-retreat","109","1212290","0.0-109.0","","","1-4","4226","40","0","Training","Stims/Figures/57-C-30-1.bmp","vafa:va","Up","38","7","10","8","C1","J","106"
"","","approach-retreat","110","1219833","0.0-110.0","","","1-4","6034","37","1","Training","Stims/Figures/100-J-10-3.bmp","za:saza","Right","37","7","11","8","C2","J","107"
"","","approach-retreat","111","1225685","0.0-111.0","","","1-4","4336","40","0","Training","Stims/Figures/7-C-20-4.bmp","sa:haha","Up","38","7","12","8","C2","J","108"
"","","approach-retreat","112","1231853","0.0-112.0","","","1-4","4663","39","1","Training","Stims/Figures/100-C-30-3.bmp","sa:saha","Right","39","7","13","8","C2","J","109"
"","","approach-retreat","113","1238443","0.0-113.0","","","1-4","5085","37","0","Training","Stims/Figures/139-J-0-2.bmp","va:shasha","Left","39","7","14","8","C1","J","110"
"","","approach-retreat","114","1244244","0.0-114.0","","","1-4","4294","37","1","Training","Stims/Figures/94-C-20-2.bmp","fasha:va","Left","37","7","15","8","C1","J","111"
"","","approach-retreat","115","1250442","0.0-115.0","","","1-4","4687","37","0","Training","Stims/Figures/71-C-30-1.bmp","fashava","Right","39","7","16","8","C1","J","112"
"","","approach-retreat","116","1256073","0.0-116.0","","","1-4","4107","40","0","Training","Stims/Figures/102-C-20-4.bmp","zasaha","Up","38","8","1","8","C2","J","113"
"","","approach-retreat","117","1262243","0.0-117.0","","","1-4","4659","38","0","Training","Stims/Figures/71-C-30-1.bmp","fashava","Down","40","8","2","8","C1","J","114"
"","","approach-retreat","118","1268203","0.0-118.0","","","1-4","4442","37","1","Training","Stims/Figures/7-C-20-4.bmp","sa:haha","Left","37","8","3","8","C2","J","115"
"","","approach-retreat","119","1273753","0.0-119.0","","","1-4","4039","40","1","Training","Stims/Figures/57-J-0-1.bmp","fafasha","Up","40","8","4","8","C1","J","116"
"","","approach-retreat","120","1279843","0.0-120.0","","","1-4","4579","39","1","Training","Stims/Figures/100-C-30-3.bmp","sa:saha","Right","39","8","5","8","C2","J","117"
"","","approach-retreat","121","1285524","0.0-121.0","","","1-4","4159","40","1","Training","Stims/Figures/7-J-10-4.bmp","sa:sa:za","Up","40","8","6","8","C2","J","118"
"","","approach-retreat","122","1295283","0.0-122.0","","","1-4","8251","37","1","Training","Stims/Figures/44-J-10-3.bmp","zasa:ha","Right","37","8","7","8","C2","J","119"
"","","approach-retreat","123","1300993","0.0-123.0","","","1-4","4188","39","0","Training","Stims/Figures/57-C-30-1.bmp","vafa:va","Left","37","8","8","8","C1","J","120"
"","","approach-retreat","124","1306823","0.0-124.0","","","1-4","4310","39","1","Training","Stims/Figures/94-J-0-2.bmp","fashasha","Left","39","8","9","8","C1","J","121"
"","","approach-retreat","125","1313943","0.0-125.0","","","1-4","5607","40","1","Training","Stims/Figures/71-J-0-1.bmp","vafa:sha","Up","40","8","10","8","C1","J","122"
"","","approach-retreat","126","1320343","0.0-126.0","","","1-4","4880","40","1","Training","Stims/Figures/94-C-20-2.bmp","fasha:va","Down","40","8","11","8","C1","J","123"
"","","approach-retreat","127","1329524","0.0-127.0","","","1-4","7672","37","1","Training","Stims/Figures/44-C-30-3.bmp","sasa:ha","Left","37","8","12","8","C2","J","124"
"","","approach-retreat","128","1338183","0.0-128.0","","","1-4","7145","37","1","Training","Stims/Figures/139-J-0-2.bmp","va:shasha","Right","37","8","13","8","C1","J","125"
"","","approach-retreat","129","1346984","0.0-129.0","","","1-4","7293","40","1","Training","Stims/Figures/139-C-20-2.bmp","vasha:sha","Down","40","8","14","8","C1","J","126"
"","","approach-retreat","130","1353402","0.0-130.0","","","1-4","4912","37","1","Training","Stims/Figures/100-J-10-3.bmp","za:saza","Right","37","8","15","8","C2","J","127"
"","","approach-retreat","131","1359214","0.0-131.0","","","1-4","4294","40","0","Training","Stims/Figures/102-J-10-4.bmp","sa:saza","Down","38","8","16","8","C2","J","128"
"","","approach-retreat","132","1364724","0.0-132.0","","","1-4","3990","39","0","Training","Stims/Figures/139-C-20-2.bmp","vasha:sha","Left","37","9","1","8","C1","J","129"
"","","approach-retreat","133","1371942","0.0-133.0","","","1-4","5701","37","1","Training","Stims/Figures/44-C-30-3.bmp","sasa:ha","Left","37","9","2","8","C2","J","130"
"","","approach-retreat","134","1378984","0.0-134.0","","","1-4","5528","37","1","Training","Stims/Figures/71-C-30-1.bmp","fashava","Left","37","9","3","8","C1","J","131"
"","","approach-retreat","135","1386573","0.0-135.0","","","1-4","6076","39","0","Training","Stims/Figures/102-J-10-4.bmp","sa:saza","Right","37","9","4","8","C2","J","132"
"","","approach-retreat","136","1392273","0.0-136.0","","","1-4","4185","40","0","Training","Stims/Figures/57-C-30-1.bmp","vafa:va","Up","38","9","5","8","C1","J","133"
"","","approach-retreat","137","1399983","0.0-137.0","","","1-4","6202","40","1","Training","Stims/Figures/100-C-30-3.bmp","sa:saha","Down","40","9","6","8","C2","J","134"
"","","approach-retreat","138","1405923","0.0-138.0","","","1-4","4433","38","0","Training","Stims/Figures/102-C-20-4.bmp","zasaha","Down","40","9","7","8","C2","J","135"
"","","approach-retreat","139","1411952","0.0-139.0","","","1-4","4517","39","1","Training","Stims/Figures/44-J-10-3.bmp","zasa:ha","Left","39","9","8","8","C2","J","136"
"","","approach-retreat","140","1419063","0.0-140.0","","","1-4","5595","39","1","Training","Stims/Figures/94-C-20-2.bmp","fasha:va","Right","39","9","9","8","C1","J","137"
"","","approach-retreat","141","1426663","0.0-141.0","","","1-4","6086","38","0","Training","Stims/Figures/57-J-0-1.bmp","fafasha","Up","40","9","10","8","C1","J","138"
"","","approach-retreat","142","1432293","0.0-142.0","","","1-4","4110","40","0","Training","Stims/Figures/7-C-20-4.bmp","sa:haha","Up","38","9","11","8","C2","J","139"
"","","approach-retreat","143","1438573","0.0-143.0","","","1-4","4758","37","1","Training","Stims/Figures/100-J-10-3.bmp","za:saza","Right","37","9","12","8","C2","J","140"
"","","approach-retreat","144","1445433","0.0-144.0","","","1-4","5344","37","1","Training","Stims/Figures/139-J-0-2.bmp","va:shasha","Right","37","9","13","8","C1","J","141"
"","","approach-retreat","145","1451394","0.0-145.0","","","1-4","4436","38","1","Training","Stims/Figures/7-J-10-4.bmp","sa:sa:za","Down","38","9","14","8","C2","J","142"
"","","approach-retreat","146","1456913","0.0-146.0","","","1-4","4003","38","1","Training","Stims/Figures/71-J-0-1.bmp","vafa:sha","Down","38","9","15","8","C1","J","143"
"","","approach-retreat","147","1462733","0.0-147.0","","","1-4","4297","40","1","Training","Stims/Figures/94-J-0-2.bmp","fashasha","Up","40","9","16","8","C1","J","144"
"21962","","instructions","148","1484695","0.0-148.0","[{""page_index"":0,""viewing_time"":21960}]","","","","","","","","","","","","","","","",""
"","","approach-retreat","149","1493703","0.0-149.0","","","1-4","7502","40","1","Testing","Stims/Figures/44-C-30-3.bmp","sasa:ha","Down","40","1","1","8","C2","J","1"
"","","approach-retreat","150","1502103","0.0-150.0","","","1-4","6876","37","1","Testing","Stims/Figures/71-C-30-1.bmp","fashava","Left","37","1","2","8","C1","J","2"
"","","approach-retreat","151","1508952","0.0-151.0","","","1-4","5327","39","1","Testing","Stims/Figures/85-C-20-2.bmp","fafava","Right","39","1","3","8","C1","J","3"
"","","approach-retreat","152","1516851","0.0-152.0","","","1-4","6387","37","1","Testing","Stims/Figures/74-J-10-4.bmp","za:saha","Right","37","1","4","8","C2","J","4"
"","","approach-retreat","153","1525813","0.0-153.0","","","1-4","7452","38","0","Testing","Stims/Figures/139-C-20-2.bmp","vasha:sha","Down","40","1","5","8","C1","J","5"
"","","approach-retreat","154","1544013","0.0-154.0","","","1-4","16687","37","1","Testing","Stims/Figures/144-C-30-3.bmp","zaha:za","Left","37","1","6","8","C2","J","6"
"","","approach-retreat","155","1549974","0.0-155.0","","","1-4","4454","40","1","Testing","Stims/Figures/71-J-0-1.bmp","vafa:sha","Up","40","1","7","8","C1","J","7"
"","","approach-retreat","156","1556988","0.0-156.0","","","1-4","5505","40","1","Testing","Stims/Figures/100-J-10-3.bmp","za:saza","Up","40","1","8","8","C2","J","8"
"","","approach-retreat","157","1562844","0.0-157.0","","","1-4","4347","37","0","Testing","Stims/Figures/144-J-10-3.bmp","za:ha:ha","Left","39","1","9","8","C2","J","9"
"","","approach-retreat","158","1568962","0.0-158.0","","","1-4","4605","37","1","Testing","Stims/Figures/44-J-10-3.bmp","zasa:ha","Right","37","1","10","8","C2","J","10"
"","","approach-retreat","159","1576963","0.0-159.0","","","1-4","6489","39","0","Testing","Stims/Figures/102-J-10-4.bmp","sa:saza","Right","37","1","11","8","C2","J","11"
"","","approach-retreat","160","1583073","0.0-160.0","","","1-4","4587","39","1","Testing","Stims/Figures/102-C-20-4.bmp","zasaha","Right","39","1","12","8","C2","J","12"
"","","approach-retreat","161","1588914","0.0-161.0","","","1-4","4319","37","1","Testing","Stims/Figures/7-C-20-4.bmp","sa:haha","Left","37","1","13","8","C2","J","13"
"","","approach-retreat","162","1594784","0.0-162.0","","","1-4","4353","40","1","Testing","Stims/Figures/57-C-30-1.bmp","vafa:va","Down","40","1","14","8","C1","J","14"
"","","approach-retreat","163","1600873","0.0-163.0","","","1-4","4579","40","1","Testing","Stims/Figures/27-C-30-1.bmp","vashava","Down","40","1","15","8","C1","J","15"
"","","approach-retreat","164","1606743","0.0-164.0","","","1-4","4355","39","1","Testing","Stims/Figures/7-J-10-4.bmp","sa:sa:za","Left","39","1","16","8","C2","J","16"
"","","approach-retreat","165","1612693","0.0-165.0","","","1-4","4439","39","1","Testing","Stims/Figures/27-J-0-1.bmp","fasha:sha","Left","39","1","17","8","C1","J","17"
"","","approach-retreat","166","1618463","0.0-166.0","","","1-4","4256","40","1","Testing","Stims/Figures/57-J-0-1.bmp","fafasha","Up","40","1","18","8","C1","J","18"
"","","approach-retreat","167","1625913","0.0-167.0","","","1-4","5938","38","1","Testing","Stims/Figures/94-C-20-2.bmp","fasha:va","Up","38","1","19","8","C1","J","19"
"","","approach-retreat","168","1638233","0.0-168.0","","","1-4","10806","40","1","Testing","Stims/Figures/74-C-20-4.bmp","za:haza","Down","40","1","20","8","C2","J","20"
"","","approach-retreat","169","1644163","0.0-169.0","","","1-4","4421","40","1","Testing","Stims/Figures/85-J-0-2.bmp","va:fa:sha","Up","40","1","21","8","C1","J","21"
"","","approach-retreat","170","1680973","0.0-170.0","","","1-4","35300","39","1","Testing","Stims/Figures/100-C-30-3.bmp","sa:saha","Right","39","1","22","8","C2","J","22"
"","","approach-retreat","171","1691453","0.0-171.0","","","1-4","8975","40","1","Testing","Stims/Figures/94-J-0-2.bmp","fashasha","Up","40","1","23","8","C1","J","23"
"","","approach-retreat","172","1698905","0.0-172.0","","","1-4","5927","38","1","Testing","Stims/Figures/139-J-0-2.bmp","va:shasha","Down","38","1","24","8","C1","J","24"
"","","approach-retreat","173","1705233","0.0-173.0","","","1-4","4810","38","1","Testing","Stims/Figures/139-J-0-2.bmp","va:shasha","Down","38","2","1","8","C1","J","25"
"","","approach-retreat","174","1728793","0.0-174.0","","","1-4","22052","38","1","Testing","Stims/Figures/57-J-0-1.bmp","fafasha","Down","38","2","2","8","C1","J","26"
"","","approach-retreat","175","1734654","0.0-175.0","","","1-4","4353","40","1","Testing","Stims/Figures/85-C-20-2.bmp","fafava","Down","40","2","3","8","C1","J","27"
"","","approach-retreat","176","1740493","0.0-176.0","","","1-4","4325","40","1","Testing","Stims/Figures/27-C-30-1.bmp","vashava","Down","40","2","4","8","C1","J","28"
"","","approach-retreat","177","1748992","0.0-177.0","","","1-4","6995","37","1","Testing","Stims/Figures/94-C-20-2.bmp","fasha:va","Left","37","2","5","8","C1","J","29"
"","","approach-retreat","178","1754845","0.0-178.0","","","1-4","4328","39","1","Testing","Stims/Figures/27-J-0-1.bmp","fasha:sha","Left","39","2","6","8","C1","J","30"
"","","approach-retreat","179","1760703","0.0-179.0","","","1-4","4348","40","1","Testing","Stims/Figures/144-J-10-3.bmp","za:ha:ha","Up","40","2","7","8","C2","J","31"
"","","approach-retreat","180","1766735","0.0-180.0","","","1-4","4512","40","1","Testing","Stims/Figures/102-J-10-4.bmp","sa:saza","Up","40","2","8","8","C2","J","32"
"","","approach-retreat","181","1773873","0.0-181.0","","","1-4","5628","37","0","Testing","Stims/Figures/7-C-20-4.bmp","sa:haha","Right","39","2","9","8","C2","J","33"
"","","approach-retreat","182","1779903","0.0-182.0","","","1-4","4509","37","1","Testing","Stims/Figures/44-J-10-3.bmp","zasa:ha","Right","37","2","10","8","C2","J","34"
"","","approach-retreat","183","1785454","0.0-183.0","","","1-4","4044","40","1","Testing","Stims/Figures/74-J-10-4.bmp","za:saha","Up","40","2","11","8","C2","J","35"
"","","approach-retreat","184","1791843","0.0-184.0","","","1-4","4866","40","1","Testing","Stims/Figures/144-C-30-3.bmp","zaha:za","Down","40","2","12","8","C2","J","36"
"","","approach-retreat","185","1805384","0.0-185.0","","","1-4","12017","37","1","Testing","Stims/Figures/100-C-30-3.bmp","sa:saha","Left","37","2","13","8","C2","J","37"
"","","approach-retreat","186","1812063","0.0-186.0","","","1-4","5162","39","1","Testing","Stims/Figures/85-J-0-2.bmp","va:fa:sha","Left","39","2","14","8","C1","J","38"
"","","approach-retreat","187","1820244","0.0-187.0","","","1-4","6659","37","1","Testing","Stims/Figures/94-J-0-2.bmp","fashasha","Right","37","2","15","8","C1","J","39"
"","","approach-retreat","188","1826022","0.0-188.0","","","1-4","4274","40","1","Testing","Stims/Figures/100-J-10-3.bmp","za:saza","Up","40","2","16","8","C2","J","40"
"","","approach-retreat","189","1831794","0.0-189.0","","","1-4","4262","39","1","Testing","Stims/Figures/71-J-0-1.bmp","vafa:sha","Left","39","2","17","8","C1","J","41"
"","","approach-retreat","190","1840752","0.0-190.0","","","1-4","7450","37","1","Testing","Stims/Figures/57-C-30-1.bmp","vafa:va","Left","37","2","18","8","C1","J","42"
"","","approach-retreat","191","1847177","0.0-191.0","","","1-4","4915","38","0","Testing","Stims/Figures/74-C-20-4.bmp","za:haza","Down","40","2","19","8","C2","J","43"
"","","approach-retreat","192","1853284","0.0-192.0","","","1-4","4599","39","1","Testing","Stims/Figures/44-C-30-3.bmp","sasa:ha","Right","39","2","20","8","C2","J","44"
"","","approach-retreat","193","1859268","0.0-193.0","","","1-4","4474","38","1","Testing","Stims/Figures/139-C-20-2.bmp","vasha:sha","Up","38","2","21","8","C1","J","45"
"","","approach-retreat","194","1866223","0.0-194.0","","","1-4","5440","39","0","Testing","Stims/Figures/7-J-10-4.bmp","sa:sa:za","Right","37","2","22","8","C2","J","46"
"","","approach-retreat","195","1871884","0.0-195.0","","","1-4","4137","39","1","Testing","Stims/Figures/102-C-20-4.bmp","zasaha","Right","39","2","23","8","C2","J","47"
"","","approach-retreat","196","1898974","0.0-196.0","","","1-4","25569","38","1","Testing","Stims/Figures/71-C-30-1.bmp","fashava","Up","38","2","24","8","C1","J","48"
"","","approach-retreat","197","1904683","0.0-197.0","","","1-4","4205","39","1","Testing","Stims/Figures/57-J-0-1.bmp","fafasha","Left","39","3","1","8","C1","J","49"
"","","approach-retreat","198","1912083","0.0-198.0","","","1-4","5880","38","1","Testing","Stims/Figures/144-C-30-3.bmp","zaha:za","Up","38","3","2","8","C2","J","50"
"","","approach-retreat","199","1919053","0.0-199.0","","","1-4","5453","39","1","Testing","Stims/Figures/94-J-0-2.bmp","fashasha","Left","39","3","3","8","C1","J","51"
"","","approach-retreat","200","1925953","0.0-200.0","","","1-4","5390","40","1","Testing","Stims/Figures/71-C-30-1.bmp","fashava","Down","40","3","4","8","C1","J","52"
"","","approach-retreat","201","1932903","0.0-201.0","","","1-4","5427","37","1","Testing","Stims/Figures/44-J-10-3.bmp","zasa:ha","Right","37","3","5","8","C2","J","53"
"","","approach-retreat","202","1948423","0.0-202.0","","","1-4","14012","39","1","Testing","Stims/Figures/27-C-30-1.bmp","vashava","Right","39","3","6","8","C1","J","54"
"","","approach-retreat","203","1954562","0.0-203.0","","","1-4","4620","39","0","Testing","Stims/Figures/74-C-20-4.bmp","za:haza","Left","37","3","7","8","C2","J","55"
"","","approach-retreat","204","1962474","0.0-204.0","","","1-4","6398","38","1","Testing","Stims/Figures/71-J-0-1.bmp","vafa:sha","Down","38","3","8","8","C1","J","56"
"","","approach-retreat","205","1986132","0.0-205.0","","","1-4","22144","37","1","Testing","Stims/Figures/102-C-20-4.bmp","zasaha","Left","37","3","9","8","C2","J","57"
"","","approach-retreat","206","1991724","0.0-206.0","","","1-4","4077","40","1","Testing","Stims/Figures/144-J-10-3.bmp","za:ha:ha","Up","40","3","10","8","C2","J","58"
"","","approach-retreat","207","1997593","0.0-207.0","","","1-4","4359","40","1","Testing","Stims/Figures/100-C-30-3.bmp","sa:saha","Down","40","3","11","8","C2","J","59"
"","","approach-retreat","208","2003233","0.0-208.0","","","1-4","4133","40","1","Testing","Stims/Figures/139-J-0-2.bmp","va:shasha","Up","40","3","12","8","C1","J","60"
"","","approach-retreat","209","2011813","0.0-209.0","","","1-4","7060","40","1","Testing","Stims/Figures/139-C-20-2.bmp","vasha:sha","Down","40","3","13","8","C1","J","61"
"","","approach-retreat","210","2017663","0.0-210.0","","","1-4","4335","40","1","Testing","Stims/Figures/100-J-10-3.bmp","za:saza","Up","40","3","14","8","C2","J","62"
"","","approach-retreat","211","2026333","0.0-211.0","","","1-4","7158","39","1","Testing","Stims/Figures/7-C-20-4.bmp","sa:haha","Right","39","3","15","8","C2","J","63"
"","","approach-retreat","212","2032902","0.0-212.0","","","1-4","5061","39","1","Testing","Stims/Figures/44-C-30-3.bmp","sasa:ha","Right","39","3","16","8","C2","J","64"
"","","approach-retreat","213","2038503","0.0-213.0","","","1-4","4084","40","1","Testing","Stims/Figures/27-J-0-1.bmp","fasha:sha","Up","40","3","17","8","C1","J","65"
"","","approach-retreat","214","2049473","0.0-214.0","","","1-4","9456","39","1","Testing","Stims/Figures/7-J-10-4.bmp","sa:sa:za","Left","39","3","18","8","C2","J","66"
"","","approach-retreat","215","2055553","0.0-215.0","","","1-4","4560","39","1","Testing","Stims/Figures/85-C-20-2.bmp","fafava","Right","39","3","19","8","C1","J","67"
"","","approach-retreat","216","2063694","0.0-216.0","","","1-4","6633","37","1","Testing","Stims/Figures/94-C-20-2.bmp","fasha:va","Left","37","3","20","8","C1","J","68"
"","","approach-retreat","217","2069883","0.0-217.0","","","1-4","4684","40","0","Testing","Stims/Figures/74-J-10-4.bmp","za:saha","Down","38","3","21","8","C2","J","69"
"","","approach-retreat","218","2093032","0.0-218.0","","","1-4","21619","39","0","Testing","Stims/Figures/102-J-10-4.bmp","sa:saza","Right","37","3","22","8","C2","J","70"
"","","approach-retreat","219","2098972","0.0-219.0","","","1-4","4419","40","1","Testing","Stims/Figures/85-J-0-2.bmp","va:fa:sha","Up","40","3","23","8","C1","J","71"
"","","approach-retreat","220","2105251","0.0-220.0","","","1-4","4772","40","1","Testing","Stims/Figures/57-C-30-1.bmp","vafa:va","Down","40","3","24","8","C1","J","72"
"","","approach-retreat","221","2111103","0.0-221.0","","","1-4","4332","40","1","Testing","Stims/Figures/27-J-0-1.bmp","fasha:sha","Up","40","4","1","8","C1","J","73"
"","","approach-retreat","222","2117692","0.0-222.0","","","1-4","5080","38","1","Testing","Stims/Figures/94-J-0-2.bmp","fashasha","Down","38","4","2","8","C1","J","74"
"","","approach-retreat","223","2125713","0.0-223.0","","","1-4","6509","37","1","Testing","Stims/Figures/57-J-0-1.bmp","fafasha","Right","37","4","3","8","C1","J","75"
"","","approach-retreat","224","2131703","0.0-224.0","","","1-4","4474","38","1","Testing","Stims/Figures/144-J-10-3.bmp","za:ha:ha","Down","38","4","4","8","C2","J","76"
"","","approach-retreat","225","2143394","0.0-225.0","","","1-4","10173","38","1","Testing","Stims/Figures/100-C-30-3.bmp","sa:saha","Up","38","4","5","8","C2","J","77"
"","","approach-retreat","226","2149473","0.0-226.0","","","1-4","4564","38","1","Testing","Stims/Figures/85-C-20-2.bmp","fafava","Up","38","4","6","8","C1","J","78"
"","","approach-retreat","227","2156812","0.0-227.0","","","1-4","5822","40","1","Testing","Stims/Figures/57-C-30-1.bmp","vafa:va","Down","40","4","7","8","C1","J","79"
"","","approach-retreat","228","2165753","0.0-228.0","","","1-4","7432","37","1","Testing","Stims/Figures/7-C-20-4.bmp","sa:haha","Left","37","4","8","8","C2","J","80"
"","","approach-retreat","229","2205504","0.0-229.0","","","1-4","38240","38","1","Testing","Stims/Figures/71-J-0-1.bmp","vafa:sha","Down","38","4","9","8","C1","J","81"
"","","approach-retreat","230","2213183","0.0-230.0","","","1-4","6165","39","1","Testing","Stims/Figures/144-C-30-3.bmp","zaha:za","Right","39","4","10","8","C2","J","82"
"","","approach-retreat","231","2226141","0.0-231.0","","","1-4","11450","37","1","Testing","Stims/Figures/74-J-10-4.bmp","za:saha","Right","37","4","11","8","C2","J","83"
"","","approach-retreat","232","2232252","0.0-232.0","","","1-4","4589","38","1","Testing","Stims/Figures/74-C-20-4.bmp","za:haza","Up","38","4","12","8","C2","J","84"
"","","approach-retreat","233","2239962","0.0-233.0","","","1-4","6200","38","1","Testing","Stims/Figures/102-J-10-4.bmp","sa:saza","Down","38","4","13","8","C2","J","85"
"","","approach-retreat","234","2246172","0.0-234.0","","","1-4","4692","38","1","Testing","Stims/Figures/139-J-0-2.bmp","va:shasha","Down","38","4","14","8","C1","J","86"
"","","approach-retreat","235","2251963","0.0-235.0","","","1-4","4279","40","1","Testing","Stims/Figures/85-J-0-2.bmp","va:fa:sha","Up","40","4","15","8","C1","J","87"
"","","approach-retreat","236","2258833","0.0-236.0","","","1-4","5353","37","1","Testing","Stims/Figures/102-C-20-4.bmp","zasaha","Left","37","4","16","8","C2","J","88"
"","","approach-retreat","237","2272223","0.0-237.0","","","1-4","11873","39","1","Testing","Stims/Figures/94-C-20-2.bmp","fasha:va","Right","39","4","17","8","C1","J","89"
"","","approach-retreat","238","2282363","0.0-238.0","","","1-4","8633","39","1","Testing","Stims/Figures/44-J-10-3.bmp","zasa:ha","Left","39","4","18","8","C2","J","90"
"","","approach-retreat","239","2290063","0.0-239.0","","","1-4","6180","39","1","Testing","Stims/Figures/27-C-30-1.bmp","vashava","Right","39","4","19","8","C1","J","91"
"","","approach-retreat","240","2297155","0.0-240.0","","","1-4","5582","38","0","Testing","Stims/Figures/7-J-10-4.bmp","sa:sa:za","Up","40","4","20","8","C2","J","92"
"","","approach-retreat","241","2311254","0.0-241.0","","","1-4","12582","37","1","Testing","Stims/Figures/139-C-20-2.bmp","vasha:sha","Left","37","4","21","8","C1","J","93"
"","","approach-retreat","242","2325214","0.0-242.0","","","1-4","12439","37","1","Testing","Stims/Figures/71-C-30-1.bmp","fashava","Left","37","4","22","8","C1","J","94"
"","","approach-retreat","243","2330873","0.0-243.0","","","1-4","4151","39","1","Testing","Stims/Figures/100-J-10-3.bmp","za:saza","Left","39","4","23","8","C2","J","95"
"","","approach-retreat","244","2337113","0.0-244.0","","","1-4","4725","39","1","Testing","Stims/Figures/44-C-30-3.bmp","sasa:ha","Right","39","4","24","8","C2","J","96"
"51948","","survey-text","245","2389071","0.0-245.0","","{""Q0"":""PS18OO45""}","","","","","","","","","","","","","","",""
