\"rt\",\"key_press\",\"trial_type\",\"trial_index\",\"time_elapsed\",\"internal_node_id\",\"view_history\",\"responses\",\"Id\",\"Rt\",\"ResKeyCode\",\"ResCorr\",\"TrialType2\",\"Image\",\"Label\",\"Location\",\"CorrectResponse\",\"Block\",\"BlockTrial\",\"Condition\",\"LabelType\",\"Subcondition\",\"trialNum\"
\"31178\",\"32\",\"text\",\"0\",\"31180\",\"0.0-0.0-0.0\",\"\",\"\",\"\",\"\",\"\",\"\",\"\",\"\",\"\",\"\",\"\",\"\",\"\",\"\",\"\",\"\",\"\"
\"62461\",\"\",\"instructions\",\"1\",\"93643\",\"0.0-1.0\",\"[{\"\"page_index\"\":0,\"\"viewing_time\"\":62460}]\",\"\",\"\",\"\",\"\",\"\",\"\",\"\",\"\",\"\",\"\",\"\",\"\",\"\",\"\",\"\",\"\"
\"92794\",\"\",\"survey-multi-choice\",\"2\",\"186469\",\"0.0-2.0\",\"\",\"{\"\"Q0\"\":\"\"Da\"\",\"\"Q1\"\":\"\"Da\"\",\"\"Q2\"\":\"\"Da\"\",\"\"Q3\"\":\"\"Ne\"\",\"\"Q4\"\":\"\"Da\"\",\"\"Q5\"\":\"\"Da\"\"}\",\"\",\"\",\"\",\"\",\"\",\"\",\"\",\"\",\"\",\"\",\"\",\"\",\"\",\"\",\"\"
\"\",\"\",\"bio\",\"3\",\"205143\",\"0.0-3.0\",\"\",\"{\"\"age\"\":\"\"20\"\",\"\"gender\"\":\"\"f\"\",\"\"specify\"\":\"\"\"\"}\",\"\",\"\",\"\",\"\",\"\",\"\",\"\",\"\",\"\",\"\",\"\",\"\",\"\",\"\",\"\"
\"\",\"\",\"approach-retreat\",\"4\",\"211867\",\"0.0-4.0\",\"\",\"\",\"2-1\",\"5217\",\"38\",\"1\",\"Training\",\"Stims/Figures/118-C-20-2.bmp\",\"zaha:za\",\"Up\",\"38\",\"1\",\"1\",\"9\",\"C2\",\"J\",\"1\"
\"\",\"\",\"approach-retreat\",\"5\",\"220216\",\"0.0-5.0\",\"\",\"\",\"2-1\",\"6841\",\"40\",\"0\",\"Training\",\"Stims/Figures/111-J-10-3.bmp\",\"na:la:na\",\"Down\",\"38\",\"1\",\"2\",\"9\",\"S\",\"J\",\"2\"
\"\",\"\",\"approach-retreat\",\"6\",\"239269\",\"0.0-6.0\",\"\",\"\",\"2-1\",\"17545\",\"39\",\"1\",\"Training\",\"Stims/Figures/87-C-20-4.bmp\",\"vashava\",\"Right\",\"39\",\"1\",\"3\",\"9\",\"C1\",\"J\",\"3\"
\"\",\"\",\"approach-retreat\",\"7\",\"247384\",\"0.0-7.0\",\"\",\"\",\"2-1\",\"6608\",\"37\",\"1\",\"Training\",\"Stims/Figures/139-C-20-2.bmp\",\"fafava\",\"Left\",\"37\",\"1\",\"4\",\"9\",\"C1\",\"J\",\"4\"
\"\",\"\",\"approach-retreat\",\"8\",\"254428\",\"0.0-8.0\",\"\",\"\",\"2-1\",\"5536\",\"39\",\"0\",\"Training\",\"Stims/Figures/144-J-10-3.bmp\",\"za:haha\",\"Right\",\"37\",\"1\",\"5\",\"9\",\"C2\",\"J\",\"5\"
\"\",\"\",\"approach-retreat\",\"9\",\"260255\",\"0.0-9.0\",\"\",\"\",\"2-1\",\"4318\",\"38\",\"0\",\"Training\",\"Stims/Figures/118-J-0-2.bmp\",\"zasaza\",\"Up\",\"40\",\"1\",\"6\",\"9\",\"C2\",\"J\",\"6\"
\"\",\"\",\"approach-retreat\",\"10\",\"265978\",\"0.0-10.0\",\"\",\"\",\"2-1\",\"4214\",\"39\",\"0\",\"Training\",\"Stims/Figures/93-C-30-1.bmp\",\"pa:ka:ta\",\"Left\",\"37\",\"1\",\"7\",\"9\",\"P\",\"J\",\"7\"
\"\",\"\",\"approach-retreat\",\"11\",\"272615\",\"0.0-11.0\",\"\",\"\",\"2-1\",\"5129\",\"39\",\"1\",\"Training\",\"Stims/Figures/111-C-30-3.bmp\",\"pa:ka:ka\",\"Right\",\"39\",\"1\",\"8\",\"9\",\"P\",\"J\",\"8\"
\"\",\"\",\"approach-retreat\",\"12\",\"279394\",\"0.0-12.0\",\"\",\"\",\"2-1\",\"5271\",\"40\",\"1\",\"Training\",\"Stims/Figures/144-C-30-3.bmp\",\"fasha:sha\",\"Down\",\"40\",\"1\",\"9\",\"9\",\"C1\",\"J\",\"9\"
\"\",\"\",\"approach-retreat\",\"13\",\"285617\",\"0.0-13.0\",\"\",\"\",\"2-1\",\"4715\",\"40\",\"0\",\"Training\",\"Stims/Figures/87-J-10-4.bmp\",\"ta:ka:ta\",\"Down\",\"38\",\"1\",\"10\",\"9\",\"P\",\"J\",\"10\"
\"\",\"\",\"approach-retreat\",\"14\",\"291438\",\"0.0-14.0\",\"\",\"\",\"2-1\",\"4310\",\"37\",\"0\",\"Training\",\"Stims/Figures/93-J-0-1.bmp\",\"zahaha\",\"Left\",\"39\",\"1\",\"11\",\"9\",\"C2\",\"J\",\"11\"
\"\",\"\",\"approach-retreat\",\"15\",\"297975\",\"0.0-15.0\",\"\",\"\",\"2-1\",\"5030\",\"38\",\"0\",\"Training\",\"Stims/Figures/102-C-20-4.bmp\",\"fa:sha:va\",\"Down\",\"40\",\"1\",\"12\",\"9\",\"C1\",\"J\",\"12\"
\"\",\"\",\"approach-retreat\",\"16\",\"305268\",\"0.0-16.0\",\"\",\"\",\"2-1\",\"5785\",\"38\",\"1\",\"Training\",\"Stims/Figures/71-C-30-1.bmp\",\"pakata\",\"Up\",\"38\",\"1\",\"13\",\"9\",\"P\",\"J\",\"13\"
\"\",\"\",\"approach-retreat\",\"17\",\"312810\",\"0.0-17.0\",\"\",\"\",\"2-1\",\"6034\",\"37\",\"0\",\"Training\",\"Stims/Figures/71-J-0-1.bmp\",\"vafa:sha\",\"Left\",\"39\",\"1\",\"14\",\"9\",\"C1\",\"J\",\"14\"
\"\",\"\",\"approach-retreat\",\"18\",\"319979\",\"0.0-18.0\",\"\",\"\",\"2-1\",\"5662\",\"37\",\"1\",\"Training\",\"Stims/Figures/102-J-10-4.bmp\",\"nalala\",\"Right\",\"37\",\"1\",\"15\",\"9\",\"S\",\"J\",\"15\"
\"\",\"\",\"approach-retreat\",\"19\",\"328790\",\"0.0-19.0\",\"\",\"\",\"2-1\",\"7303\",\"38\",\"0\",\"Training\",\"Stims/Figures/139-J-0-2.bmp\",\"va:fa:sha\",\"Up\",\"40\",\"1\",\"16\",\"9\",\"C1\",\"J\",\"16\"
\"\",\"\",\"approach-retreat\",\"20\",\"334596\",\"0.0-20.0\",\"\",\"\",\"2-1\",\"4298\",\"37\",\"0\",\"Training\",\"Stims/Figures/139-J-0-2.bmp\",\"va:fa:sha\",\"Left\",\"39\",\"2\",\"1\",\"9\",\"C1\",\"J\",\"17\"
\"\",\"\",\"approach-retreat\",\"21\",\"342288\",\"0.0-21.0\",\"\",\"\",\"2-1\",\"6184\",\"37\",\"0\",\"Training\",\"Stims/Figures/144-C-30-3.bmp\",\"fasha:sha\",\"Right\",\"39\",\"2\",\"2\",\"9\",\"C1\",\"J\",\"18\"
\"\",\"\",\"approach-retreat\",\"22\",\"348245\",\"0.0-22.0\",\"\",\"\",\"2-1\",\"4450\",\"39\",\"1\",\"Training\",\"Stims/Figures/71-C-30-1.bmp\",\"pakata\",\"Right\",\"39\",\"2\",\"3\",\"9\",\"P\",\"J\",\"19\"
\"\",\"\",\"approach-retreat\",\"23\",\"354319\",\"0.0-23.0\",\"\",\"\",\"2-1\",\"4566\",\"40\",\"1\",\"Training\",\"Stims/Figures/102-J-10-4.bmp\",\"nalala\",\"Up\",\"40\",\"2\",\"4\",\"9\",\"S\",\"J\",\"20\"
\"\",\"\",\"approach-retreat\",\"24\",\"360090\",\"0.0-24.0\",\"\",\"\",\"2-1\",\"4263\",\"37\",\"0\",\"Training\",\"Stims/Figures/118-J-0-2.bmp\",\"zasaza\",\"Left\",\"39\",\"2\",\"5\",\"9\",\"C2\",\"J\",\"21\"
\"\",\"\",\"approach-retreat\",\"25\",\"366957\",\"0.0-25.0\",\"\",\"\",\"2-1\",\"5359\",\"38\",\"0\",\"Training\",\"Stims/Figures/93-C-30-1.bmp\",\"pa:ka:ta\",\"Down\",\"40\",\"2\",\"6\",\"9\",\"P\",\"J\",\"22\"
\"\",\"\",\"approach-retreat\",\"26\",\"372680\",\"0.0-26.0\",\"\",\"\",\"2-1\",\"4215\",\"40\",\"1\",\"Training\",\"Stims/Figures/144-J-10-3.bmp\",\"za:haha\",\"Up\",\"40\",\"2\",\"7\",\"9\",\"C2\",\"J\",\"23\"
\"\",\"\",\"approach-retreat\",\"27\",\"379338\",\"0.0-27.0\",\"\",\"\",\"2-1\",\"5150\",\"38\",\"1\",\"Training\",\"Stims/Figures/93-J-0-1.bmp\",\"zahaha\",\"Down\",\"38\",\"2\",\"8\",\"9\",\"C2\",\"J\",\"24\"
\"\",\"\",\"approach-retreat\",\"28\",\"385203\",\"0.0-28.0\",\"\",\"\",\"2-1\",\"4358\",\"37\",\"1\",\"Training\",\"Stims/Figures/102-C-20-4.bmp\",\"fa:sha:va\",\"Left\",\"37\",\"2\",\"9\",\"9\",\"C1\",\"J\",\"25\"
\"\",\"\",\"approach-retreat\",\"29\",\"391738\",\"0.0-29.0\",\"\",\"\",\"2-1\",\"5028\",\"38\",\"1\",\"Training\",\"Stims/Figures/139-C-20-2.bmp\",\"fafava\",\"Up\",\"38\",\"2\",\"10\",\"9\",\"C1\",\"J\",\"26\"
\"\",\"\",\"approach-retreat\",\"30\",\"398639\",\"0.0-30.0\",\"\",\"\",\"2-1\",\"5393\",\"38\",\"1\",\"Training\",\"Stims/Figures/87-C-20-4.bmp\",\"vashava\",\"Up\",\"38\",\"2\",\"11\",\"9\",\"C1\",\"J\",\"27\"
\"\",\"\",\"approach-retreat\",\"31\",\"405579\",\"0.0-31.0\",\"\",\"\",\"2-1\",\"5432\",\"37\",\"0\",\"Training\",\"Stims/Figures/118-C-20-2.bmp\",\"zaha:za\",\"Right\",\"39\",\"2\",\"12\",\"9\",\"C2\",\"J\",\"28\"
\"\",\"\",\"approach-retreat\",\"32\",\"411819\",\"0.0-32.0\",\"\",\"\",\"2-1\",\"4735\",\"39\",\"0\",\"Training\",\"Stims/Figures/71-J-0-1.bmp\",\"vafa:sha\",\"Right\",\"37\",\"2\",\"13\",\"9\",\"C1\",\"J\",\"29\"
\"\",\"\",\"approach-retreat\",\"33\",\"419796\",\"0.0-33.0\",\"\",\"\",\"2-1\",\"6470\",\"38\",\"0\",\"Training\",\"Stims/Figures/111-C-30-3.bmp\",\"pa:ka:ka\",\"Down\",\"40\",\"2\",\"14\",\"9\",\"P\",\"J\",\"30\"
\"\",\"\",\"approach-retreat\",\"34\",\"428663\",\"0.0-34.0\",\"\",\"\",\"2-1\",\"7360\",\"39\",\"1\",\"Training\",\"Stims/Figures/87-J-10-4.bmp\",\"ta:ka:ta\",\"Left\",\"39\",\"2\",\"15\",\"9\",\"P\",\"J\",\"31\"
\"\",\"\",\"approach-retreat\",\"35\",\"435836\",\"0.0-35.0\",\"\",\"\",\"2-1\",\"5665\",\"40\",\"0\",\"Training\",\"Stims/Figures/111-J-10-3.bmp\",\"na:la:na\",\"Down\",\"38\",\"2\",\"16\",\"9\",\"S\",\"J\",\"32\"
\"\",\"\",\"approach-retreat\",\"36\",\"443816\",\"0.0-36.0\",\"\",\"\",\"2-1\",\"6471\",\"37\",\"1\",\"Training\",\"Stims/Figures/111-C-30-3.bmp\",\"pa:ka:ka\",\"Left\",\"37\",\"3\",\"1\",\"9\",\"P\",\"J\",\"33\"
\"\",\"\",\"approach-retreat\",\"37\",\"452270\",\"0.0-37.0\",\"\",\"\",\"2-1\",\"6947\",\"37\",\"0\",\"Training\",\"Stims/Figures/111-J-10-3.bmp\",\"na:la:na\",\"Left\",\"39\",\"3\",\"2\",\"9\",\"S\",\"J\",\"34\"
\"\",\"\",\"approach-retreat\",\"38\",\"459257\",\"0.0-38.0\",\"\",\"\",\"2-1\",\"5478\",\"39\",\"0\",\"Training\",\"Stims/Figures/102-C-20-4.bmp\",\"fa:sha:va\",\"Left\",\"37\",\"3\",\"3\",\"9\",\"C1\",\"J\",\"35\"
\"\",\"\",\"approach-retreat\",\"39\",\"465808\",\"0.0-39.0\",\"\",\"\",\"2-1\",\"5045\",\"37\",\"1\",\"Training\",\"Stims/Figures/102-J-10-4.bmp\",\"nalala\",\"Right\",\"37\",\"3\",\"4\",\"9\",\"S\",\"J\",\"36\"
\"\",\"\",\"approach-retreat\",\"40\",\"473090\",\"0.0-40.0\",\"\",\"\",\"2-1\",\"5773\",\"38\",\"0\",\"Training\",\"Stims/Figures/93-C-30-1.bmp\",\"pa:ka:ta\",\"Down\",\"40\",\"3\",\"5\",\"9\",\"P\",\"J\",\"37\"
\"\",\"\",\"approach-retreat\",\"41\",\"478973\",\"0.0-41.0\",\"\",\"\",\"2-1\",\"4376\",\"38\",\"0\",\"Training\",\"Stims/Figures/139-J-0-2.bmp\",\"va:fa:sha\",\"Up\",\"40\",\"3\",\"6\",\"9\",\"C1\",\"J\",\"38\"
\"\",\"\",\"approach-retreat\",\"42\",\"485015\",\"0.0-42.0\",\"\",\"\",\"2-1\",\"4535\",\"38\",\"0\",\"Training\",\"Stims/Figures/144-C-30-3.bmp\",\"fasha:sha\",\"Down\",\"40\",\"3\",\"7\",\"9\",\"C1\",\"J\",\"39\"
\"\",\"\",\"approach-retreat\",\"43\",\"491318\",\"0.0-43.0\",\"\",\"\",\"2-1\",\"4794\",\"39\",\"0\",\"Training\",\"Stims/Figures/93-J-0-1.bmp\",\"zahaha\",\"Right\",\"37\",\"3\",\"8\",\"9\",\"C2\",\"J\",\"40\"
\"\",\"\",\"approach-retreat\",\"44\",\"497506\",\"0.0-44.0\",\"\",\"\",\"2-1\",\"4681\",\"40\",\"0\",\"Training\",\"Stims/Figures/118-J-0-2.bmp\",\"zasaza\",\"Down\",\"38\",\"3\",\"9\",\"9\",\"C2\",\"J\",\"41\"
\"\",\"\",\"approach-retreat\",\"45\",\"503410\",\"0.0-45.0\",\"\",\"\",\"2-1\",\"4397\",\"38\",\"1\",\"Training\",\"Stims/Figures/71-J-0-1.bmp\",\"vafa:sha\",\"Down\",\"38\",\"3\",\"10\",\"9\",\"C1\",\"J\",\"42\"
\"\",\"\",\"approach-retreat\",\"46\",\"509924\",\"0.0-46.0\",\"\",\"\",\"2-1\",\"5007\",\"38\",\"0\",\"Training\",\"Stims/Figures/87-J-10-4.bmp\",\"ta:ka:ta\",\"Up\",\"40\",\"3\",\"11\",\"9\",\"P\",\"J\",\"43\"
\"\",\"\",\"approach-retreat\",\"47\",\"516924\",\"0.0-47.0\",\"\",\"\",\"2-1\",\"5492\",\"40\",\"0\",\"Training\",\"Stims/Figures/139-C-20-2.bmp\",\"fafava\",\"Up\",\"38\",\"3\",\"12\",\"9\",\"C1\",\"J\",\"44\"
\"\",\"\",\"approach-retreat\",\"48\",\"522939\",\"0.0-48.0\",\"\",\"\",\"2-1\",\"4508\",\"39\",\"1\",\"Training\",\"Stims/Figures/144-J-10-3.bmp\",\"za:haha\",\"Left\",\"39\",\"3\",\"13\",\"9\",\"C2\",\"J\",\"45\"
\"\",\"\",\"approach-retreat\",\"49\",\"530190\",\"0.0-49.0\",\"\",\"\",\"2-1\",\"5742\",\"38\",\"1\",\"Training\",\"Stims/Figures/118-C-20-2.bmp\",\"zaha:za\",\"Up\",\"38\",\"3\",\"14\",\"9\",\"C2\",\"J\",\"46\"
\"\",\"\",\"approach-retreat\",\"50\",\"536777\",\"0.0-50.0\",\"\",\"\",\"2-1\",\"5073\",\"39\",\"1\",\"Training\",\"Stims/Figures/87-C-20-4.bmp\",\"vashava\",\"Right\",\"39\",\"3\",\"15\",\"9\",\"C1\",\"J\",\"47\"
\"\",\"\",\"approach-retreat\",\"51\",\"542981\",\"0.0-51.0\",\"\",\"\",\"2-1\",\"4694\",\"39\",\"1\",\"Training\",\"Stims/Figures/71-C-30-1.bmp\",\"pakata\",\"Right\",\"39\",\"3\",\"16\",\"9\",\"P\",\"J\",\"48\"
\"\",\"\",\"approach-retreat\",\"52\",\"550973\",\"0.0-52.0\",\"\",\"\",\"2-1\",\"6484\",\"38\",\"0\",\"Training\",\"Stims/Figures/102-C-20-4.bmp\",\"fa:sha:va\",\"Down\",\"40\",\"4\",\"1\",\"9\",\"C1\",\"J\",\"49\"
\"\",\"\",\"approach-retreat\",\"53\",\"557755\",\"0.0-53.0\",\"\",\"\",\"2-1\",\"5274\",\"37\",\"0\",\"Training\",\"Stims/Figures/93-J-0-1.bmp\",\"zahaha\",\"Left\",\"39\",\"4\",\"2\",\"9\",\"C2\",\"J\",\"50\"
\"\",\"\",\"approach-retreat\",\"54\",\"564768\",\"0.0-54.0\",\"\",\"\",\"2-1\",\"5505\",\"38\",\"0\",\"Training\",\"Stims/Figures/71-C-30-1.bmp\",\"pakata\",\"Down\",\"40\",\"4\",\"3\",\"9\",\"P\",\"J\",\"51\"
\"\",\"\",\"approach-retreat\",\"55\",\"572018\",\"0.0-55.0\",\"\",\"\",\"2-1\",\"5742\",\"39\",\"0\",\"Training\",\"Stims/Figures/111-J-10-3.bmp\",\"na:la:na\",\"Right\",\"37\",\"4\",\"4\",\"9\",\"S\",\"J\",\"52\"
\"\",\"\",\"approach-retreat\",\"56\",\"579016\",\"0.0-56.0\",\"\",\"\",\"2-1\",\"5492\",\"38\",\"0\",\"Training\",\"Stims/Figures/111-C-30-3.bmp\",\"pa:ka:ka\",\"Down\",\"40\",\"4\",\"5\",\"9\",\"P\",\"J\",\"53\"
\"\",\"\",\"approach-retreat\",\"57\",\"584642\",\"0.0-57.0\",\"\",\"\",\"2-1\",\"4119\",\"40\",\"1\",\"Training\",\"Stims/Figures/87-J-10-4.bmp\",\"ta:ka:ta\",\"Up\",\"40\",\"4\",\"6\",\"9\",\"P\",\"J\",\"54\"
\"\",\"\",\"approach-retreat\",\"58\",\"590753\",\"0.0-58.0\",\"\",\"\",\"2-1\",\"4603\",\"39\",\"1\",\"Training\",\"Stims/Figures/118-J-0-2.bmp\",\"zasaza\",\"Left\",\"39\",\"4\",\"7\",\"9\",\"C2\",\"J\",\"55\"
\"\",\"\",\"approach-retreat\",\"59\",\"596892\",\"0.0-59.0\",\"\",\"\",\"2-1\",\"4630\",\"40\",\"0\",\"Training\",\"Stims/Figures/144-C-30-3.bmp\",\"fasha:sha\",\"Up\",\"38\",\"4\",\"8\",\"9\",\"C1\",\"J\",\"56\"
\"\",\"\",\"approach-retreat\",\"60\",\"603874\",\"0.0-60.0\",\"\",\"\",\"2-1\",\"5475\",\"38\",\"0\",\"Training\",\"Stims/Figures/139-J-0-2.bmp\",\"va:fa:sha\",\"Up\",\"40\",\"4\",\"9\",\"9\",\"C1\",\"J\",\"57\"
\"\",\"\",\"approach-retreat\",\"61\",\"609732\",\"0.0-61.0\",\"\",\"\",\"2-1\",\"4351\",\"39\",\"1\",\"Training\",\"Stims/Figures/87-C-20-4.bmp\",\"vashava\",\"Right\",\"39\",\"4\",\"10\",\"9\",\"C1\",\"J\",\"58\"
\"\",\"\",\"approach-retreat\",\"62\",\"616389\",\"0.0-62.0\",\"\",\"\",\"2-1\",\"5148\",\"37\",\"0\",\"Training\",\"Stims/Figures/118-C-20-2.bmp\",\"zaha:za\",\"Right\",\"39\",\"4\",\"11\",\"9\",\"C2\",\"J\",\"59\"
\"\",\"\",\"approach-retreat\",\"63\",\"623979\",\"0.0-63.0\",\"\",\"\",\"2-1\",\"6085\",\"39\",\"0\",\"Training\",\"Stims/Figures/139-C-20-2.bmp\",\"fafava\",\"Left\",\"37\",\"4\",\"12\",\"9\",\"C1\",\"J\",\"60\"
\"\",\"\",\"approach-retreat\",\"64\",\"630371\",\"0.0-64.0\",\"\",\"\",\"2-1\",\"4883\",\"38\",\"0\",\"Training\",\"Stims/Figures/144-J-10-3.bmp\",\"za:haha\",\"Up\",\"40\",\"4\",\"13\",\"9\",\"C2\",\"J\",\"61\"
\"\",\"\",\"approach-retreat\",\"65\",\"637215\",\"0.0-65.0\",\"\",\"\",\"2-1\",\"5337\",\"37\",\"0\",\"Training\",\"Stims/Figures/71-J-0-1.bmp\",\"vafa:sha\",\"Left\",\"39\",\"4\",\"14\",\"9\",\"C1\",\"J\",\"62\"
\"\",\"\",\"approach-retreat\",\"66\",\"645094\",\"0.0-66.0\",\"\",\"\",\"2-1\",\"6372\",\"38\",\"1\",\"Training\",\"Stims/Figures/102-J-10-4.bmp\",\"nalala\",\"Down\",\"38\",\"4\",\"15\",\"9\",\"S\",\"J\",\"63\"
\"\",\"\",\"approach-retreat\",\"67\",\"651727\",\"0.0-67.0\",\"\",\"\",\"2-1\",\"5125\",\"37\",\"0\",\"Training\",\"Stims/Figures/93-C-30-1.bmp\",\"pa:ka:ta\",\"Right\",\"39\",\"4\",\"16\",\"9\",\"P\",\"J\",\"64\"
\"\",\"\",\"approach-retreat\",\"68\",\"658146\",\"0.0-68.0\",\"\",\"\",\"2-1\",\"4911\",\"38\",\"0\",\"Training\",\"Stims/Figures/118-C-20-2.bmp\",\"zaha:za\",\"Down\",\"40\",\"5\",\"1\",\"9\",\"C2\",\"J\",\"65\"
\"\",\"\",\"approach-retreat\",\"69\",\"664382\",\"0.0-69.0\",\"\",\"\",\"2-1\",\"4729\",\"37\",\"1\",\"Training\",\"Stims/Figures/102-C-20-4.bmp\",\"fa:sha:va\",\"Left\",\"37\",\"5\",\"2\",\"9\",\"C1\",\"J\",\"66\"
\"\",\"\",\"approach-retreat\",\"70\",\"670959\",\"0.0-70.0\",\"\",\"\",\"2-1\",\"5069\",\"37\",\"0\",\"Training\",\"Stims/Figures/139-J-0-2.bmp\",\"va:fa:sha\",\"Left\",\"39\",\"5\",\"3\",\"9\",\"C1\",\"J\",\"67\"
\"\",\"\",\"approach-retreat\",\"71\",\"677009\",\"0.0-71.0\",\"\",\"\",\"2-1\",\"4542\",\"39\",\"1\",\"Training\",\"Stims/Figures/139-C-20-2.bmp\",\"fafava\",\"Right\",\"39\",\"5\",\"4\",\"9\",\"C1\",\"J\",\"68\"
\"\",\"\",\"approach-retreat\",\"72\",\"683605\",\"0.0-72.0\",\"\",\"\",\"2-1\",\"5089\",\"38\",\"0\",\"Training\",\"Stims/Figures/87-C-20-4.bmp\",\"vashava\",\"Down\",\"40\",\"5\",\"5\",\"9\",\"C1\",\"J\",\"69\"
\"\",\"\",\"approach-retreat\",\"73\",\"690222\",\"0.0-73.0\",\"\",\"\",\"2-1\",\"5109\",\"38\",\"0\",\"Training\",\"Stims/Figures/111-J-10-3.bmp\",\"na:la:na\",\"Up\",\"40\",\"5\",\"6\",\"9\",\"S\",\"J\",\"70\"
\"\",\"\",\"approach-retreat\",\"74\",\"696324\",\"0.0-74.0\",\"\",\"\",\"2-1\",\"4593\",\"37\",\"0\",\"Training\",\"Stims/Figures/111-C-30-3.bmp\",\"pa:ka:ka\",\"Right\",\"39\",\"5\",\"7\",\"9\",\"P\",\"J\",\"71\"
\"\",\"\",\"approach-retreat\",\"75\",\"702596\",\"0.0-75.0\",\"\",\"\",\"2-1\",\"4766\",\"39\",\"1\",\"Training\",\"Stims/Figures/87-J-10-4.bmp\",\"ta:ka:ta\",\"Left\",\"39\",\"5\",\"8\",\"9\",\"P\",\"J\",\"72\"
\"\",\"\",\"approach-retreat\",\"76\",\"708857\",\"0.0-76.0\",\"\",\"\",\"2-1\",\"4753\",\"38\",\"1\",\"Training\",\"Stims/Figures/118-J-0-2.bmp\",\"zasaza\",\"Down\",\"38\",\"5\",\"9\",\"9\",\"C2\",\"J\",\"73\"
\"\",\"\",\"approach-retreat\",\"77\",\"715167\",\"0.0-77.0\",\"\",\"\",\"2-1\",\"4803\",\"40\",\"0\",\"Training\",\"Stims/Figures/71-C-30-1.bmp\",\"pakata\",\"Up\",\"38\",\"5\",\"10\",\"9\",\"P\",\"J\",\"74\"
\"\",\"\",\"approach-retreat\",\"78\",\"720993\",\"0.0-78.0\",\"\",\"\",\"2-1\",\"4320\",\"40\",\"0\",\"Training\",\"Stims/Figures/93-J-0-1.bmp\",\"zahaha\",\"Down\",\"38\",\"5\",\"11\",\"9\",\"C2\",\"J\",\"75\"
\"\",\"\",\"approach-retreat\",\"79\",\"727140\",\"0.0-79.0\",\"\",\"\",\"2-1\",\"4640\",\"39\",\"1\",\"Training\",\"Stims/Figures/93-C-30-1.bmp\",\"pa:ka:ta\",\"Right\",\"39\",\"5\",\"12\",\"9\",\"P\",\"J\",\"76\"
\"\",\"\",\"approach-retreat\",\"80\",\"734494\",\"0.0-80.0\",\"\",\"\",\"2-1\",\"5846\",\"38\",\"1\",\"Training\",\"Stims/Figures/144-C-30-3.bmp\",\"fasha:sha\",\"Up\",\"38\",\"5\",\"13\",\"9\",\"C1\",\"J\",\"77\"
\"\",\"\",\"approach-retreat\",\"81\",\"740313\",\"0.0-81.0\",\"\",\"\",\"2-1\",\"4312\",\"39\",\"0\",\"Training\",\"Stims/Figures/144-J-10-3.bmp\",\"za:haha\",\"Right\",\"37\",\"5\",\"14\",\"9\",\"C2\",\"J\",\"78\"
\"\",\"\",\"approach-retreat\",\"82\",\"747838\",\"0.0-82.0\",\"\",\"\",\"2-1\",\"6018\",\"38\",\"0\",\"Training\",\"Stims/Figures/71-J-0-1.bmp\",\"vafa:sha\",\"Up\",\"40\",\"5\",\"15\",\"9\",\"C1\",\"J\",\"79\"
\"\",\"\",\"approach-retreat\",\"83\",\"754081\",\"0.0-83.0\",\"\",\"\",\"2-1\",\"4736\",\"37\",\"0\",\"Training\",\"Stims/Figures/102-J-10-4.bmp\",\"nalala\",\"Left\",\"39\",\"5\",\"16\",\"9\",\"S\",\"J\",\"80\"
\"\",\"\",\"approach-retreat\",\"84\",\"762865\",\"0.0-84.0\",\"\",\"\",\"2-1\",\"7276\",\"40\",\"1\",\"Training\",\"Stims/Figures/87-C-20-4.bmp\",\"vashava\",\"Down\",\"40\",\"6\",\"1\",\"9\",\"C1\",\"J\",\"81\"
\"\",\"\",\"approach-retreat\",\"85\",\"770296\",\"0.0-85.0\",\"\",\"\",\"2-1\",\"5924\",\"37\",\"1\",\"Training\",\"Stims/Figures/93-C-30-1.bmp\",\"pa:ka:ta\",\"Left\",\"37\",\"6\",\"2\",\"9\",\"P\",\"J\",\"82\"
\"\",\"\",\"approach-retreat\",\"86\",\"778510\",\"0.0-86.0\",\"\",\"\",\"2-1\",\"6705\",\"38\",\"0\",\"Training\",\"Stims/Figures/144-C-30-3.bmp\",\"fasha:sha\",\"Down\",\"40\",\"6\",\"3\",\"9\",\"C1\",\"J\",\"83\"
\"\",\"\",\"approach-retreat\",\"87\",\"785564\",\"0.0-87.0\",\"\",\"\",\"2-1\",\"5547\",\"37\",\"1\",\"Training\",\"Stims/Figures/118-J-0-2.bmp\",\"zasaza\",\"Right\",\"37\",\"6\",\"4\",\"9\",\"C2\",\"J\",\"84\"
\"\",\"\",\"approach-retreat\",\"88\",\"792497\",\"0.0-88.0\",\"\",\"\",\"2-1\",\"5426\",\"40\",\"0\",\"Training\",\"Stims/Figures/102-C-20-4.bmp\",\"fa:sha:va\",\"Up\",\"38\",\"6\",\"5\",\"9\",\"C1\",\"J\",\"85\"
\"\",\"\",\"approach-retreat\",\"89\",\"799762\",\"0.0-89.0\",\"\",\"\",\"2-1\",\"5757\",\"40\",\"0\",\"Training\",\"Stims/Figures/102-J-10-4.bmp\",\"nalala\",\"Down\",\"38\",\"6\",\"6\",\"9\",\"S\",\"J\",\"86\"
\"\",\"\",\"approach-retreat\",\"90\",\"805956\",\"0.0-90.0\",\"\",\"\",\"2-1\",\"4685\",\"39\",\"1\",\"Training\",\"Stims/Figures/87-J-10-4.bmp\",\"ta:ka:ta\",\"Left\",\"39\",\"6\",\"7\",\"9\",\"P\",\"J\",\"87\"
\"\",\"\",\"approach-retreat\",\"91\",\"812112\",\"0.0-91.0\",\"\",\"\",\"2-1\",\"4649\",\"39\",\"1\",\"Training\",\"Stims/Figures/111-C-30-3.bmp\",\"pa:ka:ka\",\"Right\",\"39\",\"6\",\"8\",\"9\",\"P\",\"J\",\"88\"
\"\",\"\",\"approach-retreat\",\"92\",\"818100\",\"0.0-92.0\",\"\",\"\",\"2-1\",\"4478\",\"39\",\"1\",\"Training\",\"Stims/Figures/144-J-10-3.bmp\",\"za:haha\",\"Left\",\"39\",\"6\",\"9\",\"9\",\"C2\",\"J\",\"89\"
\"\",\"\",\"approach-retreat\",\"93\",\"825411\",\"0.0-93.0\",\"\",\"\",\"2-1\",\"5803\",\"39\",\"1\",\"Training\",\"Stims/Figures/139-C-20-2.bmp\",\"fafava\",\"Right\",\"39\",\"6\",\"10\",\"9\",\"C1\",\"J\",\"90\"
\"\",\"\",\"approach-retreat\",\"94\",\"831409\",\"0.0-94.0\",\"\",\"\",\"2-1\",\"4491\",\"40\",\"1\",\"Training\",\"Stims/Figures/111-J-10-3.bmp\",\"na:la:na\",\"Up\",\"40\",\"6\",\"11\",\"9\",\"S\",\"J\",\"91\"
\"\",\"\",\"approach-retreat\",\"95\",\"838482\",\"0.0-95.0\",\"\",\"\",\"2-1\",\"5562\",\"37\",\"1\",\"Training\",\"Stims/Figures/118-C-20-2.bmp\",\"zaha:za\",\"Left\",\"37\",\"6\",\"12\",\"9\",\"C2\",\"J\",\"92\"
\"\",\"\",\"approach-retreat\",\"96\",\"844438\",\"0.0-96.0\",\"\",\"\",\"2-1\",\"4449\",\"40\",\"1\",\"Training\",\"Stims/Figures/71-J-0-1.bmp\",\"vafa:sha\",\"Up\",\"40\",\"6\",\"13\",\"9\",\"C1\",\"J\",\"93\"
\"\",\"\",\"approach-retreat\",\"97\",\"851419\",\"0.0-97.0\",\"\",\"\",\"2-1\",\"5476\",\"40\",\"1\",\"Training\",\"Stims/Figures/139-J-0-2.bmp\",\"va:fa:sha\",\"Up\",\"40\",\"6\",\"14\",\"9\",\"C1\",\"J\",\"94\"
\"\",\"\",\"approach-retreat\",\"98\",\"857302\",\"0.0-98.0\",\"\",\"\",\"2-1\",\"4376\",\"37\",\"1\",\"Training\",\"Stims/Figures/93-J-0-1.bmp\",\"zahaha\",\"Right\",\"37\",\"6\",\"15\",\"9\",\"C2\",\"J\",\"95\"
\"\",\"\",\"approach-retreat\",\"99\",\"863085\",\"0.0-99.0\",\"\",\"\",\"2-1\",\"4275\",\"40\",\"1\",\"Training\",\"Stims/Figures/71-C-30-1.bmp\",\"pakata\",\"Down\",\"40\",\"6\",\"16\",\"9\",\"P\",\"J\",\"96\"
\"\",\"\",\"approach-retreat\",\"100\",\"869216\",\"0.0-100.0\",\"\",\"\",\"2-1\",\"4623\",\"39\",\"1\",\"Training\",\"Stims/Figures/71-C-30-1.bmp\",\"pakata\",\"Right\",\"39\",\"7\",\"1\",\"9\",\"P\",\"J\",\"97\"
\"\",\"\",\"approach-retreat\",\"101\",\"876162\",\"0.0-101.0\",\"\",\"\",\"2-1\",\"5433\",\"39\",\"1\",\"Training\",\"Stims/Figures/87-C-20-4.bmp\",\"vashava\",\"Right\",\"39\",\"7\",\"2\",\"9\",\"C1\",\"J\",\"98\"
\"\",\"\",\"approach-retreat\",\"102\",\"886058\",\"0.0-102.0\",\"\",\"\",\"2-1\",\"8388\",\"40\",\"1\",\"Training\",\"Stims/Figures/93-C-30-1.bmp\",\"pa:ka:ta\",\"Down\",\"40\",\"7\",\"3\",\"9\",\"P\",\"J\",\"99\"
\"\",\"\",\"approach-retreat\",\"103\",\"891820\",\"0.0-103.0\",\"\",\"\",\"2-1\",\"4253\",\"38\",\"1\",\"Training\",\"Stims/Figures/71-J-0-1.bmp\",\"vafa:sha\",\"Down\",\"38\",\"7\",\"4\",\"9\",\"C1\",\"J\",\"100\"
\"\",\"\",\"approach-retreat\",\"104\",\"897942\",\"0.0-104.0\",\"\",\"\",\"2-1\",\"4614\",\"39\",\"1\",\"Training\",\"Stims/Figures/139-J-0-2.bmp\",\"va:fa:sha\",\"Left\",\"39\",\"7\",\"5\",\"9\",\"C1\",\"J\",\"101\"
\"\",\"\",\"approach-retreat\",\"105\",\"905548\",\"0.0-105.0\",\"\",\"\",\"2-1\",\"6100\",\"40\",\"0\",\"Training\",\"Stims/Figures/111-J-10-3.bmp\",\"na:la:na\",\"Down\",\"38\",\"7\",\"6\",\"9\",\"S\",\"J\",\"102\"
\"\",\"\",\"approach-retreat\",\"106\",\"911756\",\"0.0-106.0\",\"\",\"\",\"2-1\",\"4700\",\"38\",\"1\",\"Training\",\"Stims/Figures/118-C-20-2.bmp\",\"zaha:za\",\"Up\",\"38\",\"7\",\"7\",\"9\",\"C2\",\"J\",\"103\"
\"\",\"\",\"approach-retreat\",\"107\",\"918795\",\"0.0-107.0\",\"\",\"\",\"2-1\",\"5531\",\"38\",\"1\",\"Training\",\"Stims/Figures/93-J-0-1.bmp\",\"zahaha\",\"Down\",\"38\",\"7\",\"8\",\"9\",\"C2\",\"J\",\"104\"
\"\",\"\",\"approach-retreat\",\"108\",\"928232\",\"0.0-108.0\",\"\",\"\",\"2-1\",\"7929\",\"39\",\"0\",\"Training\",\"Stims/Figures/102-J-10-4.bmp\",\"nalala\",\"Right\",\"37\",\"7\",\"9\",\"9\",\"S\",\"J\",\"105\"
\"\",\"\",\"approach-retreat\",\"109\",\"939106\",\"0.0-109.0\",\"\",\"\",\"2-1\",\"9367\",\"39\",\"1\",\"Training\",\"Stims/Figures/144-J-10-3.bmp\",\"za:haha\",\"Left\",\"39\",\"7\",\"10\",\"9\",\"C2\",\"J\",\"106\"
\"\",\"\",\"approach-retreat\",\"110\",\"948886\",\"0.0-110.0\",\"\",\"\",\"2-1\",\"8273\",\"40\",\"0\",\"Training\",\"Stims/Figures/111-C-30-3.bmp\",\"pa:ka:ka\",\"Up\",\"38\",\"7\",\"11\",\"9\",\"P\",\"J\",\"107\"
\"\",\"\",\"approach-retreat\",\"111\",\"958116\",\"0.0-111.0\",\"\",\"\",\"2-1\",\"7721\",\"38\",\"1\",\"Training\",\"Stims/Figures/139-C-20-2.bmp\",\"fafava\",\"Up\",\"38\",\"7\",\"12\",\"9\",\"C1\",\"J\",\"108\"
\"\",\"\",\"approach-retreat\",\"112\",\"966646\",\"0.0-112.0\",\"\",\"\",\"2-1\",\"7024\",\"40\",\"1\",\"Training\",\"Stims/Figures/118-J-0-2.bmp\",\"zasaza\",\"Up\",\"40\",\"7\",\"13\",\"9\",\"C2\",\"J\",\"109\"
\"\",\"\",\"approach-retreat\",\"113\",\"973264\",\"0.0-113.0\",\"\",\"\",\"2-1\",\"5109\",\"37\",\"0\",\"Training\",\"Stims/Figures/87-J-10-4.bmp\",\"ta:ka:ta\",\"Left\",\"39\",\"7\",\"14\",\"9\",\"P\",\"J\",\"110\"
\"\",\"\",\"approach-retreat\",\"114\",\"981406\",\"0.0-114.0\",\"\",\"\",\"2-1\",\"6637\",\"37\",\"0\",\"Training\",\"Stims/Figures/144-C-30-3.bmp\",\"fasha:sha\",\"Right\",\"39\",\"7\",\"15\",\"9\",\"C1\",\"J\",\"111\"
\"\",\"\",\"approach-retreat\",\"115\",\"989318\",\"0.0-115.0\",\"\",\"\",\"2-1\",\"6404\",\"39\",\"0\",\"Training\",\"Stims/Figures/102-C-20-4.bmp\",\"fa:sha:va\",\"Left\",\"37\",\"7\",\"16\",\"9\",\"C1\",\"J\",\"112\"
\"\",\"\",\"approach-retreat\",\"116\",\"996610\",\"0.0-116.0\",\"\",\"\",\"2-1\",\"5785\",\"39\",\"0\",\"Training\",\"Stims/Figures/111-J-10-3.bmp\",\"na:la:na\",\"Right\",\"37\",\"8\",\"1\",\"9\",\"S\",\"J\",\"113\"
\"\",\"\",\"approach-retreat\",\"117\",\"1003807\",\"0.0-117.0\",\"\",\"\",\"2-1\",\"5690\",\"39\",\"1\",\"Training\",\"Stims/Figures/118-C-20-2.bmp\",\"zaha:za\",\"Right\",\"39\",\"8\",\"2\",\"9\",\"C2\",\"J\",\"114\"
\"\",\"\",\"approach-retreat\",\"118\",\"1011057\",\"0.0-118.0\",\"\",\"\",\"2-1\",\"5742\",\"40\",\"0\",\"Training\",\"Stims/Figures/87-J-10-4.bmp\",\"ta:ka:ta\",\"Down\",\"38\",\"8\",\"3\",\"9\",\"P\",\"J\",\"115\"
\"\",\"\",\"approach-retreat\",\"119\",\"1018640\",\"0.0-119.0\",\"\",\"\",\"2-1\",\"6075\",\"37\",\"1\",\"Training\",\"Stims/Figures/139-C-20-2.bmp\",\"fafava\",\"Left\",\"37\",\"8\",\"4\",\"9\",\"C1\",\"J\",\"116\"
\"\",\"\",\"approach-retreat\",\"120\",\"1025122\",\"0.0-120.0\",\"\",\"\",\"2-1\",\"4975\",\"40\",\"0\",\"Training\",\"Stims/Figures/111-C-30-3.bmp\",\"pa:ka:ka\",\"Up\",\"38\",\"8\",\"5\",\"9\",\"P\",\"J\",\"117\"
\"\",\"\",\"approach-retreat\",\"121\",\"1033302\",\"0.0-121.0\",\"\",\"\",\"2-1\",\"6671\",\"39\",\"1\",\"Training\",\"Stims/Figures/144-C-30-3.bmp\",\"fasha:sha\",\"Right\",\"39\",\"8\",\"6\",\"9\",\"C1\",\"J\",\"118\"
\"\",\"\",\"approach-retreat\",\"122\",\"1053475\",\"0.0-122.0\",\"\",\"\",\"2-1\",\"18666\",\"37\",\"1\",\"Training\",\"Stims/Figures/102-J-10-4.bmp\",\"nalala\",\"Right\",\"37\",\"8\",\"7\",\"9\",\"S\",\"J\",\"119\"
\"\",\"\",\"approach-retreat\",\"123\",\"1061966\",\"0.0-123.0\",\"\",\"\",\"2-1\",\"6983\",\"39\",\"1\",\"Training\",\"Stims/Figures/71-J-0-1.bmp\",\"vafa:sha\",\"Left\",\"39\",\"8\",\"8\",\"9\",\"C1\",\"J\",\"120\"
\"\",\"\",\"approach-retreat\",\"124\",\"1067710\",\"0.0-124.0\",\"\",\"\",\"2-1\",\"4237\",\"38\",\"1\",\"Training\",\"Stims/Figures/93-J-0-1.bmp\",\"zahaha\",\"Down\",\"38\",\"8\",\"9\",\"9\",\"C2\",\"J\",\"121\"
\"\",\"\",\"approach-retreat\",\"125\",\"1073747\",\"0.0-125.0\",\"\",\"\",\"2-1\",\"4531\",\"40\",\"0\",\"Training\",\"Stims/Figures/144-J-10-3.bmp\",\"za:haha\",\"Down\",\"38\",\"8\",\"10\",\"9\",\"C2\",\"J\",\"122\"
\"\",\"\",\"approach-retreat\",\"126\",\"1080923\",\"0.0-126.0\",\"\",\"\",\"2-1\",\"5669\",\"38\",\"1\",\"Training\",\"Stims/Figures/93-C-30-1.bmp\",\"pa:ka:ta\",\"Up\",\"38\",\"8\",\"11\",\"9\",\"P\",\"J\",\"123\"
\"\",\"\",\"approach-retreat\",\"127\",\"1086680\",\"0.0-127.0\",\"\",\"\",\"2-1\",\"4248\",\"38\",\"1\",\"Training\",\"Stims/Figures/71-C-30-1.bmp\",\"pakata\",\"Up\",\"38\",\"8\",\"12\",\"9\",\"P\",\"J\",\"124\"
\"\",\"\",\"approach-retreat\",\"128\",\"1094258\",\"0.0-128.0\",\"\",\"\",\"2-1\",\"6070\",\"40\",\"0\",\"Training\",\"Stims/Figures/102-C-20-4.bmp\",\"fa:sha:va\",\"Up\",\"38\",\"8\",\"13\",\"9\",\"C1\",\"J\",\"125\"
\"\",\"\",\"approach-retreat\",\"129\",\"1100174\",\"0.0-129.0\",\"\",\"\",\"2-1\",\"4408\",\"39\",\"1\",\"Training\",\"Stims/Figures/139-J-0-2.bmp\",\"va:fa:sha\",\"Left\",\"39\",\"8\",\"14\",\"9\",\"C1\",\"J\",\"126\"
\"\",\"\",\"approach-retreat\",\"130\",\"1106507\",\"0.0-130.0\",\"\",\"\",\"2-1\",\"4826\",\"38\",\"1\",\"Training\",\"Stims/Figures/118-J-0-2.bmp\",\"zasaza\",\"Down\",\"38\",\"8\",\"15\",\"9\",\"C2\",\"J\",\"127\"
\"\",\"\",\"approach-retreat\",\"131\",\"1113612\",\"0.0-131.0\",\"\",\"\",\"2-1\",\"5596\",\"39\",\"0\",\"Training\",\"Stims/Figures/87-C-20-4.bmp\",\"vashava\",\"Left\",\"37\",\"8\",\"16\",\"9\",\"C1\",\"J\",\"128\"
\"\",\"\",\"approach-retreat\",\"132\",\"1119531\",\"0.0-132.0\",\"\",\"\",\"2-1\",\"4414\",\"40\",\"1\",\"Training\",\"Stims/Figures/139-J-0-2.bmp\",\"va:fa:sha\",\"Up\",\"40\",\"9\",\"1\",\"9\",\"C1\",\"J\",\"129\"
\"\",\"\",\"approach-retreat\",\"133\",\"1126137\",\"0.0-133.0\",\"\",\"\",\"2-1\",\"5098\",\"37\",\"1\",\"Training\",\"Stims/Figures/87-C-20-4.bmp\",\"vashava\",\"Left\",\"37\",\"9\",\"2\",\"9\",\"C1\",\"J\",\"130\"
\"\",\"\",\"approach-retreat\",\"134\",\"1133324\",\"0.0-134.0\",\"\",\"\",\"2-1\",\"5681\",\"38\",\"1\",\"Training\",\"Stims/Figures/102-C-20-4.bmp\",\"fa:sha:va\",\"Up\",\"38\",\"9\",\"3\",\"9\",\"C1\",\"J\",\"131\"
\"\",\"\",\"approach-retreat\",\"135\",\"1141414\",\"0.0-135.0\",\"\",\"\",\"2-1\",\"6581\",\"40\",\"1\",\"Training\",\"Stims/Figures/111-C-30-3.bmp\",\"pa:ka:ka\",\"Down\",\"40\",\"9\",\"4\",\"9\",\"P\",\"J\",\"132\"
\"\",\"\",\"approach-retreat\",\"136\",\"1148589\",\"0.0-136.0\",\"\",\"\",\"2-1\",\"5668\",\"37\",\"0\",\"Training\",\"Stims/Figures/144-C-30-3.bmp\",\"fasha:sha\",\"Right\",\"39\",\"9\",\"5\",\"9\",\"C1\",\"J\",\"133\"
\"\",\"\",\"approach-retreat\",\"137\",\"1156092\",\"0.0-137.0\",\"\",\"\",\"2-1\",\"5995\",\"38\",\"1\",\"Training\",\"Stims/Figures/118-J-0-2.bmp\",\"zasaza\",\"Down\",\"38\",\"9\",\"6\",\"9\",\"C2\",\"J\",\"134\"
\"\",\"\",\"approach-retreat\",\"138\",\"1166694\",\"0.0-138.0\",\"\",\"\",\"2-1\",\"9093\",\"40\",\"0\",\"Training\",\"Stims/Figures/111-J-10-3.bmp\",\"na:la:na\",\"Down\",\"38\",\"9\",\"7\",\"9\",\"S\",\"J\",\"135\"
\"\",\"\",\"approach-retreat\",\"139\",\"1172883\",\"0.0-139.0\",\"\",\"\",\"2-1\",\"4680\",\"40\",\"1\",\"Training\",\"Stims/Figures/144-J-10-3.bmp\",\"za:haha\",\"Up\",\"40\",\"9\",\"8\",\"9\",\"C2\",\"J\",\"136\"
\"\",\"\",\"approach-retreat\",\"140\",\"1179733\",\"0.0-140.0\",\"\",\"\",\"2-1\",\"5343\",\"38\",\"1\",\"Training\",\"Stims/Figures/71-J-0-1.bmp\",\"vafa:sha\",\"Down\",\"38\",\"9\",\"9\",\"9\",\"C1\",\"J\",\"137\"
\"\",\"\",\"approach-retreat\",\"141\",\"1188108\",\"0.0-141.0\",\"\",\"\",\"2-1\",\"6868\",\"39\",\"1\",\"Training\",\"Stims/Figures/102-J-10-4.bmp\",\"nalala\",\"Left\",\"39\",\"9\",\"10\",\"9\",\"S\",\"J\",\"138\"
\"\",\"\",\"approach-retreat\",\"142\",\"1197108\",\"0.0-142.0\",\"\",\"\",\"2-1\",\"7491\",\"39\",\"0\",\"Training\",\"Stims/Figures/93-C-30-1.bmp\",\"pa:ka:ta\",\"Left\",\"37\",\"9\",\"11\",\"9\",\"P\",\"J\",\"139\"
\"\",\"\",\"approach-retreat\",\"143\",\"1203642\",\"0.0-143.0\",\"\",\"\",\"2-1\",\"5026\",\"37\",\"1\",\"Training\",\"Stims/Figures/93-J-0-1.bmp\",\"zahaha\",\"Right\",\"37\",\"9\",\"12\",\"9\",\"C2\",\"J\",\"140\"
\"\",\"\",\"approach-retreat\",\"144\",\"1211669\",\"0.0-144.0\",\"\",\"\",\"2-1\",\"6521\",\"39\",\"1\",\"Training\",\"Stims/Figures/118-C-20-2.bmp\",\"zaha:za\",\"Right\",\"39\",\"9\",\"13\",\"9\",\"C2\",\"J\",\"141\"
\"\",\"\",\"approach-retreat\",\"145\",\"1217514\",\"0.0-145.0\",\"\",\"\",\"2-1\",\"4339\",\"39\",\"1\",\"Training\",\"Stims/Figures/87-J-10-4.bmp\",\"ta:ka:ta\",\"Left\",\"39\",\"9\",\"14\",\"9\",\"P\",\"J\",\"142\"
\"\",\"\",\"approach-retreat\",\"146\",\"1224693\",\"0.0-146.0\",\"\",\"\",\"2-1\",\"5672\",\"39\",\"1\",\"Training\",\"Stims/Figures/71-C-30-1.bmp\",\"pakata\",\"Right\",\"39\",\"9\",\"15\",\"9\",\"P\",\"J\",\"143\"
\"\",\"\",\"approach-retreat\",\"147\",\"1231597\",\"0.0-147.0\",\"\",\"\",\"2-1\",\"5395\",\"40\",\"0\",\"Training\",\"Stims/Figures/139-C-20-2.bmp\",\"fafava\",\"Up\",\"38\",\"9\",\"16\",\"9\",\"C1\",\"J\",\"144\"
\"14219\",\"\",\"instructions\",\"148\",\"1245816\",\"0.0-148.0\",\"[{\"\"page_index\"\":0,\"\"viewing_time\"\":14218}]\",\"\",\"\",\"\",\"\",\"\",\"\",\"\",\"\",\"\",\"\",\"\",\"\",\"\",\"\",\"\",\"\"
\"\",\"\",\"approach-retreat\",\"149\",\"1253723\",\"0.0-149.0\",\"\",\"\",\"2-1\",\"6401\",\"38\",\"1\",\"Testing\",\"Stims/Figures/94-C-20-2.bmp\",\"mama:la\",\"Up\",\"38\",\"1\",\"1\",\"9\",\"S\",\"J\",\"1\"
\"\",\"\",\"approach-retreat\",\"150\",\"1260078\",\"0.0-150.0\",\"\",\"\",\"2-1\",\"4848\",\"38\",\"1\",\"Testing\",\"Stims/Figures/94-J-0-2.bmp\",\"sa:ha:ha\",\"Down\",\"38\",\"1\",\"2\",\"9\",\"C2\",\"J\",\"2\"
\"\",\"\",\"approach-retreat\",\"151\",\"1267167\",\"0.0-151.0\",\"\",\"\",\"2-1\",\"5582\",\"37\",\"0\",\"Testing\",\"Stims/Figures/102-C-20-4.bmp\",\"fa:sha:va\",\"Right\",\"39\",\"1\",\"3\",\"9\",\"C1\",\"J\",\"3\"
\"\",\"\",\"approach-retreat\",\"152\",\"1272937\",\"0.0-152.0\",\"\",\"\",\"2-1\",\"4263\",\"39\",\"1\",\"Testing\",\"Stims/Figures/118-J-0-2.bmp\",\"zasaza\",\"Left\",\"39\",\"1\",\"4\",\"9\",\"C2\",\"J\",\"4\"
\"\",\"\",\"approach-retreat\",\"153\",\"1280068\",\"0.0-153.0\",\"\",\"\",\"2-1\",\"5624\",\"37\",\"1\",\"Testing\",\"Stims/Figures/111-J-10-3.bmp\",\"na:la:na\",\"Right\",\"37\",\"1\",\"5\",\"9\",\"S\",\"J\",\"5\"
\"\",\"\",\"approach-retreat\",\"154\",\"1287879\",\"0.0-154.0\",\"\",\"\",\"2-1\",\"6306\",\"37\",\"1\",\"Testing\",\"Stims/Figures/87-C-20-4.bmp\",\"vashava\",\"Left\",\"37\",\"1\",\"6\",\"9\",\"C1\",\"J\",\"6\"
\"\",\"\",\"approach-retreat\",\"155\",\"1293962\",\"0.0-155.0\",\"\",\"\",\"2-1\",\"4578\",\"39\",\"0\",\"Testing\",\"Stims/Figures/93-C-30-1.bmp\",\"pa:ka:ta\",\"Left\",\"37\",\"1\",\"7\",\"9\",\"P\",\"J\",\"7\"
\"\",\"\",\"approach-retreat\",\"156\",\"1302259\",\"0.0-156.0\",\"\",\"\",\"2-1\",\"6792\",\"38\",\"0\",\"Testing\",\"Stims/Figures/118-C-20-2.bmp\",\"zaha:za\",\"Down\",\"40\",\"1\",\"8\",\"9\",\"C2\",\"J\",\"8\"
\"\",\"\",\"approach-retreat\",\"157\",\"1308260\",\"0.0-157.0\",\"\",\"\",\"2-1\",\"4494\",\"38\",\"0\",\"Testing\",\"Stims/Figures/144-J-10-3.bmp\",\"za:haha\",\"Up\",\"40\",\"1\",\"9\",\"9\",\"C2\",\"J\",\"9\"
\"\",\"\",\"approach-retreat\",\"158\",\"1317620\",\"0.0-158.0\",\"\",\"\",\"2-1\",\"7853\",\"38\",\"1\",\"Testing\",\"Stims/Figures/128-C-30-3.bmp\",\"va:shasha\",\"Up\",\"38\",\"1\",\"10\",\"9\",\"C1\",\"J\",\"10\"
\"\",\"\",\"approach-retreat\",\"159\",\"1323517\",\"0.0-159.0\",\"\",\"\",\"2-1\",\"4388\",\"39\",\"1\",\"Testing\",\"Stims/Figures/71-J-0-1.bmp\",\"vafa:sha\",\"Left\",\"39\",\"1\",\"11\",\"9\",\"C1\",\"J\",\"11\"
\"\",\"\",\"approach-retreat\",\"160\",\"1331198\",\"0.0-160.0\",\"\",\"\",\"2-1\",\"6173\",\"40\",\"0\",\"Testing\",\"Stims/Figures/111-C-30-3.bmp\",\"pa:ka:ka\",\"Up\",\"38\",\"1\",\"12\",\"9\",\"P\",\"J\",\"12\"
\"\",\"\",\"approach-retreat\",\"161\",\"1337054\",\"0.0-161.0\",\"\",\"\",\"2-1\",\"4350\",\"37\",\"1\",\"Testing\",\"Stims/Figures/57-C-30-1.bmp\",\"papata\",\"Left\",\"37\",\"1\",\"13\",\"9\",\"P\",\"J\",\"13\"
\"\",\"\",\"approach-retreat\",\"162\",\"1344750\",\"0.0-162.0\",\"\",\"\",\"2-1\",\"6190\",\"37\",\"0\",\"Testing\",\"Stims/Figures/57-J-0-1.bmp\",\"fasha:va\",\"Left\",\"39\",\"1\",\"14\",\"9\",\"C1\",\"J\",\"14\"
\"\",\"\",\"approach-retreat\",\"163\",\"1350927\",\"0.0-163.0\",\"\",\"\",\"2-1\",\"4671\",\"40\",\"0\",\"Testing\",\"Stims/Figures/102-J-10-4.bmp\",\"nalala\",\"Down\",\"38\",\"1\",\"15\",\"9\",\"S\",\"J\",\"15\"
\"\",\"\",\"approach-retreat\",\"164\",\"1359223\",\"0.0-164.0\",\"\",\"\",\"2-1\",\"6789\",\"37\",\"1\",\"Testing\",\"Stims/Figures/93-J-0-1.bmp\",\"zahaha\",\"Right\",\"37\",\"1\",\"16\",\"9\",\"C2\",\"J\",\"16\"
\"\",\"\",\"approach-retreat\",\"165\",\"1374575\",\"0.0-165.0\",\"\",\"\",\"2-1\",\"13842\",\"40\",\"1\",\"Testing\",\"Stims/Figures/71-C-30-1.bmp\",\"pakata\",\"Down\",\"40\",\"1\",\"17\",\"9\",\"P\",\"J\",\"17\"
\"\",\"\",\"approach-retreat\",\"166\",\"1388803\",\"0.0-166.0\",\"\",\"\",\"2-1\",\"12721\",\"39\",\"0\",\"Testing\",\"Stims/Figures/128-J-10-3.bmp\",\"mama:na\",\"Right\",\"37\",\"1\",\"18\",\"9\",\"S\",\"J\",\"18\"
\"\",\"\",\"approach-retreat\",\"167\",\"1394863\",\"0.0-167.0\",\"\",\"\",\"2-1\",\"4549\",\"40\",\"1\",\"Testing\",\"Stims/Figures/144-C-30-3.bmp\",\"fasha:sha\",\"Down\",\"40\",\"1\",\"19\",\"9\",\"C1\",\"J\",\"19\"
\"\",\"\",\"approach-retreat\",\"168\",\"1403500\",\"0.0-168.0\",\"\",\"\",\"2-1\",\"7130\",\"38\",\"1\",\"Testing\",\"Stims/Figures/7-C-20-4.bmp\",\"va:sha:sha\",\"Up\",\"38\",\"1\",\"20\",\"9\",\"C1\",\"J\",\"20\"
\"\",\"\",\"approach-retreat\",\"169\",\"1414406\",\"0.0-169.0\",\"\",\"\",\"2-1\",\"9400\",\"40\",\"0\",\"Testing\",\"Stims/Figures/7-J-10-4.bmp\",\"ma:la:la\",\"Down\",\"38\",\"1\",\"21\",\"9\",\"S\",\"J\",\"21\"
\"\",\"\",\"approach-retreat\",\"170\",\"1424520\",\"0.0-170.0\",\"\",\"\",\"2-1\",\"8607\",\"37\",\"0\",\"Testing\",\"Stims/Figures/139-C-20-2.bmp\",\"fafava\",\"Right\",\"39\",\"1\",\"22\",\"9\",\"C1\",\"J\",\"22\"
\"\",\"\",\"approach-retreat\",\"171\",\"1430476\",\"0.0-171.0\",\"\",\"\",\"2-1\",\"4448\",\"39\",\"0\",\"Testing\",\"Stims/Figures/87-J-10-4.bmp\",\"ta:ka:ta\",\"Right\",\"37\",\"1\",\"23\",\"9\",\"P\",\"J\",\"23\"
\"\",\"\",\"approach-retreat\",\"172\",\"1436871\",\"0.0-172.0\",\"\",\"\",\"2-1\",\"4889\",\"40\",\"1\",\"Testing\",\"Stims/Figures/139-J-0-2.bmp\",\"va:fa:sha\",\"Up\",\"40\",\"1\",\"24\",\"9\",\"C1\",\"J\",\"24\"
\"\",\"\",\"approach-retreat\",\"173\",\"1447736\",\"0.0-173.0\",\"\",\"\",\"2-1\",\"9358\",\"40\",\"0\",\"Testing\",\"Stims/Figures/102-C-20-4.bmp\",\"fa:sha:va\",\"Up\",\"38\",\"2\",\"1\",\"9\",\"C1\",\"J\",\"25\"
\"\",\"\",\"approach-retreat\",\"174\",\"1453509\",\"0.0-174.0\",\"\",\"\",\"2-1\",\"4266\",\"38\",\"0\",\"Testing\",\"Stims/Figures/139-C-20-2.bmp\",\"fafava\",\"Down\",\"40\",\"2\",\"2\",\"9\",\"C1\",\"J\",\"26\"
\"\",\"\",\"approach-retreat\",\"175\",\"1459385\",\"0.0-175.0\",\"\",\"\",\"2-1\",\"4371\",\"40\",\"1\",\"Testing\",\"Stims/Figures/111-C-30-3.bmp\",\"pa:ka:ka\",\"Down\",\"40\",\"2\",\"3\",\"9\",\"P\",\"J\",\"27\"
\"\",\"\",\"approach-retreat\",\"176\",\"1465443\",\"0.0-176.0\",\"\",\"\",\"2-1\",\"4552\",\"39\",\"0\",\"Testing\",\"Stims/Figures/128-J-10-3.bmp\",\"mama:na\",\"Right\",\"37\",\"2\",\"4\",\"9\",\"S\",\"J\",\"28\"
\"\",\"\",\"approach-retreat\",\"177\",\"1471356\",\"0.0-177.0\",\"\",\"\",\"2-1\",\"4406\",\"40\",\"1\",\"Testing\",\"Stims/Figures/139-J-0-2.bmp\",\"va:fa:sha\",\"Up\",\"40\",\"2\",\"5\",\"9\",\"C1\",\"J\",\"29\"
\"\",\"\",\"approach-retreat\",\"178\",\"1477666\",\"0.0-178.0\",\"\",\"\",\"2-1\",\"4802\",\"39\",\"1\",\"Testing\",\"Stims/Figures/118-J-0-2.bmp\",\"zasaza\",\"Left\",\"39\",\"2\",\"6\",\"9\",\"C2\",\"J\",\"30\"
\"\",\"\",\"approach-retreat\",\"179\",\"1483368\",\"0.0-179.0\",\"\",\"\",\"2-1\",\"4196\",\"39\",\"1\",\"Testing\",\"Stims/Figures/94-J-0-2.bmp\",\"sa:ha:ha\",\"Left\",\"39\",\"2\",\"7\",\"9\",\"C2\",\"J\",\"31\"
\"\",\"\",\"approach-retreat\",\"180\",\"1489255\",\"0.0-180.0\",\"\",\"\",\"2-1\",\"4382\",\"40\",\"0\",\"Testing\",\"Stims/Figures/144-J-10-3.bmp\",\"za:haha\",\"Down\",\"38\",\"2\",\"8\",\"9\",\"C2\",\"J\",\"32\"
\"\",\"\",\"approach-retreat\",\"181\",\"1496337\",\"0.0-181.0\",\"\",\"\",\"2-1\",\"5575\",\"39\",\"1\",\"Testing\",\"Stims/Figures/71-J-0-1.bmp\",\"vafa:sha\",\"Left\",\"39\",\"2\",\"9\",\"9\",\"C1\",\"J\",\"33\"
\"\",\"\",\"approach-retreat\",\"182\",\"1503963\",\"0.0-182.0\",\"\",\"\",\"2-1\",\"6121\",\"40\",\"1\",\"Testing\",\"Stims/Figures/94-C-20-2.bmp\",\"mama:la\",\"Down\",\"40\",\"2\",\"10\",\"9\",\"S\",\"J\",\"34\"
\"\",\"\",\"approach-retreat\",\"183\",\"1510540\",\"0.0-183.0\",\"\",\"\",\"2-1\",\"5070\",\"40\",\"1\",\"Testing\",\"Stims/Figures/144-C-30-3.bmp\",\"fasha:sha\",\"Down\",\"40\",\"2\",\"11\",\"9\",\"C1\",\"J\",\"35\"
\"\",\"\",\"approach-retreat\",\"184\",\"1518741\",\"0.0-184.0\",\"\",\"\",\"2-1\",\"6695\",\"39\",\"0\",\"Testing\",\"Stims/Figures/57-J-0-1.bmp\",\"fasha:va\",\"Right\",\"37\",\"2\",\"12\",\"9\",\"C1\",\"J\",\"36\"
\"\",\"\",\"approach-retreat\",\"185\",\"1525258\",\"0.0-185.0\",\"\",\"\",\"2-1\",\"5010\",\"40\",\"1\",\"Testing\",\"Stims/Figures/111-J-10-3.bmp\",\"na:la:na\",\"Up\",\"40\",\"2\",\"13\",\"9\",\"S\",\"J\",\"37\"
\"\",\"\",\"approach-retreat\",\"186\",\"1536064\",\"0.0-186.0\",\"\",\"\",\"2-1\",\"9300\",\"37\",\"1\",\"Testing\",\"Stims/Figures/7-J-10-4.bmp\",\"ma:la:la\",\"Right\",\"37\",\"2\",\"14\",\"9\",\"S\",\"J\",\"38\"
\"\",\"\",\"approach-retreat\",\"187\",\"1544747\",\"0.0-187.0\",\"\",\"\",\"2-1\",\"7176\",\"40\",\"1\",\"Testing\",\"Stims/Figures/102-J-10-4.bmp\",\"nalala\",\"Up\",\"40\",\"2\",\"15\",\"9\",\"S\",\"J\",\"39\"
\"\",\"\",\"approach-retreat\",\"188\",\"1550735\",\"0.0-188.0\",\"\",\"\",\"2-1\",\"4481\",\"40\",\"1\",\"Testing\",\"Stims/Figures/87-C-20-4.bmp\",\"vashava\",\"Down\",\"40\",\"2\",\"16\",\"9\",\"C1\",\"J\",\"40\"
\"\",\"\",\"approach-retreat\",\"189\",\"1559062\",\"0.0-189.0\",\"\",\"\",\"2-1\",\"6821\",\"37\",\"1\",\"Testing\",\"Stims/Figures/71-C-30-1.bmp\",\"pakata\",\"Left\",\"37\",\"2\",\"17\",\"9\",\"P\",\"J\",\"41\"
\"\",\"\",\"approach-retreat\",\"190\",\"1566886\",\"0.0-190.0\",\"\",\"\",\"2-1\",\"6317\",\"38\",\"0\",\"Testing\",\"Stims/Figures/93-J-0-1.bmp\",\"zahaha\",\"Up\",\"40\",\"2\",\"18\",\"9\",\"C2\",\"J\",\"42\"
\"\",\"\",\"approach-retreat\",\"191\",\"1573516\",\"0.0-191.0\",\"\",\"\",\"2-1\",\"5124\",\"38\",\"1\",\"Testing\",\"Stims/Figures/118-C-20-2.bmp\",\"zaha:za\",\"Up\",\"38\",\"2\",\"19\",\"9\",\"C2\",\"J\",\"43\"
\"\",\"\",\"approach-retreat\",\"192\",\"1579588\",\"0.0-192.0\",\"\",\"\",\"2-1\",\"4567\",\"37\",\"1\",\"Testing\",\"Stims/Figures/93-C-30-1.bmp\",\"pa:ka:ta\",\"Left\",\"37\",\"2\",\"20\",\"9\",\"P\",\"J\",\"44\"
\"\",\"\",\"approach-retreat\",\"193\",\"1586734\",\"0.0-193.0\",\"\",\"\",\"2-1\",\"5639\",\"37\",\"1\",\"Testing\",\"Stims/Figures/7-C-20-4.bmp\",\"va:sha:sha\",\"Left\",\"37\",\"2\",\"21\",\"9\",\"C1\",\"J\",\"45\"
\"\",\"\",\"approach-retreat\",\"194\",\"1593178\",\"0.0-194.0\",\"\",\"\",\"2-1\",\"4938\",\"39\",\"1\",\"Testing\",\"Stims/Figures/128-C-30-3.bmp\",\"va:shasha\",\"Right\",\"39\",\"2\",\"22\",\"9\",\"C1\",\"J\",\"46\"
\"\",\"\",\"approach-retreat\",\"195\",\"1599195\",\"0.0-195.0\",\"\",\"\",\"2-1\",\"4512\",\"39\",\"0\",\"Testing\",\"Stims/Figures/87-J-10-4.bmp\",\"ta:ka:ta\",\"Right\",\"37\",\"2\",\"23\",\"9\",\"P\",\"J\",\"47\"
\"\",\"\",\"approach-retreat\",\"196\",\"1606690\",\"0.0-196.0\",\"\",\"\",\"2-1\",\"5989\",\"39\",\"1\",\"Testing\",\"Stims/Figures/57-C-30-1.bmp\",\"papata\",\"Right\",\"39\",\"2\",\"24\",\"9\",\"P\",\"J\",\"48\"
\"\",\"\",\"approach-retreat\",\"197\",\"1612826\",\"0.0-197.0\",\"\",\"\",\"2-1\",\"4632\",\"37\",\"1\",\"Testing\",\"Stims/Figures/94-C-20-2.bmp\",\"mama:la\",\"Left\",\"37\",\"3\",\"1\",\"9\",\"S\",\"J\",\"49\"
\"\",\"\",\"approach-retreat\",\"198\",\"1621055\",\"0.0-198.0\",\"\",\"\",\"2-1\",\"6724\",\"40\",\"1\",\"Testing\",\"Stims/Figures/93-C-30-1.bmp\",\"pa:ka:ta\",\"Down\",\"40\",\"3\",\"2\",\"9\",\"P\",\"J\",\"50\"
\"\",\"\",\"approach-retreat\",\"199\",\"1628522\",\"0.0-199.0\",\"\",\"\",\"2-1\",\"5960\",\"38\",\"1\",\"Testing\",\"Stims/Figures/57-J-0-1.bmp\",\"fasha:va\",\"Down\",\"38\",\"3\",\"3\",\"9\",\"C1\",\"J\",\"51\"
\"\",\"\",\"approach-retreat\",\"200\",\"1634570\",\"0.0-200.0\",\"\",\"\",\"2-1\",\"4541\",\"38\",\"1\",\"Testing\",\"Stims/Figures/87-C-20-4.bmp\",\"vashava\",\"Up\",\"38\",\"3\",\"4\",\"9\",\"C1\",\"J\",\"52\"
\"\",\"\",\"approach-retreat\",\"201\",\"1643020\",\"0.0-201.0\",\"\",\"\",\"2-1\",\"6943\",\"39\",\"1\",\"Testing\",\"Stims/Figures/93-J-0-1.bmp\",\"zahaha\",\"Left\",\"39\",\"3\",\"5\",\"9\",\"C2\",\"J\",\"53\"
\"\",\"\",\"approach-retreat\",\"202\",\"1651620\",\"0.0-202.0\",\"\",\"\",\"2-1\",\"7094\",\"38\",\"1\",\"Testing\",\"Stims/Figures/102-C-20-4.bmp\",\"fa:sha:va\",\"Up\",\"38\",\"3\",\"6\",\"9\",\"C1\",\"J\",\"54\"
\"\",\"\",\"approach-retreat\",\"203\",\"1657821\",\"0.0-203.0\",\"\",\"\",\"2-1\",\"4695\",\"38\",\"1\",\"Testing\",\"Stims/Figures/57-C-30-1.bmp\",\"papata\",\"Up\",\"38\",\"3\",\"7\",\"9\",\"P\",\"J\",\"55\"
\"\",\"\",\"approach-retreat\",\"204\",\"1664770\",\"0.0-204.0\",\"\",\"\",\"2-1\",\"5443\",\"39\",\"1\",\"Testing\",\"Stims/Figures/144-C-30-3.bmp\",\"fasha:sha\",\"Right\",\"39\",\"3\",\"8\",\"9\",\"C1\",\"J\",\"56\"
\"\",\"\",\"approach-retreat\",\"205\",\"1673937\",\"0.0-205.0\",\"\",\"\",\"2-1\",\"7660\",\"39\",\"1\",\"Testing\",\"Stims/Figures/118-C-20-2.bmp\",\"zaha:za\",\"Right\",\"39\",\"3\",\"9\",\"9\",\"C2\",\"J\",\"57\"
\"\",\"\",\"approach-retreat\",\"206\",\"1679698\",\"0.0-206.0\",\"\",\"\",\"2-1\",\"4256\",\"37\",\"1\",\"Testing\",\"Stims/Figures/71-C-30-1.bmp\",\"pakata\",\"Left\",\"37\",\"3\",\"10\",\"9\",\"P\",\"J\",\"58\"
\"\",\"\",\"approach-retreat\",\"207\",\"1689020\",\"0.0-207.0\",\"\",\"\",\"2-1\",\"7815\",\"37\",\"1\",\"Testing\",\"Stims/Figures/102-J-10-4.bmp\",\"nalala\",\"Right\",\"37\",\"3\",\"11\",\"9\",\"S\",\"J\",\"59\"
\"\",\"\",\"approach-retreat\",\"208\",\"1695102\",\"0.0-208.0\",\"\",\"\",\"2-1\",\"4577\",\"40\",\"0\",\"Testing\",\"Stims/Figures/128-J-10-3.bmp\",\"mama:na\",\"Down\",\"38\",\"3\",\"12\",\"9\",\"S\",\"J\",\"60\"
\"\",\"\",\"approach-retreat\",\"209\",\"1701260\",\"0.0-209.0\",\"\",\"\",\"2-1\",\"4651\",\"38\",\"1\",\"Testing\",\"Stims/Figures/139-C-20-2.bmp\",\"fafava\",\"Up\",\"38\",\"3\",\"13\",\"9\",\"C1\",\"J\",\"61\"
\"\",\"\",\"approach-retreat\",\"210\",\"1708264\",\"0.0-210.0\",\"\",\"\",\"2-1\",\"5498\",\"40\",\"1\",\"Testing\",\"Stims/Figures/7-C-20-4.bmp\",\"va:sha:sha\",\"Down\",\"40\",\"3\",\"14\",\"9\",\"C1\",\"J\",\"62\"
\"\",\"\",\"approach-retreat\",\"211\",\"1714566\",\"0.0-211.0\",\"\",\"\",\"2-1\",\"4796\",\"40\",\"1\",\"Testing\",\"Stims/Figures/118-J-0-2.bmp\",\"zasaza\",\"Up\",\"40\",\"3\",\"15\",\"9\",\"C2\",\"J\",\"63\"
\"\",\"\",\"approach-retreat\",\"212\",\"1720549\",\"0.0-212.0\",\"\",\"\",\"2-1\",\"4475\",\"39\",\"0\",\"Testing\",\"Stims/Figures/111-J-10-3.bmp\",\"na:la:na\",\"Right\",\"37\",\"3\",\"16\",\"9\",\"S\",\"J\",\"64\"
\"\",\"\",\"approach-retreat\",\"213\",\"1726262\",\"0.0-213.0\",\"\",\"\",\"2-1\",\"4209\",\"38\",\"1\",\"Testing\",\"Stims/Figures/71-J-0-1.bmp\",\"vafa:sha\",\"Down\",\"38\",\"3\",\"17\",\"9\",\"C1\",\"J\",\"65\"
\"\",\"\",\"approach-retreat\",\"214\",\"1732791\",\"0.0-214.0\",\"\",\"\",\"2-1\",\"5022\",\"37\",\"0\",\"Testing\",\"Stims/Figures/7-J-10-4.bmp\",\"ma:la:la\",\"Left\",\"39\",\"3\",\"18\",\"9\",\"S\",\"J\",\"66\"
\"\",\"\",\"approach-retreat\",\"215\",\"1738644\",\"0.0-215.0\",\"\",\"\",\"2-1\",\"4345\",\"40\",\"0\",\"Testing\",\"Stims/Figures/94-J-0-2.bmp\",\"sa:ha:ha\",\"Down\",\"38\",\"3\",\"19\",\"9\",\"C2\",\"J\",\"67\"
\"\",\"\",\"approach-retreat\",\"216\",\"1744430\",\"0.0-216.0\",\"\",\"\",\"2-1\",\"4279\",\"37\",\"1\",\"Testing\",\"Stims/Figures/128-C-30-3.bmp\",\"va:shasha\",\"Left\",\"37\",\"3\",\"20\",\"9\",\"C1\",\"J\",\"68\"
\"\",\"\",\"approach-retreat\",\"217\",\"1751035\",\"0.0-217.0\",\"\",\"\",\"2-1\",\"5098\",\"39\",\"0\",\"Testing\",\"Stims/Figures/144-J-10-3.bmp\",\"za:haha\",\"Right\",\"37\",\"3\",\"21\",\"9\",\"C2\",\"J\",\"69\"
\"\",\"\",\"approach-retreat\",\"218\",\"1757131\",\"0.0-218.0\",\"\",\"\",\"2-1\",\"4591\",\"37\",\"0\",\"Testing\",\"Stims/Figures/87-J-10-4.bmp\",\"ta:ka:ta\",\"Left\",\"39\",\"3\",\"22\",\"9\",\"P\",\"J\",\"70\"
\"\",\"\",\"approach-retreat\",\"219\",\"1764708\",\"0.0-219.0\",\"\",\"\",\"2-1\",\"6070\",\"40\",\"1\",\"Testing\",\"Stims/Figures/139-J-0-2.bmp\",\"va:fa:sha\",\"Up\",\"40\",\"3\",\"23\",\"9\",\"C1\",\"J\",\"71\"
\"\",\"\",\"approach-retreat\",\"220\",\"1772809\",\"0.0-220.0\",\"\",\"\",\"2-1\",\"6595\",\"37\",\"0\",\"Testing\",\"Stims/Figures/111-C-30-3.bmp\",\"pa:ka:ka\",\"Right\",\"39\",\"3\",\"24\",\"9\",\"P\",\"J\",\"72\"
\"\",\"\",\"approach-retreat\",\"221\",\"1782526\",\"0.0-221.0\",\"\",\"\",\"2-1\",\"8209\",\"38\",\"1\",\"Testing\",\"Stims/Figures/118-C-20-2.bmp\",\"zaha:za\",\"Up\",\"38\",\"4\",\"1\",\"9\",\"C2\",\"J\",\"73\"
\"\",\"\",\"approach-retreat\",\"222\",\"1788589\",\"0.0-222.0\",\"\",\"\",\"2-1\",\"4556\",\"39\",\"1\",\"Testing\",\"Stims/Figures/118-J-0-2.bmp\",\"zasaza\",\"Left\",\"39\",\"4\",\"2\",\"9\",\"C2\",\"J\",\"74\"
\"\",\"\",\"approach-retreat\",\"223\",\"1801662\",\"0.0-223.0\",\"\",\"\",\"2-1\",\"11567\",\"37\",\"1\",\"Testing\",\"Stims/Figures/128-J-10-3.bmp\",\"mama:na\",\"Right\",\"37\",\"4\",\"3\",\"9\",\"S\",\"J\",\"75\"
\"\",\"\",\"approach-retreat\",\"224\",\"1809553\",\"0.0-224.0\",\"\",\"\",\"2-1\",\"6384\",\"40\",\"0\",\"Testing\",\"Stims/Figures/7-J-10-4.bmp\",\"ma:la:la\",\"Down\",\"38\",\"4\",\"4\",\"9\",\"S\",\"J\",\"76\"
\"\",\"\",\"approach-retreat\",\"225\",\"1815710\",\"0.0-225.0\",\"\",\"\",\"2-1\",\"4650\",\"40\",\"1\",\"Testing\",\"Stims/Figures/7-C-20-4.bmp\",\"va:sha:sha\",\"Down\",\"40\",\"4\",\"5\",\"9\",\"C1\",\"J\",\"77\"
\"\",\"\",\"approach-retreat\",\"226\",\"1822564\",\"0.0-226.0\",\"\",\"\",\"2-1\",\"5347\",\"38\",\"1\",\"Testing\",\"Stims/Figures/144-C-30-3.bmp\",\"fasha:sha\",\"Up\",\"38\",\"4\",\"6\",\"9\",\"C1\",\"J\",\"78\"
\"\",\"\",\"approach-retreat\",\"227\",\"1829546\",\"0.0-227.0\",\"\",\"\",\"2-1\",\"5476\",\"39\",\"0\",\"Testing\",\"Stims/Figures/94-J-0-2.bmp\",\"sa:ha:ha\",\"Right\",\"37\",\"4\",\"7\",\"9\",\"C2\",\"J\",\"79\"
\"\",\"\",\"approach-retreat\",\"228\",\"1835340\",\"0.0-228.0\",\"\",\"\",\"2-1\",\"4284\",\"39\",\"0\",\"Testing\",\"Stims/Figures/87-J-10-4.bmp\",\"ta:ka:ta\",\"Right\",\"37\",\"4\",\"8\",\"9\",\"P\",\"J\",\"80\"
\"\",\"\",\"approach-retreat\",\"229\",\"1844563\",\"0.0-229.0\",\"\",\"\",\"2-1\",\"7716\",\"37\",\"1\",\"Testing\",\"Stims/Figures/71-C-30-1.bmp\",\"pakata\",\"Left\",\"37\",\"4\",\"9\",\"9\",\"P\",\"J\",\"81\"
\"\",\"\",\"approach-retreat\",\"230\",\"1853314\",\"0.0-230.0\",\"\",\"\",\"2-1\",\"7245\",\"37\",\"1\",\"Testing\",\"Stims/Figures/71-J-0-1.bmp\",\"vafa:sha\",\"Right\",\"37\",\"4\",\"10\",\"9\",\"C1\",\"J\",\"82\"
\"\",\"\",\"approach-retreat\",\"231\",\"1860048\",\"0.0-231.0\",\"\",\"\",\"2-1\",\"5227\",\"39\",\"0\",\"Testing\",\"Stims/Figures/111-C-30-3.bmp\",\"pa:ka:ka\",\"Left\",\"37\",\"4\",\"11\",\"9\",\"P\",\"J\",\"83\"
\"\",\"\",\"approach-retreat\",\"232\",\"1866699\",\"0.0-232.0\",\"\",\"\",\"2-1\",\"5143\",\"37\",\"1\",\"Testing\",\"Stims/Figures/139-C-20-2.bmp\",\"fafava\",\"Left\",\"37\",\"4\",\"12\",\"9\",\"C1\",\"J\",\"84\"
\"\",\"\",\"approach-retreat\",\"233\",\"1872263\",\"0.0-233.0\",\"\",\"\",\"2-1\",\"4057\",\"39\",\"1\",\"Testing\",\"Stims/Figures/111-J-10-3.bmp\",\"na:la:na\",\"Left\",\"39\",\"4\",\"13\",\"9\",\"S\",\"J\",\"85\"
\"\",\"\",\"approach-retreat\",\"234\",\"1879526\",\"0.0-234.0\",\"\",\"\",\"2-1\",\"5757\",\"38\",\"0\",\"Testing\",\"Stims/Figures/144-J-10-3.bmp\",\"za:haha\",\"Up\",\"40\",\"4\",\"14\",\"9\",\"C2\",\"J\",\"86\"
\"\",\"\",\"approach-retreat\",\"235\",\"1885539\",\"0.0-235.0\",\"\",\"\",\"2-1\",\"4509\",\"38\",\"1\",\"Testing\",\"Stims/Figures/93-C-30-1.bmp\",\"pa:ka:ta\",\"Up\",\"38\",\"4\",\"15\",\"9\",\"P\",\"J\",\"87\"
\"\",\"\",\"approach-retreat\",\"236\",\"1892175\",\"0.0-236.0\",\"\",\"\",\"2-1\",\"5129\",\"40\",\"1\",\"Testing\",\"Stims/Figures/94-C-20-2.bmp\",\"mama:la\",\"Down\",\"40\",\"4\",\"16\",\"9\",\"S\",\"J\",\"88\"
\"\",\"\",\"approach-retreat\",\"237\",\"1898063\",\"0.0-237.0\",\"\",\"\",\"2-1\",\"4382\",\"40\",\"1\",\"Testing\",\"Stims/Figures/87-C-20-4.bmp\",\"vashava\",\"Down\",\"40\",\"4\",\"17\",\"9\",\"C1\",\"J\",\"89\"
\"\",\"\",\"approach-retreat\",\"238\",\"1904688\",\"0.0-238.0\",\"\",\"\",\"2-1\",\"5119\",\"38\",\"1\",\"Testing\",\"Stims/Figures/139-J-0-2.bmp\",\"va:fa:sha\",\"Down\",\"38\",\"4\",\"18\",\"9\",\"C1\",\"J\",\"90\"
\"\",\"\",\"approach-retreat\",\"239\",\"1912578\",\"0.0-239.0\",\"\",\"\",\"2-1\",\"6383\",\"38\",\"1\",\"Testing\",\"Stims/Figures/102-C-20-4.bmp\",\"fa:sha:va\",\"Up\",\"38\",\"4\",\"19\",\"9\",\"C1\",\"J\",\"91\"
\"\",\"\",\"approach-retreat\",\"240\",\"1921185\",\"0.0-240.0\",\"\",\"\",\"2-1\",\"7100\",\"38\",\"1\",\"Testing\",\"Stims/Figures/57-J-0-1.bmp\",\"fasha:va\",\"Down\",\"38\",\"4\",\"20\",\"9\",\"C1\",\"J\",\"92\"
\"\",\"\",\"approach-retreat\",\"241\",\"1929206\",\"0.0-241.0\",\"\",\"\",\"2-1\",\"6517\",\"39\",\"1\",\"Testing\",\"Stims/Figures/128-C-30-3.bmp\",\"va:shasha\",\"Right\",\"39\",\"4\",\"21\",\"9\",\"C1\",\"J\",\"93\"
\"\",\"\",\"approach-retreat\",\"242\",\"1936305\",\"0.0-242.0\",\"\",\"\",\"2-1\",\"5593\",\"37\",\"1\",\"Testing\",\"Stims/Figures/93-J-0-1.bmp\",\"zahaha\",\"Right\",\"37\",\"4\",\"22\",\"9\",\"C2\",\"J\",\"94\"
\"\",\"\",\"approach-retreat\",\"243\",\"1943376\",\"0.0-243.0\",\"\",\"\",\"2-1\",\"5564\",\"38\",\"0\",\"Testing\",\"Stims/Figures/102-J-10-4.bmp\",\"nalala\",\"Up\",\"40\",\"4\",\"23\",\"9\",\"S\",\"J\",\"95\"
\"\",\"\",\"approach-retreat\",\"244\",\"1955279\",\"0.0-244.0\",\"\",\"\",\"2-1\",\"10398\",\"37\",\"1\",\"Testing\",\"Stims/Figures/57-C-30-1.bmp\",\"papata\",\"Left\",\"37\",\"4\",\"24\",\"9\",\"P\",\"J\",\"96\"
\"30142\",\"\",\"survey-text\",\"245\",\"1985427\",\"0.0-245.0\",\"\",\"{\"\"Q0\"\":\"\"PS160007\"\"}\",\"\",\"\",\"\",\"\",\"\",\"\",\"\",\"\",\"\",\"\",\"\",\"\",\"\",\"\",\"\"
