"rt","key_press","trial_type","trial_index","time_elapsed","internal_node_id","view_history","responses","Id","Rt","ResKeyCode","ResCorr","TrialType2","Image","Label","Location","CorrectResponse","Block","BlockTrial","Condition","LabelType","Subcondition","trialNum"
"54153","32","text","0","54158","0.0-0.0-0.0","","","","","","","","","","","","","","","","",""
"5808","","instructions","1","59972","0.0-1.0","[{""page_index"":0,""viewing_time"":5807}]","","","","","","","","","","","","","","","",""
"182153","","survey-multi-choice","2","242166","0.0-2.0","","{""Q0"":""Ne"",""Q1"":""Da"",""Q2"":""Da"",""Q3"":""Da"",""Q4"":""Da"",""Q5"":""Da""}","","","","","","","","","","","","","","",""
"","","bio","3","259681","0.0-3.0","","{""age"":""19"",""gender"":""f"",""specify"":""""}","","","","","","","","","","","","","","",""
"","","approach-retreat","4","347188","0.0-4.0","","","2-1","85997","38","0","Training","Stims/Figures/44-C-30-3.bmp","fa:fava","Up","40","1","1","6B","C1","C","1"
"","","approach-retreat","5","356849","0.0-5.0","","","2-1","8149","38","1","Training","Stims/Figures/144-J-10-3.bmp","sa:haza","Up","38","1","2","6B","C2","C","2"
"","","approach-retreat","6","367990","0.0-6.0","","","2-1","9629","39","1","Training","Stims/Figures/118-C-20-2.bmp","fafasha","Left","39","1","3","6B","C1","C","3"
"","","approach-retreat","7","375540","0.0-7.0","","","2-1","6039","37","1","Training","Stims/Figures/19-C-20-4.bmp","fafa:sha","Right","37","1","4","6B","C1","C","4"
"","","approach-retreat","8","385677","0.0-8.0","","","2-1","8629","40","1","Training","Stims/Figures/94-C-20-2.bmp","vafasha","Up","40","1","5","6B","C1","C","5"
"","","approach-retreat","9","394358","0.0-9.0","","","2-1","7169","39","0","Training","Stims/Figures/19-J-10-4.bmp","sa:ha:ha","Left","37","1","6","6B","C2","C","6"
"","","approach-retreat","10","403769","0.0-10.0","","","2-1","7902","38","1","Training","Stims/Figures/144-C-30-3.bmp","fa:shasha","Down","38","1","7","6B","C1","C","7"
"","","approach-retreat","11","412372","0.0-11.0","","","2-1","7087","37","1","Training","Stims/Figures/44-J-10-3.bmp","sahaza","Left","37","1","8","6B","C2","C","8"
"","","approach-retreat","12","427581","0.0-12.0","","","2-1","13691","37","0","Training","Stims/Figures/57-J-0-1.bmp","sa:sa:ha","Right","39","1","9","6B","C2","C","9"
"","","approach-retreat","13","442235","0.0-13.0","","","2-1","13144","39","1","Training","Stims/Figures/57-C-30-1.bmp","fa:sha:va","Left","39","1","10","6B","C1","C","10"
"","","approach-retreat","14","450432","0.0-14.0","","","2-1","6685","37","1","Training","Stims/Figures/71-C-30-1.bmp","vafa:sha","Right","37","1","11","6B","C1","C","11"
"","","approach-retreat","15","457195","0.0-15.0","","","2-1","5246","40","0","Training","Stims/Figures/71-J-0-1.bmp","sasa:za","Up","38","1","12","6B","C2","C","12"
"","","approach-retreat","16","463456","0.0-16.0","","","2-1","4751","38","1","Training","Stims/Figures/102-C-20-4.bmp","va:fa:sha","Down","38","1","13","6B","C1","C","13"
"","","approach-retreat","17","470105","0.0-17.0","","","2-1","5135","38","0","Training","Stims/Figures/118-J-0-2.bmp","sa:sa:za","Down","40","1","14","6B","C2","C","14"
"","","approach-retreat","18","477167","0.0-18.0","","","2-1","5549","37","0","Training","Stims/Figures/94-J-0-2.bmp","sasaha","Right","39","1","15","6B","C2","C","15"
"","","approach-retreat","19","483732","0.0-19.0","","","2-1","5050","40","1","Training","Stims/Figures/102-J-10-4.bmp","za:ha:ha","Down","40","1","16","6B","C2","C","16"
"","","approach-retreat","20","490588","0.0-20.0","","","2-1","5350","39","0","Training","Stims/Figures/144-C-30-3.bmp","fa:shasha","Right","37","2","1","6B","C1","C","17"
"","","approach-retreat","21","499888","0.0-21.0","","","2-1","7793","37","1","Training","Stims/Figures/44-J-10-3.bmp","sahaza","Left","37","2","2","6B","C2","C","18"
"","","approach-retreat","22","558322","0.0-22.0","","","2-1","56926","37","1","Training","Stims/Figures/71-C-30-1.bmp","vafa:sha","Right","37","2","3","6B","C1","C","19"
"","","approach-retreat","23","569271","0.0-23.0","","","2-1","9436","39","0","Training","Stims/Figures/94-J-0-2.bmp","sasaha","Left","37","2","4","6B","C2","C","20"
"","","approach-retreat","24","586996","0.0-24.0","","","2-1","16216","37","0","Training","Stims/Figures/118-J-0-2.bmp","sa:sa:za","Right","39","2","5","6B","C2","C","21"
"","","approach-retreat","25","593245","0.0-25.0","","","2-1","4735","39","1","Training","Stims/Figures/57-C-30-1.bmp","fa:sha:va","Left","39","2","6","6B","C1","C","22"
"","","approach-retreat","26","601570","0.0-26.0","","","2-1","6812","38","0","Training","Stims/Figures/19-C-20-4.bmp","fafa:sha","Up","40","2","7","6B","C1","C","23"
"","","approach-retreat","27","609282","0.0-27.0","","","2-1","6204","40","1","Training","Stims/Figures/94-C-20-2.bmp","vafasha","Up","40","2","8","6B","C1","C","24"
"","","approach-retreat","28","615516","0.0-28.0","","","2-1","4727","39","1","Training","Stims/Figures/57-J-0-1.bmp","sa:sa:ha","Right","39","2","9","6B","C2","C","25"
"","","approach-retreat","29","625395","0.0-29.0","","","2-1","8369","38","0","Training","Stims/Figures/71-J-0-1.bmp","sasa:za","Down","40","2","10","6B","C2","C","26"
"","","approach-retreat","30","634117","0.0-30.0","","","2-1","7210","38","1","Training","Stims/Figures/118-C-20-2.bmp","fafasha","Down","38","2","11","6B","C1","C","27"
"","","approach-retreat","31","641383","0.0-31.0","","","2-1","5753","37","1","Training","Stims/Figures/144-J-10-3.bmp","sa:haza","Left","37","2","12","6B","C2","C","28"
"","","approach-retreat","32","651874","0.0-32.0","","","2-1","8979","38","1","Training","Stims/Figures/102-C-20-4.bmp","va:fa:sha","Down","38","2","13","6B","C1","C","29"
"","","approach-retreat","33","694362","0.0-33.0","","","2-1","40974","38","0","Training","Stims/Figures/102-J-10-4.bmp","za:ha:ha","Down","40","2","14","6B","C2","C","30"
"","","approach-retreat","34","710150","0.0-34.0","","","2-1","14278","38","0","Training","Stims/Figures/44-C-30-3.bmp","fa:fava","Up","40","2","15","6B","C1","C","31"
"","","approach-retreat","35","721531","0.0-35.0","","","2-1","9862","40","0","Training","Stims/Figures/19-J-10-4.bmp","sa:ha:ha","Up","38","2","16","6B","C2","C","32"
"","","approach-retreat","36","730059","0.0-36.0","","","2-1","7015","38","1","Training","Stims/Figures/94-J-0-2.bmp","sasaha","Up","38","3","1","6B","C2","C","33"
"","","approach-retreat","37","736682","0.0-37.0","","","2-1","5108","39","0","Training","Stims/Figures/118-C-20-2.bmp","fafasha","Right","37","3","2","6B","C1","C","34"
"","","approach-retreat","38","747307","0.0-38.0","","","2-1","9116","40","1","Training","Stims/Figures/44-J-10-3.bmp","sahaza","Down","40","3","3","6B","C2","C","35"
"","","approach-retreat","39","760088","0.0-39.0","","","2-1","11264","39","1","Training","Stims/Figures/118-J-0-2.bmp","sa:sa:za","Right","39","3","4","6B","C2","C","36"
"","","approach-retreat","40","771709","0.0-40.0","","","2-1","10109","38","1","Training","Stims/Figures/102-C-20-4.bmp","va:fa:sha","Down","38","3","5","6B","C1","C","37"
"","","approach-retreat","41","777791","0.0-41.0","","","2-1","4564","37","0","Training","Stims/Figures/144-C-30-3.bmp","fa:shasha","Left","39","3","6","6B","C1","C","38"
"","","approach-retreat","42","788284","0.0-42.0","","","2-1","8981","38","0","Training","Stims/Figures/57-C-30-1.bmp","fa:sha:va","Up","40","3","7","6B","C1","C","39"
"","","approach-retreat","43","794537","0.0-43.0","","","2-1","4739","40","1","Training","Stims/Figures/57-J-0-1.bmp","sa:sa:ha","Down","40","3","8","6B","C2","C","40"
"","","approach-retreat","44","801384","0.0-44.0","","","2-1","5325","37","1","Training","Stims/Figures/19-J-10-4.bmp","sa:ha:ha","Left","37","3","9","6B","C2","C","41"
"","","approach-retreat","45","807308","0.0-45.0","","","2-1","4416","37","1","Training","Stims/Figures/144-J-10-3.bmp","sa:haza","Left","37","3","10","6B","C2","C","42"
"","","approach-retreat","46","827480","0.0-46.0","","","2-1","18659","37","0","Training","Stims/Figures/71-C-30-1.bmp","vafa:sha","Left","39","3","11","6B","C1","C","43"
"","","approach-retreat","47","834363","0.0-47.0","","","2-1","5375","39","1","Training","Stims/Figures/102-J-10-4.bmp","za:ha:ha","Right","39","3","12","6B","C2","C","44"
"","","approach-retreat","48","840647","0.0-48.0","","","2-1","4771","40","1","Training","Stims/Figures/44-C-30-3.bmp","fa:fava","Up","40","3","13","6B","C1","C","45"
"","","approach-retreat","49","850847","0.0-49.0","","","2-1","8690","38","0","Training","Stims/Figures/71-J-0-1.bmp","sasa:za","Down","40","3","14","6B","C2","C","46"
"","","approach-retreat","50","880044","0.0-50.0","","","2-1","27690","37","1","Training","Stims/Figures/94-C-20-2.bmp","vafasha","Right","37","3","15","6B","C1","C","47"
"","","approach-retreat","51","888115","0.0-51.0","","","2-1","6565","40","1","Training","Stims/Figures/19-C-20-4.bmp","fafa:sha","Up","40","3","16","6B","C1","C","48"
"","","approach-retreat","52","894760","0.0-52.0","","","2-1","5139","38","1","Training","Stims/Figures/102-J-10-4.bmp","za:ha:ha","Up","38","4","1","6B","C2","C","49"
"","","approach-retreat","53","901781","0.0-53.0","","","2-1","5517","40","1","Training","Stims/Figures/57-C-30-1.bmp","fa:sha:va","Up","40","4","2","6B","C1","C","50"
"","","approach-retreat","54","908037","0.0-54.0","","","2-1","4747","39","1","Training","Stims/Figures/57-J-0-1.bmp","sa:sa:ha","Right","39","4","3","6B","C2","C","51"
"","","approach-retreat","55","915136","0.0-55.0","","","2-1","5590","39","1","Training","Stims/Figures/144-J-10-3.bmp","sa:haza","Right","39","4","4","6B","C2","C","52"
"","","approach-retreat","56","921358","0.0-56.0","","","2-1","4714","40","1","Training","Stims/Figures/19-C-20-4.bmp","fafa:sha","Up","40","4","5","6B","C1","C","53"
"","","approach-retreat","57","928137","0.0-57.0","","","2-1","5265","39","1","Training","Stims/Figures/144-C-30-3.bmp","fa:shasha","Left","39","4","6","6B","C1","C","54"
"","","approach-retreat","58","934676","0.0-58.0","","","2-1","5033","40","1","Training","Stims/Figures/44-J-10-3.bmp","sahaza","Down","40","4","7","6B","C2","C","55"
"","","approach-retreat","59","945785","0.0-59.0","","","2-1","9601","39","1","Training","Stims/Figures/19-J-10-4.bmp","sa:ha:ha","Right","39","4","8","6B","C2","C","56"
"","","approach-retreat","60","951873","0.0-60.0","","","2-1","4581","40","1","Training","Stims/Figures/71-C-30-1.bmp","vafa:sha","Up","40","4","9","6B","C1","C","57"
"","","approach-retreat","61","958101","0.0-61.0","","","2-1","4722","40","1","Training","Stims/Figures/71-J-0-1.bmp","sasa:za","Down","40","4","10","6B","C2","C","58"
"","","approach-retreat","62","964496","0.0-62.0","","","2-1","4889","39","1","Training","Stims/Figures/94-C-20-2.bmp","vafasha","Left","39","4","11","6B","C1","C","59"
"","","approach-retreat","63","971924","0.0-63.0","","","2-1","5923","39","1","Training","Stims/Figures/44-C-30-3.bmp","fa:fava","Left","39","4","12","6B","C1","C","60"
"","","approach-retreat","64","983922","0.0-64.0","","","2-1","10489","39","1","Training","Stims/Figures/118-C-20-2.bmp","fafasha","Left","39","4","13","6B","C1","C","61"
"","","approach-retreat","65","1005926","0.0-65.0","","","2-1","20492","38","1","Training","Stims/Figures/102-C-20-4.bmp","va:fa:sha","Down","38","4","14","6B","C1","C","62"
"","","approach-retreat","66","1013133","0.0-66.0","","","2-1","5700","39","1","Training","Stims/Figures/118-J-0-2.bmp","sa:sa:za","Right","39","4","15","6B","C2","C","63"
"","","approach-retreat","67","1023580","0.0-67.0","","","2-1","8939","40","1","Training","Stims/Figures/94-J-0-2.bmp","sasaha","Down","40","4","16","6B","C2","C","64"
"","","approach-retreat","68","1031880","0.0-68.0","","","2-1","6791","39","1","Training","Stims/Figures/19-J-10-4.bmp","sa:ha:ha","Right","39","5","1","6B","C2","C","65"
"","","approach-retreat","69","1038449","0.0-69.0","","","2-1","5055","40","1","Training","Stims/Figures/118-C-20-2.bmp","fafasha","Up","40","5","2","6B","C1","C","66"
"","","approach-retreat","70","1045273","0.0-70.0","","","2-1","5313","40","0","Training","Stims/Figures/71-C-30-1.bmp","vafa:sha","Down","38","5","3","6B","C1","C","67"
"","","approach-retreat","71","1051953","0.0-71.0","","","2-1","5174","39","1","Training","Stims/Figures/94-J-0-2.bmp","sasaha","Right","39","5","4","6B","C2","C","68"
"","","approach-retreat","72","1059441","0.0-72.0","","","2-1","5981","37","1","Training","Stims/Figures/102-C-20-4.bmp","va:fa:sha","Right","37","5","5","6B","C1","C","69"
"","","approach-retreat","73","1066283","0.0-73.0","","","2-1","5328","38","1","Training","Stims/Figures/144-J-10-3.bmp","sa:haza","Up","38","5","6","6B","C2","C","70"
"","","approach-retreat","74","1074099","0.0-74.0","","","2-1","6302","39","1","Training","Stims/Figures/57-C-30-1.bmp","fa:sha:va","Left","39","5","7","6B","C1","C","71"
"","","approach-retreat","75","1080508","0.0-75.0","","","2-1","4905","38","1","Training","Stims/Figures/71-J-0-1.bmp","sasa:za","Up","38","5","8","6B","C2","C","72"
"","","approach-retreat","76","1086696","0.0-76.0","","","2-1","4679","40","1","Training","Stims/Figures/44-J-10-3.bmp","sahaza","Down","40","5","9","6B","C2","C","73"
"","","approach-retreat","77","1092685","0.0-77.0","","","2-1","4480","39","1","Training","Stims/Figures/94-C-20-2.bmp","vafasha","Left","39","5","10","6B","C1","C","74"
"","","approach-retreat","78","1103838","0.0-78.0","","","2-1","9649","40","1","Training","Stims/Figures/102-J-10-4.bmp","za:ha:ha","Down","40","5","11","6B","C2","C","75"
"","","approach-retreat","79","1110381","0.0-79.0","","","2-1","5029","39","1","Training","Stims/Figures/44-C-30-3.bmp","fa:fava","Left","39","5","12","6B","C1","C","76"
"","","approach-retreat","80","1116416","0.0-80.0","","","2-1","4529","37","1","Training","Stims/Figures/19-C-20-4.bmp","fafa:sha","Right","37","5","13","6B","C1","C","77"
"","","approach-retreat","81","1125708","0.0-81.0","","","2-1","7784","40","1","Training","Stims/Figures/118-J-0-2.bmp","sa:sa:za","Down","40","5","14","6B","C2","C","78"
"","","approach-retreat","82","1132352","0.0-82.0","","","2-1","5137","37","1","Training","Stims/Figures/57-J-0-1.bmp","sa:sa:ha","Left","37","5","15","6B","C2","C","79"
"","","approach-retreat","83","1139193","0.0-83.0","","","2-1","5333","40","1","Training","Stims/Figures/144-C-30-3.bmp","fa:shasha","Up","40","5","16","6B","C1","C","80"
"","","approach-retreat","84","1145574","0.0-84.0","","","2-1","4869","40","1","Training","Stims/Figures/118-C-20-2.bmp","fafasha","Up","40","6","1","6B","C1","C","81"
"","","approach-retreat","85","1151833","0.0-85.0","","","2-1","4751","39","1","Training","Stims/Figures/44-J-10-3.bmp","sahaza","Right","39","6","2","6B","C2","C","82"
"","","approach-retreat","86","1157713","0.0-86.0","","","2-1","4367","38","1","Training","Stims/Figures/94-J-0-2.bmp","sasaha","Up","38","6","3","6B","C2","C","83"
"","","approach-retreat","87","1163549","0.0-87.0","","","2-1","4323","37","1","Training","Stims/Figures/102-C-20-4.bmp","va:fa:sha","Right","37","6","4","6B","C1","C","84"
"","","approach-retreat","88","1173243","0.0-88.0","","","2-1","8179","40","1","Training","Stims/Figures/19-C-20-4.bmp","fafa:sha","Up","40","6","5","6B","C1","C","85"
"","","approach-retreat","89","1180076","0.0-89.0","","","2-1","5322","37","1","Training","Stims/Figures/144-C-30-3.bmp","fa:shasha","Right","37","6","6","6B","C1","C","86"
"","","approach-retreat","90","1186844","0.0-90.0","","","2-1","5263","40","1","Training","Stims/Figures/57-J-0-1.bmp","sa:sa:ha","Down","40","6","7","6B","C2","C","87"
"","","approach-retreat","91","1193201","0.0-91.0","","","2-1","4844","39","1","Training","Stims/Figures/57-C-30-1.bmp","fa:sha:va","Left","39","6","8","6B","C1","C","88"
"","","approach-retreat","92","1199184","0.0-92.0","","","2-1","4469","38","1","Training","Stims/Figures/19-J-10-4.bmp","sa:ha:ha","Up","38","6","9","6B","C2","C","89"
"","","approach-retreat","93","1205385","0.0-93.0","","","2-1","4694","39","1","Training","Stims/Figures/44-C-30-3.bmp","fa:fava","Left","39","6","10","6B","C1","C","90"
"","","approach-retreat","94","1211296","0.0-94.0","","","2-1","4402","40","1","Training","Stims/Figures/102-J-10-4.bmp","za:ha:ha","Down","40","6","11","6B","C2","C","91"
"","","approach-retreat","95","1217567","0.0-95.0","","","2-1","4763","39","1","Training","Stims/Figures/71-C-30-1.bmp","vafa:sha","Left","39","6","12","6B","C1","C","92"
"","","approach-retreat","96","1224462","0.0-96.0","","","2-1","5386","40","1","Training","Stims/Figures/144-J-10-3.bmp","sa:haza","Down","40","6","13","6B","C2","C","93"
"","","approach-retreat","97","1230814","0.0-97.0","","","2-1","4842","40","1","Training","Stims/Figures/118-J-0-2.bmp","sa:sa:za","Down","40","6","14","6B","C2","C","94"
"","","approach-retreat","98","1236666","0.0-98.0","","","2-1","4339","37","1","Training","Stims/Figures/71-J-0-1.bmp","sasa:za","Left","37","6","15","6B","C2","C","95"
"","","approach-retreat","99","1242890","0.0-99.0","","","2-1","4715","37","1","Training","Stims/Figures/94-C-20-2.bmp","vafasha","Right","37","6","16","6B","C1","C","96"
"","","approach-retreat","100","1248660","0.0-100.0","","","2-1","4263","40","1","Training","Stims/Figures/102-C-20-4.bmp","va:fa:sha","Up","40","7","1","6B","C1","C","97"
"","","approach-retreat","101","1254278","0.0-101.0","","","2-1","4105","37","1","Training","Stims/Figures/71-C-30-1.bmp","vafa:sha","Right","37","7","2","6B","C1","C","98"
"","","approach-retreat","102","1260000","0.0-102.0","","","2-1","4215","39","1","Training","Stims/Figures/144-C-30-3.bmp","fa:shasha","Left","39","7","3","6B","C1","C","99"
"","","approach-retreat","103","1265834","0.0-103.0","","","2-1","4325","38","1","Training","Stims/Figures/144-J-10-3.bmp","sa:haza","Up","38","7","4","6B","C2","C","100"
"","","approach-retreat","104","1272470","0.0-104.0","","","2-1","5125","37","1","Training","Stims/Figures/44-J-10-3.bmp","sahaza","Left","37","7","5","6B","C2","C","101"
"","","approach-retreat","105","1278190","0.0-105.0","","","2-1","4207","37","1","Training","Stims/Figures/102-J-10-4.bmp","za:ha:ha","Left","37","7","6","6B","C2","C","102"
"","","approach-retreat","106","1283867","0.0-106.0","","","2-1","4164","39","1","Training","Stims/Figures/94-J-0-2.bmp","sasaha","Right","39","7","7","6B","C2","C","103"
"","","approach-retreat","107","1289603","0.0-107.0","","","2-1","4231","37","1","Training","Stims/Figures/118-J-0-2.bmp","sa:sa:za","Left","37","7","8","6B","C2","C","104"
"","","approach-retreat","108","1296817","0.0-108.0","","","2-1","5706","37","1","Training","Stims/Figures/44-C-30-3.bmp","fa:fava","Right","37","7","9","6B","C1","C","105"
"","","approach-retreat","109","1303919","0.0-109.0","","","2-1","5594","37","1","Training","Stims/Figures/94-C-20-2.bmp","vafasha","Right","37","7","10","6B","C1","C","106"
"","","approach-retreat","110","1310930","0.0-110.0","","","2-1","5499","38","1","Training","Stims/Figures/19-J-10-4.bmp","sa:ha:ha","Up","38","7","11","6B","C2","C","107"
"","","approach-retreat","111","1316904","0.0-111.0","","","2-1","4462","40","1","Training","Stims/Figures/57-J-0-1.bmp","sa:sa:ha","Down","40","7","12","6B","C2","C","108"
"","","approach-retreat","112","1323077","0.0-112.0","","","2-1","4662","38","1","Training","Stims/Figures/71-J-0-1.bmp","sasa:za","Up","38","7","13","6B","C2","C","109"
"","","approach-retreat","113","1331071","0.0-113.0","","","2-1","6483","38","1","Training","Stims/Figures/57-C-30-1.bmp","fa:sha:va","Down","38","7","14","6B","C1","C","110"
"","","approach-retreat","114","1337163","0.0-114.0","","","2-1","4578","38","1","Training","Stims/Figures/19-C-20-4.bmp","fafa:sha","Down","38","7","15","6B","C1","C","111"
"","","approach-retreat","115","1343294","0.0-115.0","","","2-1","4622","38","1","Training","Stims/Figures/118-C-20-2.bmp","fafasha","Down","38","7","16","6B","C1","C","112"
"","","approach-retreat","116","1350562","0.0-116.0","","","2-1","5754","39","1","Training","Stims/Figures/118-C-20-2.bmp","fafasha","Left","39","8","1","6B","C1","C","113"
"","","approach-retreat","117","1356527","0.0-117.0","","","2-1","4456","40","1","Training","Stims/Figures/57-J-0-1.bmp","sa:sa:ha","Down","40","8","2","6B","C2","C","114"
"","","approach-retreat","118","1363223","0.0-118.0","","","2-1","5183","39","1","Training","Stims/Figures/57-C-30-1.bmp","fa:sha:va","Left","39","8","3","6B","C1","C","115"
"","","approach-retreat","119","1369281","0.0-119.0","","","2-1","4546","38","1","Training","Stims/Figures/144-J-10-3.bmp","sa:haza","Up","38","8","4","6B","C2","C","116"
"","","approach-retreat","120","1376066","0.0-120.0","","","2-1","5273","37","1","Training","Stims/Figures/118-J-0-2.bmp","sa:sa:za","Left","37","8","5","6B","C2","C","117"
"","","approach-retreat","121","1383873","0.0-121.0","","","2-1","6297","39","1","Training","Stims/Figures/71-J-0-1.bmp","sasa:za","Right","39","8","6","6B","C2","C","118"
"","","approach-retreat","122","1390455","0.0-122.0","","","2-1","5072","38","1","Training","Stims/Figures/102-C-20-4.bmp","va:fa:sha","Down","38","8","7","6B","C1","C","119"
"","","approach-retreat","123","1398330","0.0-123.0","","","2-1","6363","40","1","Training","Stims/Figures/144-C-30-3.bmp","fa:shasha","Up","40","8","8","6B","C1","C","120"
"","","approach-retreat","124","1404701","0.0-124.0","","","2-1","4858","39","1","Training","Stims/Figures/44-J-10-3.bmp","sahaza","Right","39","8","9","6B","C2","C","121"
"","","approach-retreat","125","1410572","0.0-125.0","","","2-1","4366","39","1","Training","Stims/Figures/19-J-10-4.bmp","sa:ha:ha","Right","39","8","10","6B","C2","C","122"
"","","approach-retreat","126","1416644","0.0-126.0","","","2-1","4561","40","1","Training","Stims/Figures/94-J-0-2.bmp","sasaha","Down","40","8","11","6B","C2","C","123"
"","","approach-retreat","127","1422423","0.0-127.0","","","2-1","4264","40","1","Training","Stims/Figures/102-J-10-4.bmp","za:ha:ha","Down","40","8","12","6B","C2","C","124"
"","","approach-retreat","128","1430217","0.0-128.0","","","2-1","6282","40","1","Training","Stims/Figures/44-C-30-3.bmp","fa:fava","Up","40","8","13","6B","C1","C","125"
"","","approach-retreat","129","1436642","0.0-129.0","","","2-1","4909","40","1","Training","Stims/Figures/19-C-20-4.bmp","fafa:sha","Up","40","8","14","6B","C1","C","126"
"","","approach-retreat","130","1444075","0.0-130.0","","","2-1","5919","37","1","Training","Stims/Figures/94-C-20-2.bmp","vafasha","Right","37","8","15","6B","C1","C","127"
"","","approach-retreat","131","1453566","0.0-131.0","","","2-1","7977","39","1","Training","Stims/Figures/71-C-30-1.bmp","vafa:sha","Left","39","8","16","6B","C1","C","128"
"","","approach-retreat","132","1461163","0.0-132.0","","","2-1","6088","37","1","Training","Stims/Figures/19-C-20-4.bmp","fafa:sha","Right","37","9","1","6B","C1","C","129"
"","","approach-retreat","133","1467486","0.0-133.0","","","2-1","4818","37","1","Training","Stims/Figures/71-C-30-1.bmp","vafa:sha","Right","37","9","2","6B","C1","C","130"
"","","approach-retreat","134","1473662","0.0-134.0","","","2-1","4665","40","1","Training","Stims/Figures/44-J-10-3.bmp","sahaza","Down","40","9","3","6B","C2","C","131"
"","","approach-retreat","135","1481316","0.0-135.0","","","2-1","6143","37","1","Training","Stims/Figures/102-C-20-4.bmp","va:fa:sha","Right","37","9","4","6B","C1","C","132"
"","","approach-retreat","136","1491483","0.0-136.0","","","2-1","8657","37","1","Training","Stims/Figures/57-J-0-1.bmp","sa:sa:ha","Left","37","9","5","6B","C2","C","133"
"","","approach-retreat","137","1498615","0.0-137.0","","","2-1","5618","39","1","Training","Stims/Figures/94-C-20-2.bmp","vafasha","Left","39","9","6","6B","C1","C","134"
"","","approach-retreat","138","1505768","0.0-138.0","","","2-1","5642","38","1","Training","Stims/Figures/102-J-10-4.bmp","za:ha:ha","Up","38","9","7","6B","C2","C","135"
"","","approach-retreat","139","1511977","0.0-139.0","","","2-1","4700","39","1","Training","Stims/Figures/144-J-10-3.bmp","sa:haza","Right","39","9","8","6B","C2","C","136"
"","","approach-retreat","140","1518527","0.0-140.0","","","2-1","5043","38","1","Training","Stims/Figures/19-J-10-4.bmp","sa:ha:ha","Up","38","9","9","6B","C2","C","137"
"","","approach-retreat","141","1525059","0.0-141.0","","","2-1","5024","38","1","Training","Stims/Figures/118-J-0-2.bmp","sa:sa:za","Up","38","9","10","6B","C2","C","138"
"","","approach-retreat","142","1531290","0.0-142.0","","","2-1","4720","38","1","Training","Stims/Figures/94-J-0-2.bmp","sasaha","Up","38","9","11","6B","C2","C","139"
"","","approach-retreat","143","1538236","0.0-143.0","","","2-1","5440","38","1","Training","Stims/Figures/44-C-30-3.bmp","fa:fava","Down","38","9","12","6B","C1","C","140"
"","","approach-retreat","144","1545557","0.0-144.0","","","2-1","5814","39","1","Training","Stims/Figures/144-C-30-3.bmp","fa:shasha","Left","39","9","13","6B","C1","C","141"
"","","approach-retreat","145","1552906","0.0-145.0","","","2-1","5839","40","1","Training","Stims/Figures/71-J-0-1.bmp","sasa:za","Down","40","9","14","6B","C2","C","142"
"","","approach-retreat","146","1560342","0.0-146.0","","","2-1","5927","38","1","Training","Stims/Figures/118-C-20-2.bmp","fafasha","Down","38","9","15","6B","C1","C","143"
"","","approach-retreat","147","1567022","0.0-147.0","","","2-1","5176","39","1","Training","Stims/Figures/57-C-30-1.bmp","fa:sha:va","Left","39","9","16","6B","C1","C","144"
"28008","","instructions","148","1595030","0.0-148.0","[{""page_index"":0,""viewing_time"":28008}]","","","","","","","","","","","","","","","",""
"","","approach-retreat","149","1606234","0.0-149.0","","","2-1","9696","37","0","Testing","Stims/Figures/139-J-0-2.bmp","za:haza","Right","39","1","1","6B","C2","C","1"
"","","approach-retreat","150","1615976","0.0-150.0","","","2-1","8232","37","0","Testing","Stims/Figures/139-C-20-2.bmp","vasha:sha","Left","39","1","2","6B","C1","C","2"
"","","approach-retreat","151","1623465","0.0-151.0","","","2-1","5978","40","0","Testing","Stims/Figures/27-J-0-1.bmp","za:sa:za","Up","38","1","3","6B","C2","C","3"
"","","approach-retreat","152","1629776","0.0-152.0","","","2-1","4802","39","0","Testing","Stims/Figures/27-C-30-1.bmp","fasha:sha","Right","37","1","4","6B","C1","C","4"
"","","approach-retreat","153","1635648","0.0-153.0","","","2-1","4361","40","1","Testing","Stims/Figures/128-C-30-3.bmp","vasha:va","Up","40","1","5","6B","C1","C","5"
"","","approach-retreat","154","1653002","0.0-154.0","","","2-1","15844","37","1","Testing","Stims/Figures/94-C-20-2.bmp","vafasha","Right","37","1","6","6B","C1","C","6"
"","","approach-retreat","155","1659961","0.0-155.0","","","2-1","5447","38","0","Testing","Stims/Figures/102-C-20-4.bmp","va:fa:sha","Up","40","1","7","6B","C1","C","7"
"","","approach-retreat","156","1665772","0.0-156.0","","","2-1","4302","37","0","Testing","Stims/Figures/71-C-30-1.bmp","vafa:sha","Left","39","1","8","6B","C1","C","8"
"","","approach-retreat","157","1672656","0.0-157.0","","","2-1","5373","37","0","Testing","Stims/Figures/144-C-30-3.bmp","fa:shasha","Left","39","1","9","6B","C1","C","9"
"","","approach-retreat","158","1680136","0.0-158.0","","","2-1","5970","37","1","Testing","Stims/Figures/57-C-30-1.bmp","fa:sha:va","Right","37","1","10","6B","C1","C","10"
"","","approach-retreat","159","1715995","0.0-159.0","","","2-1","34347","40","0","Testing","Stims/Figures/128-J-10-3.bmp","zasaha","Up","38","1","11","6B","C2","C","11"
"","","approach-retreat","160","1744936","0.0-160.0","","","2-1","27432","39","1","Testing","Stims/Figures/102-J-10-4.bmp","za:ha:ha","Right","39","1","12","6B","C2","C","12"
"","","approach-retreat","161","1758786","0.0-161.0","","","2-1","12343","38","0","Testing","Stims/Figures/44-J-10-3.bmp","sahaza","Down","40","1","13","6B","C2","C","13"
"","","approach-retreat","162","1792227","0.0-162.0","","","2-1","31930","39","0","Testing","Stims/Figures/118-J-0-2.bmp","sa:sa:za","Left","37","1","14","6B","C2","C","14"
"","","approach-retreat","163","1813562","0.0-163.0","","","2-1","19826","39","0","Testing","Stims/Figures/19-J-10-4.bmp","sa:ha:ha","Left","37","1","15","6B","C2","C","15"
"","","approach-retreat","164","1821536","0.0-164.0","","","2-1","6465","38","1","Testing","Stims/Figures/19-C-20-4.bmp","fafa:sha","Down","38","1","16","6B","C1","C","16"
"","","approach-retreat","165","1827730","0.0-165.0","","","2-1","4681","38","1","Testing","Stims/Figures/7-C-20-4.bmp","va:sha:sha","Down","38","1","17","6B","C1","C","17"
"","","approach-retreat","166","1833227","0.0-166.0","","","2-1","3985","39","0","Testing","Stims/Figures/94-J-0-2.bmp","sasaha","Left","37","1","18","6B","C2","C","18"
"","","approach-retreat","167","1839146","0.0-167.0","","","2-1","4403","37","0","Testing","Stims/Figures/7-J-10-4.bmp","sa:ha:za","Right","39","1","19","6B","C2","C","19"
"","","approach-retreat","168","1845851","0.0-168.0","","","2-1","5194","38","1","Testing","Stims/Figures/44-C-30-3.bmp","fa:fava","Down","38","1","20","6B","C1","C","20"
"","","approach-retreat","169","1852210","0.0-169.0","","","2-1","4851","38","0","Testing","Stims/Figures/118-C-20-2.bmp","fafasha","Up","40","1","21","6B","C1","C","21"
"","","approach-retreat","170","1861716","0.0-170.0","","","2-1","7993","38","0","Testing","Stims/Figures/71-J-0-1.bmp","sasa:za","Down","40","1","22","6B","C2","C","22"
"","","approach-retreat","171","1867947","0.0-171.0","","","2-1","4720","40","0","Testing","Stims/Figures/144-J-10-3.bmp","sa:haza","Up","38","1","23","6B","C2","C","23"
"","","approach-retreat","172","1874131","0.0-172.0","","","2-1","4675","38","0","Testing","Stims/Figures/57-J-0-1.bmp","sa:sa:ha","Down","40","1","24","6B","C2","C","24"
"","","approach-retreat","173","1880650","0.0-173.0","","","2-1","5009","40","1","Testing","Stims/Figures/19-C-20-4.bmp","fafa:sha","Up","40","2","1","6B","C1","C","25"
"","","approach-retreat","174","1887283","0.0-174.0","","","2-1","5122","38","0","Testing","Stims/Figures/118-J-0-2.bmp","sa:sa:za","Down","40","2","2","6B","C2","C","26"
"","","approach-retreat","175","1893845","0.0-175.0","","","2-1","5052","39","0","Testing","Stims/Figures/102-J-10-4.bmp","za:ha:ha","Left","37","2","3","6B","C2","C","27"
"","","approach-retreat","176","1899589","0.0-176.0","","","2-1","4232","39","1","Testing","Stims/Figures/44-C-30-3.bmp","fa:fava","Left","39","2","4","6B","C1","C","28"
"","","approach-retreat","177","1905433","0.0-177.0","","","2-1","4337","37","1","Testing","Stims/Figures/139-C-20-2.bmp","vasha:sha","Right","37","2","5","6B","C1","C","29"
"","","approach-retreat","178","1912720","0.0-178.0","","","2-1","5776","40","1","Testing","Stims/Figures/94-C-20-2.bmp","vafasha","Up","40","2","6","6B","C1","C","30"
"","","approach-retreat","179","1918609","0.0-179.0","","","2-1","4377","39","1","Testing","Stims/Figures/144-C-30-3.bmp","fa:shasha","Left","39","2","7","6B","C1","C","31"
"","","approach-retreat","180","1924813","0.0-180.0","","","2-1","4699","40","0","Testing","Stims/Figures/144-J-10-3.bmp","sa:haza","Up","38","2","8","6B","C2","C","32"
"","","approach-retreat","181","1930896","0.0-181.0","","","2-1","4572","38","0","Testing","Stims/Figures/27-J-0-1.bmp","za:sa:za","Down","40","2","9","6B","C2","C","33"
"","","approach-retreat","182","1936805","0.0-182.0","","","2-1","4401","37","1","Testing","Stims/Figures/7-C-20-4.bmp","va:sha:sha","Right","37","2","10","6B","C1","C","34"
"","","approach-retreat","183","1942725","0.0-183.0","","","2-1","4414","40","1","Testing","Stims/Figures/102-C-20-4.bmp","va:fa:sha","Up","40","2","11","6B","C1","C","35"
"","","approach-retreat","184","1948408","0.0-184.0","","","2-1","4177","37","1","Testing","Stims/Figures/71-C-30-1.bmp","vafa:sha","Right","37","2","12","6B","C1","C","36"
"","","approach-retreat","185","1954203","0.0-185.0","","","2-1","4290","38","0","Testing","Stims/Figures/139-J-0-2.bmp","za:haza","Down","40","2","13","6B","C2","C","37"
"","","approach-retreat","186","1960303","0.0-186.0","","","2-1","4590","37","1","Testing","Stims/Figures/57-C-30-1.bmp","fa:sha:va","Right","37","2","14","6B","C1","C","38"
"","","approach-retreat","187","1966594","0.0-187.0","","","2-1","4779","39","1","Testing","Stims/Figures/128-C-30-3.bmp","vasha:va","Left","39","2","15","6B","C1","C","39"
"","","approach-retreat","188","1972256","0.0-188.0","","","2-1","4154","37","1","Testing","Stims/Figures/118-C-20-2.bmp","fafasha","Right","37","2","16","6B","C1","C","40"
"","","approach-retreat","189","1978295","0.0-189.0","","","2-1","4527","40","0","Testing","Stims/Figures/19-J-10-4.bmp","sa:ha:ha","Up","38","2","17","6B","C2","C","41"
"","","approach-retreat","190","1984964","0.0-190.0","","","2-1","5156","37","0","Testing","Stims/Figures/27-C-30-1.bmp","fasha:sha","Left","39","2","18","6B","C1","C","42"
"","","approach-retreat","191","1990745","0.0-191.0","","","2-1","4270","38","0","Testing","Stims/Figures/94-J-0-2.bmp","sasaha","Down","40","2","19","6B","C2","C","43"
"","","approach-retreat","192","2005454","0.0-192.0","","","2-1","13202","37","1","Testing","Stims/Figures/57-J-0-1.bmp","sa:sa:ha","Left","37","2","20","6B","C2","C","44"
"","","approach-retreat","193","2011313","0.0-193.0","","","2-1","4351","38","0","Testing","Stims/Figures/71-J-0-1.bmp","sasa:za","Down","40","2","21","6B","C2","C","45"
"","","approach-retreat","194","2017036","0.0-194.0","","","2-1","4214","37","0","Testing","Stims/Figures/7-J-10-4.bmp","sa:ha:za","Right","39","2","22","6B","C2","C","46"
"","","approach-retreat","195","2023115","0.0-195.0","","","2-1","4573","38","1","Testing","Stims/Figures/44-J-10-3.bmp","sahaza","Up","38","2","23","6B","C2","C","47"
"","","approach-retreat","196","2030673","0.0-196.0","","","2-1","6045","40","1","Testing","Stims/Figures/128-J-10-3.bmp","zasaha","Down","40","2","24","6B","C2","C","48"
"","","approach-retreat","197","2039379","0.0-197.0","","","2-1","7196","38","0","Testing","Stims/Figures/57-C-30-1.bmp","fa:sha:va","Up","40","3","1","6B","C1","C","49"
"","","approach-retreat","198","2045050","0.0-198.0","","","2-1","4160","38","0","Testing","Stims/Figures/118-J-0-2.bmp","sa:sa:za","Down","40","3","2","6B","C2","C","50"
"","","approach-retreat","199","2050891","0.0-199.0","","","2-1","4332","38","0","Testing","Stims/Figures/27-J-0-1.bmp","za:sa:za","Down","40","3","3","6B","C2","C","51"
"","","approach-retreat","200","2057930","0.0-200.0","","","2-1","5530","38","0","Testing","Stims/Figures/102-C-20-4.bmp","va:fa:sha","Up","40","3","4","6B","C1","C","52"
"","","approach-retreat","201","2073136","0.0-201.0","","","2-1","13691","39","1","Testing","Stims/Figures/27-C-30-1.bmp","fasha:sha","Left","39","3","5","6B","C1","C","53"
"","","approach-retreat","202","2113939","0.0-202.0","","","2-1","39294","37","0","Testing","Stims/Figures/139-J-0-2.bmp","za:haza","Right","39","3","6","6B","C2","C","54"
"","","approach-retreat","203","2123432","0.0-203.0","","","2-1","7984","37","1","Testing","Stims/Figures/139-C-20-2.bmp","vasha:sha","Right","37","3","7","6B","C1","C","55"
"","","approach-retreat","204","2136900","0.0-204.0","","","2-1","11962","40","0","Testing","Stims/Figures/7-J-10-4.bmp","sa:ha:za","Up","38","3","8","6B","C2","C","56"
"","","approach-retreat","205","2142925","0.0-205.0","","","2-1","4519","39","1","Testing","Stims/Figures/144-C-30-3.bmp","fa:shasha","Left","39","3","9","6B","C1","C","57"
"","","approach-retreat","206","2152597","0.0-206.0","","","2-1","8163","37","0","Testing","Stims/Figures/44-C-30-3.bmp","fa:fava","Left","39","3","10","6B","C1","C","58"
"","","approach-retreat","207","2158702","0.0-207.0","","","2-1","4599","39","0","Testing","Stims/Figures/57-J-0-1.bmp","sa:sa:ha","Left","37","3","11","6B","C2","C","59"
"","","approach-retreat","208","2212854","0.0-208.0","","","2-1","52631","38","1","Testing","Stims/Figures/102-J-10-4.bmp","za:ha:ha","Up","38","3","12","6B","C2","C","60"
"","","approach-retreat","209","2218573","0.0-209.0","","","2-1","4210","39","1","Testing","Stims/Figures/44-J-10-3.bmp","sahaza","Right","39","3","13","6B","C2","C","61"
"","","approach-retreat","210","2226945","0.0-210.0","","","2-1","6866","37","0","Testing","Stims/Figures/128-J-10-3.bmp","zasaha","Right","39","3","14","6B","C2","C","62"
"","","approach-retreat","211","2232624","0.0-211.0","","","2-1","4169","40","1","Testing","Stims/Figures/71-J-0-1.bmp","sasa:za","Down","40","3","15","6B","C2","C","63"
"","","approach-retreat","212","2238681","0.0-212.0","","","2-1","4546","37","0","Testing","Stims/Figures/19-C-20-4.bmp","fafa:sha","Left","39","3","16","6B","C1","C","64"
"","","approach-retreat","213","2244643","0.0-213.0","","","2-1","4453","39","0","Testing","Stims/Figures/128-C-30-3.bmp","vasha:va","Right","37","3","17","6B","C1","C","65"
"","","approach-retreat","214","2250703","0.0-214.0","","","2-1","4554","40","1","Testing","Stims/Figures/94-C-20-2.bmp","vafasha","Up","40","3","18","6B","C1","C","66"
"","","approach-retreat","215","2256491","0.0-215.0","","","2-1","4280","38","0","Testing","Stims/Figures/94-J-0-2.bmp","sasaha","Down","40","3","19","6B","C2","C","67"
"","","approach-retreat","216","2263226","0.0-216.0","","","2-1","5229","37","0","Testing","Stims/Figures/118-C-20-2.bmp","fafasha","Left","39","3","20","6B","C1","C","68"
"","","approach-retreat","217","2279098","0.0-217.0","","","2-1","14364","40","1","Testing","Stims/Figures/144-J-10-3.bmp","sa:haza","Down","40","3","21","6B","C2","C","69"
"","","approach-retreat","218","2285454","0.0-218.0","","","2-1","4851","38","1","Testing","Stims/Figures/71-C-30-1.bmp","vafa:sha","Down","38","3","22","6B","C1","C","70"
"","","approach-retreat","219","2291735","0.0-219.0","","","2-1","4774","39","1","Testing","Stims/Figures/19-J-10-4.bmp","sa:ha:ha","Right","39","3","23","6B","C2","C","71"
"","","approach-retreat","220","2297847","0.0-220.0","","","2-1","4605","38","0","Testing","Stims/Figures/7-C-20-4.bmp","va:sha:sha","Up","40","3","24","6B","C1","C","72"
"","","approach-retreat","221","2306275","0.0-221.0","","","2-1","6918","37","0","Testing","Stims/Figures/19-C-20-4.bmp","fafa:sha","Left","39","4","1","6B","C1","C","73"
"","","approach-retreat","222","2313488","0.0-222.0","","","2-1","5706","38","0","Testing","Stims/Figures/44-J-10-3.bmp","sahaza","Down","40","4","2","6B","C2","C","74"
"","","approach-retreat","223","2320106","0.0-223.0","","","2-1","5111","40","0","Testing","Stims/Figures/139-J-0-2.bmp","za:haza","Up","38","4","3","6B","C2","C","75"
"","","approach-retreat","224","2326417","0.0-224.0","","","2-1","4802","37","0","Testing","Stims/Figures/27-C-30-1.bmp","fasha:sha","Left","39","4","4","6B","C1","C","76"
"","","approach-retreat","225","2337241","0.0-225.0","","","2-1","9317","37","1","Testing","Stims/Figures/144-C-30-3.bmp","fa:shasha","Right","37","4","5","6B","C1","C","77"
"","","approach-retreat","226","2345902","0.0-226.0","","","2-1","7158","39","1","Testing","Stims/Figures/19-J-10-4.bmp","sa:ha:ha","Right","39","4","6","6B","C2","C","78"
"","","approach-retreat","227","2352133","0.0-227.0","","","2-1","4723","38","1","Testing","Stims/Figures/94-C-20-2.bmp","vafasha","Down","38","4","7","6B","C1","C","79"
"","","approach-retreat","228","2361214","0.0-228.0","","","2-1","7574","40","0","Testing","Stims/Figures/71-J-0-1.bmp","sasa:za","Up","38","4","8","6B","C2","C","80"
"","","approach-retreat","229","2376099","0.0-229.0","","","2-1","13374","37","1","Testing","Stims/Figures/94-J-0-2.bmp","sasaha","Left","37","4","9","6B","C2","C","81"
"","","approach-retreat","230","2383529","0.0-230.0","","","2-1","5923","39","0","Testing","Stims/Figures/44-C-30-3.bmp","fa:fava","Right","37","4","10","6B","C1","C","82"
"","","approach-retreat","231","2389323","0.0-231.0","","","2-1","4288","40","0","Testing","Stims/Figures/102-J-10-4.bmp","za:ha:ha","Up","38","4","11","6B","C2","C","83"
"","","approach-retreat","232","2395201","0.0-232.0","","","2-1","4371","37","0","Testing","Stims/Figures/27-J-0-1.bmp","za:sa:za","Right","39","4","12","6B","C2","C","84"
"","","approach-retreat","233","2408302","0.0-233.0","","","2-1","11592","38","0","Testing","Stims/Figures/7-J-10-4.bmp","sa:ha:za","Down","40","4","13","6B","C2","C","85"
"","","approach-retreat","234","2419900","0.0-234.0","","","2-1","10090","38","1","Testing","Stims/Figures/7-C-20-4.bmp","va:sha:sha","Down","38","4","14","6B","C1","C","86"
"","","approach-retreat","235","2426924","0.0-235.0","","","2-1","5518","40","1","Testing","Stims/Figures/128-C-30-3.bmp","vasha:va","Up","40","4","15","6B","C1","C","87"
"","","approach-retreat","236","2432523","0.0-236.0","","","2-1","4092","40","0","Testing","Stims/Figures/144-J-10-3.bmp","sa:haza","Up","38","4","16","6B","C2","C","88"
"","","approach-retreat","237","2453088","0.0-237.0","","","2-1","19057","39","0","Testing","Stims/Figures/57-C-30-1.bmp","fa:sha:va","Right","37","4","17","6B","C1","C","89"
"","","approach-retreat","238","2464227","0.0-238.0","","","2-1","9626","37","0","Testing","Stims/Figures/71-C-30-1.bmp","vafa:sha","Left","39","4","18","6B","C1","C","90"
"","","approach-retreat","239","2471655","0.0-239.0","","","2-1","5916","39","0","Testing","Stims/Figures/118-J-0-2.bmp","sa:sa:za","Left","37","4","19","6B","C2","C","91"
"","","approach-retreat","240","2477805","0.0-240.0","","","2-1","4639","38","1","Testing","Stims/Figures/118-C-20-2.bmp","fafasha","Down","38","4","20","6B","C1","C","92"
"","","approach-retreat","241","2483416","0.0-241.0","","","2-1","4101","39","1","Testing","Stims/Figures/139-C-20-2.bmp","vasha:sha","Left","39","4","21","6B","C1","C","93"
"","","approach-retreat","242","2488952","0.0-242.0","","","2-1","4028","40","1","Testing","Stims/Figures/102-C-20-4.bmp","va:fa:sha","Up","40","4","22","6B","C1","C","94"
"","","approach-retreat","243","2501238","0.0-243.0","","","2-1","10776","37","0","Testing","Stims/Figures/57-J-0-1.bmp","sa:sa:ha","Right","39","4","23","6B","C2","C","95"
"","","approach-retreat","244","2508900","0.0-244.0","","","2-1","6153","38","0","Testing","Stims/Figures/128-J-10-3.bmp","zasaha","Down","40","4","24","6B","C2","C","96"
"254997","","survey-text","245","2763905","0.0-245.0","","{""Q0"":""0152/2018""}","","","","","","","","","","","","","","",""
