"rt","key_press","trial_type","trial_index","time_elapsed","internal_node_id","view_history","responses","Id","Rt","ResKeyCode","ResCorr","TrialType2","Image","Label","Location","CorrectResponse","Block","BlockTrial","Condition","LabelType","Subcondition","trialNum"
"47186","32","text","0","47190","0.0-0.0-0.0","","","","","","","","","","","","","","","","",""
"158950","","instructions","1","206142","0.0-1.0","[{""page_index"":0,""viewing_time"":158949}]","","","","","","","","","","","","","","","",""
"34587","","survey-multi-choice","2","240766","0.0-2.0","","{""Q0"":""Da"",""Q1"":""Da"",""Q2"":""Da"",""Q3"":""Da"",""Q4"":""Da"",""Q5"":""Da""}","","","","","","","","","","","","","","",""
"","","bio","3","256971","0.0-3.0","","{""age"":""19"",""gender"":""f"",""specify"":""""}","","","","","","","","","","","","","","",""
"","","approach-retreat","4","266374","0.0-4.0","","","3-5","7893","37","1","Training","Stims/Figures/27-C-30-1.bmp","fafava","Left","37","1","1","6B","C1","J","1"
"","","approach-retreat","5","272876","0.0-5.0","","","3-5","4993","39","0","Training","Stims/Figures/102-C-20-4.bmp","vafava","Left","37","1","2","6B","C1","J","2"
"","","approach-retreat","6","279674","0.0-6.0","","","3-5","5291","39","1","Training","Stims/Figures/57-J-0-1.bmp","sa:saha","Left","39","1","3","6B","C2","J","3"
"","","approach-retreat","7","286163","0.0-7.0","","","3-5","4980","38","0","Training","Stims/Figures/102-J-10-4.bmp","zahaza","Up","40","1","4","6B","C2","J","4"
"","","approach-retreat","8","292082","0.0-8.0","","","3-5","4410","40","1","Training","Stims/Figures/74-J-10-4.bmp","zasa:ha","Up","40","1","5","6B","C2","J","5"
"","","approach-retreat","9","297865","0.0-9.0","","","3-5","4276","40","0","Training","Stims/Figures/85-C-20-2.bmp","va:shasha","Up","38","1","6","6B","C1","J","6"
"","","approach-retreat","10","304910","0.0-10.0","","","3-5","5538","40","1","Training","Stims/Figures/144-C-30-3.bmp","va:fa:sha","Down","40","1","7","6B","C1","J","7"
"","","approach-retreat","11","311013","0.0-11.0","","","3-5","4595","40","1","Training","Stims/Figures/27-J-0-1.bmp","sa:ha:ha","Up","40","1","8","6B","C2","J","8"
"","","approach-retreat","12","317864","0.0-12.0","","","3-5","5341","40","1","Training","Stims/Figures/44-C-30-3.bmp","va:sha:va","Down","40","1","9","6B","C1","J","9"
"","","approach-retreat","13","325170","0.0-13.0","","","3-5","5798","37","1","Training","Stims/Figures/44-J-10-3.bmp","za:sa:ha","Right","37","1","10","6B","C2","J","10"
"","","approach-retreat","14","333108","0.0-14.0","","","3-5","6429","39","0","Training","Stims/Figures/84-J-0-2.bmp","sasaza","Right","37","1","11","6B","C2","J","11"
"","","approach-retreat","15","339294","0.0-15.0","","","3-5","4677","37","1","Training","Stims/Figures/84-C-20-2.bmp","fasha:sha","Left","37","1","12","6B","C1","J","12"
"","","approach-retreat","16","346674","0.0-16.0","","","3-5","5871","40","1","Training","Stims/Figures/57-C-30-1.bmp","va:fasha","Down","40","1","13","6B","C1","J","13"
"","","approach-retreat","17","354910","0.0-17.0","","","3-5","6729","40","1","Training","Stims/Figures/74-C-20-4.bmp","fafasha","Down","40","1","14","6B","C1","J","14"
"","","approach-retreat","18","363255","0.0-18.0","","","3-5","6837","37","1","Training","Stims/Figures/144-J-10-3.bmp","za:haha","Right","37","1","15","6B","C2","J","15"
"","","approach-retreat","19","369404","0.0-19.0","","","3-5","4641","39","0","Training","Stims/Figures/85-J-0-2.bmp","sasa:ha","Right","37","1","16","6B","C2","J","16"
"","","approach-retreat","20","376835","0.0-20.0","","","3-5","5924","37","0","Training","Stims/Figures/102-J-10-4.bmp","zahaza","Left","39","2","1","6B","C2","J","17"
"","","approach-retreat","21","384621","0.0-21.0","","","3-5","6279","40","0","Training","Stims/Figures/74-J-10-4.bmp","zasa:ha","Down","38","2","2","6B","C2","J","18"
"","","approach-retreat","22","391793","0.0-22.0","","","3-5","5664","37","1","Training","Stims/Figures/44-J-10-3.bmp","za:sa:ha","Right","37","2","3","6B","C2","J","19"
"","","approach-retreat","23","397552","0.0-23.0","","","3-5","4251","39","1","Training","Stims/Figures/27-C-30-1.bmp","fafava","Right","39","2","4","6B","C1","J","20"
"","","approach-retreat","24","404055","0.0-24.0","","","3-5","4996","38","1","Training","Stims/Figures/85-C-20-2.bmp","va:shasha","Up","38","2","5","6B","C1","J","21"
"","","approach-retreat","25","410036","0.0-25.0","","","3-5","4473","37","1","Training","Stims/Figures/84-C-20-2.bmp","fasha:sha","Left","37","2","6","6B","C1","J","22"
"","","approach-retreat","26","417278","0.0-26.0","","","3-5","5732","39","0","Training","Stims/Figures/44-C-30-3.bmp","va:sha:va","Left","37","2","7","6B","C1","J","23"
"","","approach-retreat","27","423919","0.0-27.0","","","3-5","5134","38","0","Training","Stims/Figures/102-C-20-4.bmp","vafava","Down","40","2","8","6B","C1","J","24"
"","","approach-retreat","28","429707","0.0-28.0","","","3-5","4280","39","0","Training","Stims/Figures/84-J-0-2.bmp","sasaza","Right","37","2","9","6B","C2","J","25"
"","","approach-retreat","29","436771","0.0-29.0","","","3-5","5555","40","0","Training","Stims/Figures/57-J-0-1.bmp","sa:saha","Down","38","2","10","6B","C2","J","26"
"","","approach-retreat","30","442428","0.0-30.0","","","3-5","4148","38","1","Training","Stims/Figures/85-J-0-2.bmp","sasa:ha","Down","38","2","11","6B","C2","J","27"
"","","approach-retreat","31","449056","0.0-31.0","","","3-5","5119","38","1","Training","Stims/Figures/144-C-30-3.bmp","va:fa:sha","Up","38","2","12","6B","C1","J","28"
"","","approach-retreat","32","455199","0.0-32.0","","","3-5","4635","40","1","Training","Stims/Figures/144-J-10-3.bmp","za:haha","Up","40","2","13","6B","C2","J","29"
"","","approach-retreat","33","460667","0.0-33.0","","","3-5","3960","40","0","Training","Stims/Figures/57-C-30-1.bmp","va:fasha","Up","38","2","14","6B","C1","J","30"
"","","approach-retreat","34","467876","0.0-34.0","","","3-5","5702","39","1","Training","Stims/Figures/27-J-0-1.bmp","sa:ha:ha","Left","39","2","15","6B","C2","J","31"
"","","approach-retreat","35","475482","0.0-35.0","","","3-5","6099","37","0","Training","Stims/Figures/74-C-20-4.bmp","fafasha","Right","39","2","16","6B","C1","J","32"
"","","approach-retreat","36","481201","0.0-36.0","","","3-5","4212","40","1","Training","Stims/Figures/27-J-0-1.bmp","sa:ha:ha","Up","40","3","1","6B","C2","J","33"
"","","approach-retreat","37","487221","0.0-37.0","","","3-5","4509","37","0","Training","Stims/Figures/44-J-10-3.bmp","za:sa:ha","Left","39","3","2","6B","C2","J","34"
"","","approach-retreat","38","493501","0.0-38.0","","","3-5","4769","39","1","Training","Stims/Figures/144-J-10-3.bmp","za:haha","Left","39","3","3","6B","C2","J","35"
"","","approach-retreat","39","499080","0.0-39.0","","","3-5","4071","37","0","Training","Stims/Figures/74-C-20-4.bmp","fafasha","Right","39","3","4","6B","C1","J","36"
"","","approach-retreat","40","504822","0.0-40.0","","","3-5","4234","39","0","Training","Stims/Figures/27-C-30-1.bmp","fafava","Left","37","3","5","6B","C1","J","37"
"","","approach-retreat","41","511599","0.0-41.0","","","3-5","5268","38","0","Training","Stims/Figures/144-C-30-3.bmp","va:fa:sha","Down","40","3","6","6B","C1","J","38"
"","","approach-retreat","42","519687","0.0-42.0","","","3-5","6580","37","1","Training","Stims/Figures/85-C-20-2.bmp","va:shasha","Left","37","3","7","6B","C1","J","39"
"","","approach-retreat","43","528034","0.0-43.0","","","3-5","6838","37","0","Training","Stims/Figures/84-C-20-2.bmp","fasha:sha","Right","39","3","8","6B","C1","J","40"
"","","approach-retreat","44","534257","0.0-44.0","","","3-5","4716","38","0","Training","Stims/Figures/57-C-30-1.bmp","va:fasha","Down","40","3","9","6B","C1","J","41"
"","","approach-retreat","45","540130","0.0-45.0","","","3-5","4366","37","0","Training","Stims/Figures/44-C-30-3.bmp","va:sha:va","Right","39","3","10","6B","C1","J","42"
"","","approach-retreat","46","547983","0.0-46.0","","","3-5","6343","40","1","Training","Stims/Figures/57-J-0-1.bmp","sa:saha","Up","40","3","11","6B","C2","J","43"
"","","approach-retreat","47","556053","0.0-47.0","","","3-5","6562","40","0","Training","Stims/Figures/102-J-10-4.bmp","zahaza","Down","38","3","12","6B","C2","J","44"
"","","approach-retreat","48","563034","0.0-48.0","","","3-5","5474","39","0","Training","Stims/Figures/74-J-10-4.bmp","zasa:ha","Right","37","3","13","6B","C2","J","45"
"","","approach-retreat","49","569076","0.0-49.0","","","3-5","4535","40","0","Training","Stims/Figures/85-J-0-2.bmp","sasa:ha","Down","38","3","14","6B","C2","J","46"
"","","approach-retreat","50","574784","0.0-50.0","","","3-5","4201","40","1","Training","Stims/Figures/84-J-0-2.bmp","sasaza","Up","40","3","15","6B","C2","J","47"
"","","approach-retreat","51","580698","0.0-51.0","","","3-5","4404","38","1","Training","Stims/Figures/102-C-20-4.bmp","vafava","Up","38","3","16","6B","C1","J","48"
"","","approach-retreat","52","587718","0.0-52.0","","","3-5","5512","37","1","Training","Stims/Figures/44-C-30-3.bmp","va:sha:va","Left","37","4","1","6B","C1","J","49"
"","","approach-retreat","53","593685","0.0-53.0","","","3-5","4460","39","1","Training","Stims/Figures/144-C-30-3.bmp","va:fa:sha","Right","39","4","2","6B","C1","J","50"
"","","approach-retreat","54","599397","0.0-54.0","","","3-5","4204","37","1","Training","Stims/Figures/57-J-0-1.bmp","sa:saha","Right","37","4","3","6B","C2","J","51"
"","","approach-retreat","55","605042","0.0-55.0","","","3-5","4139","40","0","Training","Stims/Figures/102-J-10-4.bmp","zahaza","Down","38","4","4","6B","C2","J","52"
"","","approach-retreat","56","611109","0.0-56.0","","","3-5","4558","40","1","Training","Stims/Figures/27-J-0-1.bmp","sa:ha:ha","Up","40","4","5","6B","C2","J","53"
"","","approach-retreat","57","617004","0.0-57.0","","","3-5","4388","37","1","Training","Stims/Figures/74-C-20-4.bmp","fafasha","Left","37","4","6","6B","C1","J","54"
"","","approach-retreat","58","622620","0.0-58.0","","","3-5","4108","40","1","Training","Stims/Figures/84-J-0-2.bmp","sasaza","Up","40","4","7","6B","C2","J","55"
"","","approach-retreat","59","628125","0.0-59.0","","","3-5","3997","40","1","Training","Stims/Figures/85-J-0-2.bmp","sasa:ha","Up","40","4","8","6B","C2","J","56"
"","","approach-retreat","60","633980","0.0-60.0","","","3-5","4347","40","1","Training","Stims/Figures/27-C-30-1.bmp","fafava","Down","40","4","9","6B","C1","J","57"
"","","approach-retreat","61","641178","0.0-61.0","","","3-5","5690","39","1","Training","Stims/Figures/102-C-20-4.bmp","vafava","Right","39","4","10","6B","C1","J","58"
"","","approach-retreat","62","653069","0.0-62.0","","","3-5","10381","38","1","Training","Stims/Figures/57-C-30-1.bmp","va:fasha","Up","38","4","11","6B","C1","J","59"
"","","approach-retreat","63","659265","0.0-63.0","","","3-5","4689","38","1","Training","Stims/Figures/44-J-10-3.bmp","za:sa:ha","Down","38","4","12","6B","C2","J","60"
"","","approach-retreat","64","665252","0.0-64.0","","","3-5","4478","39","1","Training","Stims/Figures/84-C-20-2.bmp","fasha:sha","Right","39","4","13","6B","C1","J","61"
"","","approach-retreat","65","671201","0.0-65.0","","","3-5","4443","37","0","Training","Stims/Figures/144-J-10-3.bmp","za:haha","Left","39","4","14","6B","C2","J","62"
"","","approach-retreat","66","678014","0.0-66.0","","","3-5","5304","40","1","Training","Stims/Figures/85-C-20-2.bmp","va:shasha","Down","40","4","15","6B","C1","J","63"
"","","approach-retreat","67","683745","0.0-67.0","","","3-5","4223","39","1","Training","Stims/Figures/74-J-10-4.bmp","zasa:ha","Left","39","4","16","6B","C2","J","64"
"","","approach-retreat","68","689498","0.0-68.0","","","3-5","4246","38","1","Training","Stims/Figures/144-J-10-3.bmp","za:haha","Down","38","5","1","6B","C2","J","65"
"","","approach-retreat","69","696256","0.0-69.0","","","3-5","5250","39","1","Training","Stims/Figures/102-J-10-4.bmp","zahaza","Left","39","5","2","6B","C2","J","66"
"","","approach-retreat","70","702132","0.0-70.0","","","3-5","4368","38","1","Training","Stims/Figures/74-J-10-4.bmp","zasa:ha","Down","38","5","3","6B","C2","J","67"
"","","approach-retreat","71","708115","0.0-71.0","","","3-5","4474","40","1","Training","Stims/Figures/44-J-10-3.bmp","za:sa:ha","Up","40","5","4","6B","C2","J","68"
"","","approach-retreat","72","713956","0.0-72.0","","","3-5","4333","37","1","Training","Stims/Figures/27-J-0-1.bmp","sa:ha:ha","Right","37","5","5","6B","C2","J","69"
"","","approach-retreat","73","719956","0.0-73.0","","","3-5","4491","39","1","Training","Stims/Figures/84-J-0-2.bmp","sasaza","Left","39","5","6","6B","C2","J","70"
"","","approach-retreat","74","726098","0.0-74.0","","","3-5","4633","37","1","Training","Stims/Figures/27-C-30-1.bmp","fafava","Left","37","5","7","6B","C1","J","71"
"","","approach-retreat","75","733233","0.0-75.0","","","3-5","5626","40","0","Training","Stims/Figures/102-C-20-4.bmp","vafava","Up","38","5","8","6B","C1","J","72"
"","","approach-retreat","76","739080","0.0-76.0","","","3-5","4340","38","1","Training","Stims/Figures/84-C-20-2.bmp","fasha:sha","Up","38","5","9","6B","C1","J","73"
"","","approach-retreat","77","744996","0.0-77.0","","","3-5","4407","39","1","Training","Stims/Figures/44-C-30-3.bmp","va:sha:va","Right","39","5","10","6B","C1","J","74"
"","","approach-retreat","78","750888","0.0-78.0","","","3-5","4385","40","1","Training","Stims/Figures/57-C-30-1.bmp","va:fasha","Down","40","5","11","6B","C1","J","75"
"","","approach-retreat","79","756855","0.0-79.0","","","3-5","4459","38","1","Training","Stims/Figures/144-C-30-3.bmp","va:fa:sha","Up","38","5","12","6B","C1","J","76"
"","","approach-retreat","80","762586","0.0-80.0","","","3-5","4221","39","1","Training","Stims/Figures/85-C-20-2.bmp","va:shasha","Right","39","5","13","6B","C1","J","77"
"","","approach-retreat","81","768378","0.0-81.0","","","3-5","4285","39","0","Training","Stims/Figures/57-J-0-1.bmp","sa:saha","Right","37","5","14","6B","C2","J","78"
"","","approach-retreat","82","774332","0.0-82.0","","","3-5","4447","40","1","Training","Stims/Figures/74-C-20-4.bmp","fafasha","Down","40","5","15","6B","C1","J","79"
"","","approach-retreat","83","780119","0.0-83.0","","","3-5","4278","39","1","Training","Stims/Figures/85-J-0-2.bmp","sasa:ha","Left","39","5","16","6B","C2","J","80"
"","","approach-retreat","84","785835","0.0-84.0","","","3-5","4210","39","1","Training","Stims/Figures/27-J-0-1.bmp","sa:ha:ha","Left","39","6","1","6B","C2","J","81"
"","","approach-retreat","85","791887","0.0-85.0","","","3-5","4541","39","1","Training","Stims/Figures/84-C-20-2.bmp","fasha:sha","Right","39","6","2","6B","C1","J","82"
"","","approach-retreat","86","799295","0.0-86.0","","","3-5","5898","39","1","Training","Stims/Figures/84-J-0-2.bmp","sasaza","Left","39","6","3","6B","C2","J","83"
"","","approach-retreat","87","805230","0.0-87.0","","","3-5","4427","39","1","Training","Stims/Figures/44-C-30-3.bmp","va:sha:va","Right","39","6","4","6B","C1","J","84"
"","","approach-retreat","88","811522","0.0-88.0","","","3-5","4782","37","1","Training","Stims/Figures/74-C-20-4.bmp","fafasha","Left","37","6","5","6B","C1","J","85"
"","","approach-retreat","89","818508","0.0-89.0","","","3-5","5478","37","1","Training","Stims/Figures/44-J-10-3.bmp","za:sa:ha","Right","37","6","6","6B","C2","J","86"
"","","approach-retreat","90","824729","0.0-90.0","","","3-5","4713","38","1","Training","Stims/Figures/144-J-10-3.bmp","za:haha","Down","38","6","7","6B","C2","J","87"
"","","approach-retreat","91","831228","0.0-91.0","","","3-5","4992","39","1","Training","Stims/Figures/57-C-30-1.bmp","va:fasha","Right","39","6","8","6B","C1","J","88"
"","","approach-retreat","92","837009","0.0-92.0","","","3-5","4273","40","1","Training","Stims/Figures/74-J-10-4.bmp","zasa:ha","Up","40","6","9","6B","C2","J","89"
"","","approach-retreat","93","843015","0.0-93.0","","","3-5","4497","40","1","Training","Stims/Figures/144-C-30-3.bmp","va:fa:sha","Down","40","6","10","6B","C1","J","90"
"","","approach-retreat","94","848855","0.0-94.0","","","3-5","4331","38","1","Training","Stims/Figures/85-J-0-2.bmp","sasa:ha","Down","38","6","11","6B","C2","J","91"
"","","approach-retreat","95","855545","0.0-95.0","","","3-5","5181","40","1","Training","Stims/Figures/102-C-20-4.bmp","vafava","Down","40","6","12","6B","C1","J","92"
"","","approach-retreat","96","861923","0.0-96.0","","","3-5","4869","38","0","Training","Stims/Figures/102-J-10-4.bmp","zahaza","Up","40","6","13","6B","C2","J","93"
"","","approach-retreat","97","870513","0.0-97.0","","","3-5","7082","38","1","Training","Stims/Figures/27-C-30-1.bmp","fafava","Up","38","6","14","6B","C1","J","94"
"","","approach-retreat","98","878675","0.0-98.0","","","3-5","6655","38","1","Training","Stims/Figures/85-C-20-2.bmp","va:shasha","Up","38","6","15","6B","C1","J","95"
"","","approach-retreat","99","884875","0.0-99.0","","","3-5","4692","39","1","Training","Stims/Figures/57-J-0-1.bmp","sa:saha","Left","39","6","16","6B","C2","J","96"
"","","approach-retreat","100","893772","0.0-100.0","","","3-5","7389","38","1","Training","Stims/Figures/84-C-20-2.bmp","fasha:sha","Up","38","7","1","6B","C1","J","97"
"","","approach-retreat","101","899677","0.0-101.0","","","3-5","4399","38","1","Training","Stims/Figures/85-J-0-2.bmp","sasa:ha","Down","38","7","2","6B","C2","J","98"
"","","approach-retreat","102","905519","0.0-102.0","","","3-5","4334","39","1","Training","Stims/Figures/85-C-20-2.bmp","va:shasha","Right","39","7","3","6B","C1","J","99"
"","","approach-retreat","103","911371","0.0-103.0","","","3-5","4344","38","1","Training","Stims/Figures/84-J-0-2.bmp","sasaza","Down","38","7","4","6B","C2","J","100"
"","","approach-retreat","104","917200","0.0-104.0","","","3-5","4320","40","1","Training","Stims/Figures/74-J-10-4.bmp","zasa:ha","Up","40","7","5","6B","C2","J","101"
"","","approach-retreat","105","923016","0.0-105.0","","","3-5","4309","37","1","Training","Stims/Figures/27-C-30-1.bmp","fafava","Left","37","7","6","6B","C1","J","102"
"","","approach-retreat","106","929442","0.0-106.0","","","3-5","4918","38","1","Training","Stims/Figures/144-C-30-3.bmp","va:fa:sha","Up","38","7","7","6B","C1","J","103"
"","","approach-retreat","107","935376","0.0-107.0","","","3-5","4425","39","1","Training","Stims/Figures/44-J-10-3.bmp","za:sa:ha","Left","39","7","8","6B","C2","J","104"
"","","approach-retreat","108","941723","0.0-108.0","","","3-5","4840","37","1","Training","Stims/Figures/44-C-30-3.bmp","va:sha:va","Left","37","7","9","6B","C1","J","105"
"","","approach-retreat","109","948210","0.0-109.0","","","3-5","4980","38","1","Training","Stims/Figures/144-J-10-3.bmp","za:haha","Down","38","7","10","6B","C2","J","106"
"","","approach-retreat","110","957069","0.0-110.0","","","3-5","7351","39","0","Training","Stims/Figures/74-C-20-4.bmp","fafasha","Left","37","7","11","6B","C1","J","107"
"","","approach-retreat","111","963369","0.0-111.0","","","3-5","4791","37","1","Training","Stims/Figures/102-J-10-4.bmp","zahaza","Right","37","7","12","6B","C2","J","108"
"","","approach-retreat","112","969397","0.0-112.0","","","3-5","4520","39","1","Training","Stims/Figures/57-C-30-1.bmp","va:fasha","Right","39","7","13","6B","C1","J","109"
"","","approach-retreat","113","975389","0.0-113.0","","","3-5","4485","38","1","Training","Stims/Figures/102-C-20-4.bmp","vafava","Up","38","7","14","6B","C1","J","110"
"","","approach-retreat","114","984397","0.0-114.0","","","3-5","7503","38","1","Training","Stims/Figures/57-J-0-1.bmp","sa:saha","Down","38","7","15","6B","C2","J","111"
"","","approach-retreat","115","990947","0.0-115.0","","","3-5","5041","37","1","Training","Stims/Figures/27-J-0-1.bmp","sa:ha:ha","Right","37","7","16","6B","C2","J","112"
"","","approach-retreat","116","1000446","0.0-116.0","","","3-5","7989","39","1","Training","Stims/Figures/74-C-20-4.bmp","fafasha","Right","39","8","1","6B","C1","J","113"
"","","approach-retreat","117","1007237","0.0-117.0","","","3-5","5284","38","1","Training","Stims/Figures/27-J-0-1.bmp","sa:ha:ha","Down","38","8","2","6B","C2","J","114"
"","","approach-retreat","118","1013700","0.0-118.0","","","3-5","4955","37","1","Training","Stims/Figures/44-J-10-3.bmp","za:sa:ha","Right","37","8","3","6B","C2","J","115"
"","","approach-retreat","119","1019877","0.0-119.0","","","3-5","4668","38","1","Training","Stims/Figures/84-J-0-2.bmp","sasaza","Down","38","8","4","6B","C2","J","116"
"","","approach-retreat","120","1028225","0.0-120.0","","","3-5","6840","38","1","Training","Stims/Figures/102-C-20-4.bmp","vafava","Up","38","8","5","6B","C1","J","117"
"","","approach-retreat","121","1035552","0.0-121.0","","","3-5","5817","37","1","Training","Stims/Figures/57-C-30-1.bmp","va:fasha","Left","37","8","6","6B","C1","J","118"
"","","approach-retreat","122","1043131","0.0-122.0","","","3-5","6072","40","1","Training","Stims/Figures/102-J-10-4.bmp","zahaza","Up","40","8","7","6B","C2","J","119"
"","","approach-retreat","123","1050043","0.0-123.0","","","3-5","5404","39","1","Training","Stims/Figures/44-C-30-3.bmp","va:sha:va","Right","39","8","8","6B","C1","J","120"
"","","approach-retreat","124","1056875","0.0-124.0","","","3-5","5324","40","1","Training","Stims/Figures/27-C-30-1.bmp","fafava","Down","40","8","9","6B","C1","J","121"
"","","approach-retreat","125","1063193","0.0-125.0","","","3-5","4808","40","1","Training","Stims/Figures/85-J-0-2.bmp","sasa:ha","Up","40","8","10","6B","C2","J","122"
"","","approach-retreat","126","1072623","0.0-126.0","","","3-5","7921","38","1","Training","Stims/Figures/85-C-20-2.bmp","va:shasha","Up","38","8","11","6B","C1","J","123"
"","","approach-retreat","127","1079591","0.0-127.0","","","3-5","5459","39","1","Training","Stims/Figures/57-J-0-1.bmp","sa:saha","Left","39","8","12","6B","C2","J","124"
"","","approach-retreat","128","1086023","0.0-128.0","","","3-5","4924","39","1","Training","Stims/Figures/74-J-10-4.bmp","zasa:ha","Left","39","8","13","6B","C2","J","125"
"","","approach-retreat","129","1093541","0.0-129.0","","","3-5","6010","37","1","Training","Stims/Figures/144-C-30-3.bmp","va:fa:sha","Left","37","8","14","6B","C1","J","126"
"","","approach-retreat","130","1100412","0.0-130.0","","","3-5","5365","37","1","Training","Stims/Figures/144-J-10-3.bmp","za:haha","Right","37","8","15","6B","C2","J","127"
"","","approach-retreat","131","1109099","0.0-131.0","","","3-5","7178","40","1","Training","Stims/Figures/84-C-20-2.bmp","fasha:sha","Down","40","8","16","6B","C1","J","128"
"","","approach-retreat","132","1115333","0.0-132.0","","","3-5","4727","37","1","Training","Stims/Figures/44-C-30-3.bmp","va:sha:va","Left","37","9","1","6B","C1","J","129"
"","","approach-retreat","133","1121150","0.0-133.0","","","3-5","4307","37","1","Training","Stims/Figures/85-C-20-2.bmp","va:shasha","Left","37","9","2","6B","C1","J","130"
"","","approach-retreat","134","1131538","0.0-134.0","","","3-5","8882","37","1","Training","Stims/Figures/102-J-10-4.bmp","zahaza","Right","37","9","3","6B","C2","J","131"
"","","approach-retreat","135","1137777","0.0-135.0","","","3-5","4731","40","1","Training","Stims/Figures/57-C-30-1.bmp","va:fasha","Down","40","9","4","6B","C1","J","132"
"","","approach-retreat","136","1144258","0.0-136.0","","","3-5","4973","37","1","Training","Stims/Figures/27-C-30-1.bmp","fafava","Left","37","9","5","6B","C1","J","133"
"","","approach-retreat","137","1150303","0.0-137.0","","","3-5","4538","39","1","Training","Stims/Figures/27-J-0-1.bmp","sa:ha:ha","Left","39","9","6","6B","C2","J","134"
"","","approach-retreat","138","1160027","0.0-138.0","","","3-5","8217","38","1","Training","Stims/Figures/84-C-20-2.bmp","fasha:sha","Up","38","9","7","6B","C1","J","135"
"","","approach-retreat","139","1166238","0.0-139.0","","","3-5","4703","38","1","Training","Stims/Figures/57-J-0-1.bmp","sa:saha","Down","38","9","8","6B","C2","J","136"
"","","approach-retreat","140","1174347","0.0-140.0","","","3-5","6601","37","1","Training","Stims/Figures/74-J-10-4.bmp","zasa:ha","Right","37","9","9","6B","C2","J","137"
"","","approach-retreat","141","1181423","0.0-141.0","","","3-5","5566","40","1","Training","Stims/Figures/144-J-10-3.bmp","za:haha","Up","40","9","10","6B","C2","J","138"
"","","approach-retreat","142","1187901","0.0-142.0","","","3-5","4971","40","1","Training","Stims/Figures/74-C-20-4.bmp","fafasha","Down","40","9","11","6B","C1","J","139"
"","","approach-retreat","143","1194913","0.0-143.0","","","3-5","5503","38","1","Training","Stims/Figures/144-C-30-3.bmp","va:fa:sha","Up","38","9","12","6B","C1","J","140"
"","","approach-retreat","144","1200849","0.0-144.0","","","3-5","4428","37","1","Training","Stims/Figures/44-J-10-3.bmp","za:sa:ha","Right","37","9","13","6B","C2","J","141"
"","","approach-retreat","145","1207876","0.0-145.0","","","3-5","5517","37","1","Training","Stims/Figures/85-J-0-2.bmp","sasa:ha","Right","37","9","14","6B","C2","J","142"
"","","approach-retreat","146","1214195","0.0-146.0","","","3-5","4810","38","1","Training","Stims/Figures/102-C-20-4.bmp","vafava","Up","38","9","15","6B","C1","J","143"
"","","approach-retreat","147","1220371","0.0-147.0","","","3-5","4668","38","1","Training","Stims/Figures/84-J-0-2.bmp","sasaza","Down","38","9","16","6B","C2","J","144"
"18763","","instructions","148","1239135","0.0-148.0","[{""page_index"":0,""viewing_time"":18763}]","","","","","","","","","","","","","","","",""
"","","approach-retreat","149","1245666","0.0-149.0","","","3-5","5026","37","1","Testing","Stims/Figures/57-C-30-1.bmp","va:fasha","Left","37","1","1","6B","C1","J","1"
"","","approach-retreat","150","1253359","0.0-150.0","","","3-5","6184","39","1","Testing","Stims/Figures/111-J-10-3.bmp","sasaha","Left","39","1","2","6B","C2","J","2"
"","","approach-retreat","151","1266180","0.0-151.0","","","3-5","11313","38","1","Testing","Stims/Figures/102-J-10-4.bmp","zahaza","Down","38","1","3","6B","C2","J","3"
"","","approach-retreat","152","1271864","0.0-152.0","","","3-5","4178","39","1","Testing","Stims/Figures/44-J-10-3.bmp","za:sa:ha","Left","39","1","4","6B","C2","J","4"
"","","approach-retreat","153","1277847","0.0-153.0","","","3-5","4477","38","1","Testing","Stims/Figures/87-C-20-4.bmp","fa:fa:sha","Up","38","1","5","6B","C1","J","5"
"","","approach-retreat","154","1284396","0.0-154.0","","","3-5","5041","39","1","Testing","Stims/Figures/118-C-20-2.bmp","fa:sha:sha","Right","39","1","6","6B","C1","J","6"
"","","approach-retreat","155","1301428","0.0-155.0","","","3-5","15525","40","1","Testing","Stims/Figures/87-J-10-4.bmp","saha:ha","Up","40","1","7","6B","C2","J","7"
"","","approach-retreat","156","1309539","0.0-156.0","","","3-5","6605","40","1","Testing","Stims/Figures/71-J-0-1.bmp","zahaha","Up","40","1","8","6B","C2","J","8"
"","","approach-retreat","157","1316806","0.0-157.0","","","3-5","5761","40","1","Testing","Stims/Figures/84-J-0-2.bmp","sasaza","Up","40","1","9","6B","C2","J","9"
"","","approach-retreat","158","1322448","0.0-158.0","","","3-5","4134","39","1","Testing","Stims/Figures/71-C-30-1.bmp","fa:shava","Right","39","1","10","6B","C1","J","10"
"","","approach-retreat","159","1328632","0.0-159.0","","","3-5","4676","38","1","Testing","Stims/Figures/118-J-0-2.bmp","zasaha","Down","38","1","11","6B","C2","J","11"
"","","approach-retreat","160","1334839","0.0-160.0","","","3-5","4701","37","1","Testing","Stims/Figures/74-J-10-4.bmp","zasa:ha","Right","37","1","12","6B","C2","J","12"
"","","approach-retreat","161","1340640","0.0-161.0","","","3-5","4294","40","1","Testing","Stims/Figures/44-C-30-3.bmp","va:sha:va","Down","40","1","13","6B","C1","J","13"
"","","approach-retreat","162","1346540","0.0-162.0","","","3-5","4394","37","1","Testing","Stims/Figures/85-C-20-2.bmp","va:shasha","Left","37","1","14","6B","C1","J","14"
"","","approach-retreat","163","1352381","0.0-163.0","","","3-5","4334","38","1","Testing","Stims/Figures/144-C-30-3.bmp","va:fa:sha","Up","38","1","15","6B","C1","J","15"
"","","approach-retreat","164","1358183","0.0-164.0","","","3-5","4294","37","1","Testing","Stims/Figures/85-J-0-2.bmp","sasa:ha","Right","37","1","16","6B","C2","J","16"
"","","approach-retreat","165","1364868","0.0-165.0","","","3-5","5176","40","1","Testing","Stims/Figures/74-C-20-4.bmp","fafasha","Down","40","1","17","6B","C1","J","17"
"","","approach-retreat","166","1370976","0.0-166.0","","","3-5","4602","37","1","Testing","Stims/Figures/111-C-30-3.bmp","vafa:va","Left","37","1","18","6B","C1","J","18"
"","","approach-retreat","167","1380371","0.0-167.0","","","3-5","7888","40","1","Testing","Stims/Figures/27-C-30-1.bmp","fafava","Down","40","1","19","6B","C1","J","19"
"","","approach-retreat","168","1386489","0.0-168.0","","","3-5","4611","39","1","Testing","Stims/Figures/102-C-20-4.bmp","vafava","Right","39","1","20","6B","C1","J","20"
"","","approach-retreat","169","1392495","0.0-169.0","","","3-5","4498","38","1","Testing","Stims/Figures/57-J-0-1.bmp","sa:saha","Down","38","1","21","6B","C2","J","21"
"","","approach-retreat","170","1398390","0.0-170.0","","","3-5","4389","40","1","Testing","Stims/Figures/27-J-0-1.bmp","sa:ha:ha","Up","40","1","22","6B","C2","J","22"
"","","approach-retreat","171","1407348","0.0-171.0","","","3-5","7449","37","1","Testing","Stims/Figures/84-C-20-2.bmp","fasha:sha","Left","37","1","23","6B","C1","J","23"
"","","approach-retreat","172","1413764","0.0-172.0","","","3-5","4908","37","1","Testing","Stims/Figures/144-J-10-3.bmp","za:haha","Right","37","1","24","6B","C2","J","24"
"","","approach-retreat","173","1422660","0.0-173.0","","","3-5","7390","38","1","Testing","Stims/Figures/44-J-10-3.bmp","za:sa:ha","Down","38","2","1","6B","C2","J","25"
"","","approach-retreat","174","1428963","0.0-174.0","","","3-5","4795","40","1","Testing","Stims/Figures/102-C-20-4.bmp","vafava","Down","40","2","2","6B","C1","J","26"
"","","approach-retreat","175","1435587","0.0-175.0","","","3-5","5120","39","1","Testing","Stims/Figures/85-C-20-2.bmp","va:shasha","Right","39","2","3","6B","C1","J","27"
"","","approach-retreat","176","1445636","0.0-176.0","","","3-5","8543","39","1","Testing","Stims/Figures/87-J-10-4.bmp","saha:ha","Left","39","2","4","6B","C2","J","28"
"","","approach-retreat","177","1451315","0.0-177.0","","","3-5","4168","40","1","Testing","Stims/Figures/111-J-10-3.bmp","sasaha","Up","40","2","5","6B","C2","J","29"
"","","approach-retreat","178","1457188","0.0-178.0","","","3-5","4366","37","1","Testing","Stims/Figures/27-C-30-1.bmp","fafava","Left","37","2","6","6B","C1","J","30"
"","","approach-retreat","179","1464618","0.0-179.0","","","3-5","5921","37","1","Testing","Stims/Figures/57-J-0-1.bmp","sa:saha","Right","37","2","7","6B","C2","J","31"
"","","approach-retreat","180","1470305","0.0-180.0","","","3-5","4180","37","1","Testing","Stims/Figures/44-C-30-3.bmp","va:sha:va","Left","37","2","8","6B","C1","J","32"
"","","approach-retreat","181","1476380","0.0-181.0","","","3-5","4567","37","1","Testing","Stims/Figures/144-J-10-3.bmp","za:haha","Right","37","2","9","6B","C2","J","33"
"","","approach-retreat","182","1482152","0.0-182.0","","","3-5","4264","38","1","Testing","Stims/Figures/57-C-30-1.bmp","va:fasha","Up","38","2","10","6B","C1","J","34"
"","","approach-retreat","183","1487952","0.0-183.0","","","3-5","4294","37","1","Testing","Stims/Figures/118-C-20-2.bmp","fa:sha:sha","Left","37","2","11","6B","C1","J","35"
"","","approach-retreat","184","1494042","0.0-184.0","","","3-5","4583","39","1","Testing","Stims/Figures/144-C-30-3.bmp","va:fa:sha","Right","39","2","12","6B","C1","J","36"
"","","approach-retreat","185","1499915","0.0-185.0","","","3-5","4367","40","1","Testing","Stims/Figures/27-J-0-1.bmp","sa:ha:ha","Up","40","2","13","6B","C2","J","37"
"","","approach-retreat","186","1505640","0.0-186.0","","","3-5","4216","40","1","Testing","Stims/Figures/71-C-30-1.bmp","fa:shava","Down","40","2","14","6B","C1","J","38"
"","","approach-retreat","187","1511456","0.0-187.0","","","3-5","4309","38","1","Testing","Stims/Figures/102-J-10-4.bmp","zahaza","Down","38","2","15","6B","C2","J","39"
"","","approach-retreat","188","1517359","0.0-188.0","","","3-5","4396","40","1","Testing","Stims/Figures/85-J-0-2.bmp","sasa:ha","Up","40","2","16","6B","C2","J","40"
"","","approach-retreat","189","1523147","0.0-189.0","","","3-5","4281","40","1","Testing","Stims/Figures/84-J-0-2.bmp","sasaza","Up","40","2","17","6B","C2","J","41"
"","","approach-retreat","190","1540787","0.0-190.0","","","3-5","16133","37","0","Testing","Stims/Figures/74-C-20-4.bmp","fafasha","Right","39","2","18","6B","C1","J","42"
"","","approach-retreat","191","1546585","0.0-191.0","","","3-5","4292","38","1","Testing","Stims/Figures/111-C-30-3.bmp","vafa:va","Up","38","2","19","6B","C1","J","43"
"","","approach-retreat","192","1552346","0.0-192.0","","","3-5","4252","39","1","Testing","Stims/Figures/71-J-0-1.bmp","zahaha","Left","39","2","20","6B","C2","J","44"
"","","approach-retreat","193","1559448","0.0-193.0","","","3-5","5595","38","1","Testing","Stims/Figures/74-J-10-4.bmp","zasa:ha","Down","38","2","21","6B","C2","J","45"
"","","approach-retreat","194","1567517","0.0-194.0","","","3-5","6562","40","1","Testing","Stims/Figures/87-C-20-4.bmp","fa:fa:sha","Down","40","2","22","6B","C1","J","46"
"","","approach-retreat","195","1574902","0.0-195.0","","","3-5","5878","37","1","Testing","Stims/Figures/118-J-0-2.bmp","zasaha","Right","37","2","23","6B","C2","J","47"
"","","approach-retreat","196","1581072","0.0-196.0","","","3-5","4662","37","1","Testing","Stims/Figures/84-C-20-2.bmp","fasha:sha","Left","37","2","24","6B","C1","J","48"
"","","approach-retreat","197","1587343","0.0-197.0","","","3-5","4764","39","1","Testing","Stims/Figures/71-C-30-1.bmp","fa:shava","Right","39","3","1","6B","C1","J","49"
"","","approach-retreat","198","1593940","0.0-198.0","","","3-5","5090","40","1","Testing","Stims/Figures/144-J-10-3.bmp","za:haha","Up","40","3","2","6B","C2","J","50"
"","","approach-retreat","199","1599872","0.0-199.0","","","3-5","4426","37","1","Testing","Stims/Figures/27-J-0-1.bmp","sa:ha:ha","Right","37","3","3","6B","C2","J","51"
"","","approach-retreat","200","1606532","0.0-200.0","","","3-5","5155","40","1","Testing","Stims/Figures/44-C-30-3.bmp","va:sha:va","Down","40","3","4","6B","C1","J","52"
"","","approach-retreat","201","1612448","0.0-201.0","","","3-5","4411","40","1","Testing","Stims/Figures/111-J-10-3.bmp","sasaha","Up","40","3","5","6B","C2","J","53"
"","","approach-retreat","202","1618604","0.0-202.0","","","3-5","4650","37","1","Testing","Stims/Figures/74-C-20-4.bmp","fafasha","Left","37","3","6","6B","C1","J","54"
"","","approach-retreat","203","1624340","0.0-203.0","","","3-5","4230","40","1","Testing","Stims/Figures/84-C-20-2.bmp","fasha:sha","Down","40","3","7","6B","C1","J","55"
"","","approach-retreat","204","1634093","0.0-204.0","","","3-5","8245","40","1","Testing","Stims/Figures/118-C-20-2.bmp","fa:sha:sha","Down","40","3","8","6B","C1","J","56"
"","","approach-retreat","205","1639878","0.0-205.0","","","3-5","4278","39","1","Testing","Stims/Figures/71-J-0-1.bmp","zahaha","Left","39","3","9","6B","C2","J","57"
"","","approach-retreat","206","1645486","0.0-206.0","","","3-5","4100","40","1","Testing","Stims/Figures/84-J-0-2.bmp","sasaza","Up","40","3","10","6B","C2","J","58"
"","","approach-retreat","207","1651375","0.0-207.0","","","3-5","4382","38","1","Testing","Stims/Figures/102-C-20-4.bmp","vafava","Up","38","3","11","6B","C1","J","59"
"","","approach-retreat","208","1657502","0.0-208.0","","","3-5","4622","37","1","Testing","Stims/Figures/118-J-0-2.bmp","zasaha","Right","37","3","12","6B","C2","J","60"
"","","approach-retreat","209","1663229","0.0-209.0","","","3-5","4221","38","1","Testing","Stims/Figures/85-J-0-2.bmp","sasa:ha","Down","38","3","13","6B","C2","J","61"
"","","approach-retreat","210","1668863","0.0-210.0","","","3-5","4127","38","1","Testing","Stims/Figures/102-J-10-4.bmp","zahaza","Down","38","3","14","6B","C2","J","62"
"","","approach-retreat","211","1675087","0.0-211.0","","","3-5","4716","37","1","Testing","Stims/Figures/144-C-30-3.bmp","va:fa:sha","Left","37","3","15","6B","C1","J","63"
"","","approach-retreat","212","1680812","0.0-212.0","","","3-5","4217","39","1","Testing","Stims/Figures/74-J-10-4.bmp","zasa:ha","Left","39","3","16","6B","C2","J","64"
"","","approach-retreat","213","1686833","0.0-213.0","","","3-5","4515","39","1","Testing","Stims/Figures/87-C-20-4.bmp","fa:fa:sha","Right","39","3","17","6B","C1","J","65"
"","","approach-retreat","214","1692678","0.0-214.0","","","3-5","4336","37","1","Testing","Stims/Figures/57-C-30-1.bmp","va:fasha","Left","37","3","18","6B","C1","J","66"
"","","approach-retreat","215","1698628","0.0-215.0","","","3-5","4444","37","1","Testing","Stims/Figures/27-C-30-1.bmp","fafava","Left","37","3","19","6B","C1","J","67"
"","","approach-retreat","216","1704481","0.0-216.0","","","3-5","4346","37","1","Testing","Stims/Figures/44-J-10-3.bmp","za:sa:ha","Right","37","3","20","6B","C2","J","68"
"","","approach-retreat","217","1711167","0.0-217.0","","","3-5","5178","38","1","Testing","Stims/Figures/85-C-20-2.bmp","va:shasha","Up","38","3","21","6B","C1","J","69"
"","","approach-retreat","218","1717364","0.0-218.0","","","3-5","4692","37","1","Testing","Stims/Figures/57-J-0-1.bmp","sa:saha","Right","37","3","22","6B","C2","J","70"
"","","approach-retreat","219","1725529","0.0-219.0","","","3-5","6657","40","1","Testing","Stims/Figures/87-J-10-4.bmp","saha:ha","Up","40","3","23","6B","C2","J","71"
"","","approach-retreat","220","1732511","0.0-220.0","","","3-5","5475","40","1","Testing","Stims/Figures/111-C-30-3.bmp","vafa:va","Down","40","3","24","6B","C1","J","72"
"","","approach-retreat","221","1738568","0.0-221.0","","","3-5","4550","38","1","Testing","Stims/Figures/102-J-10-4.bmp","zahaza","Down","38","4","1","6B","C2","J","73"
"","","approach-retreat","222","1746146","0.0-222.0","","","3-5","6073","40","1","Testing","Stims/Figures/85-J-0-2.bmp","sasa:ha","Up","40","4","2","6B","C2","J","74"
"","","approach-retreat","223","1751930","0.0-223.0","","","3-5","4276","39","1","Testing","Stims/Figures/85-C-20-2.bmp","va:shasha","Right","39","4","3","6B","C1","J","75"
"","","approach-retreat","224","1757787","0.0-224.0","","","3-5","4351","40","1","Testing","Stims/Figures/118-J-0-2.bmp","zasaha","Up","40","4","4","6B","C2","J","76"
"","","approach-retreat","225","1764620","0.0-225.0","","","3-5","5325","38","1","Testing","Stims/Figures/102-C-20-4.bmp","vafava","Up","38","4","5","6B","C1","J","77"
"","","approach-retreat","226","1770545","0.0-226.0","","","3-5","4418","39","1","Testing","Stims/Figures/118-C-20-2.bmp","fa:sha:sha","Right","39","4","6","6B","C1","J","78"
"","","approach-retreat","227","1776481","0.0-227.0","","","3-5","4429","39","1","Testing","Stims/Figures/74-J-10-4.bmp","zasa:ha","Left","39","4","7","6B","C2","J","79"
"","","approach-retreat","228","1782314","0.0-228.0","","","3-5","4327","40","1","Testing","Stims/Figures/111-C-30-3.bmp","vafa:va","Down","40","4","8","6B","C1","J","80"
"","","approach-retreat","229","1788045","0.0-229.0","","","3-5","4223","39","1","Testing","Stims/Figures/44-J-10-3.bmp","za:sa:ha","Left","39","4","9","6B","C2","J","81"
"","","approach-retreat","230","1793902","0.0-230.0","","","3-5","4350","39","1","Testing","Stims/Figures/84-J-0-2.bmp","sasaza","Left","39","4","10","6B","C2","J","82"
"","","approach-retreat","231","1799655","0.0-231.0","","","3-5","4247","40","1","Testing","Stims/Figures/87-C-20-4.bmp","fa:fa:sha","Down","40","4","11","6B","C1","J","83"
"","","approach-retreat","232","1806125","0.0-232.0","","","3-5","4961","37","1","Testing","Stims/Figures/57-J-0-1.bmp","sa:saha","Right","37","4","12","6B","C2","J","84"
"","","approach-retreat","233","1811776","0.0-233.0","","","3-5","4145","39","1","Testing","Stims/Figures/144-J-10-3.bmp","za:haha","Left","39","4","13","6B","C2","J","85"
"","","approach-retreat","234","1817636","0.0-234.0","","","3-5","4351","37","1","Testing","Stims/Figures/71-C-30-1.bmp","fa:shava","Left","37","4","14","6B","C1","J","86"
"","","approach-retreat","235","1823338","0.0-235.0","","","3-5","4195","40","1","Testing","Stims/Figures/111-J-10-3.bmp","sasaha","Up","40","4","15","6B","C2","J","87"
"","","approach-retreat","236","1829167","0.0-236.0","","","3-5","4322","38","1","Testing","Stims/Figures/27-C-30-1.bmp","fafava","Up","38","4","16","6B","C1","J","88"
"","","approach-retreat","237","1836420","0.0-237.0","","","3-5","5745","39","1","Testing","Stims/Figures/74-C-20-4.bmp","fafasha","Right","39","4","17","6B","C1","J","89"
"","","approach-retreat","238","1842434","0.0-238.0","","","3-5","4507","37","1","Testing","Stims/Figures/71-J-0-1.bmp","zahaha","Right","37","4","18","6B","C2","J","90"
"","","approach-retreat","239","1848265","0.0-239.0","","","3-5","4325","38","1","Testing","Stims/Figures/27-J-0-1.bmp","sa:ha:ha","Down","38","4","19","6B","C2","J","91"
"","","approach-retreat","240","1854286","0.0-240.0","","","3-5","4514","39","1","Testing","Stims/Figures/44-C-30-3.bmp","va:sha:va","Right","39","4","20","6B","C1","J","92"
"","","approach-retreat","241","1860538","0.0-241.0","","","3-5","4745","40","1","Testing","Stims/Figures/87-J-10-4.bmp","saha:ha","Up","40","4","21","6B","C2","J","93"
"","","approach-retreat","242","1866807","0.0-242.0","","","3-5","4763","40","1","Testing","Stims/Figures/84-C-20-2.bmp","fasha:sha","Down","40","4","22","6B","C1","J","94"
"","","approach-retreat","243","1873361","0.0-243.0","","","3-5","5047","37","1","Testing","Stims/Figures/144-C-30-3.bmp","va:fa:sha","Left","37","4","23","6B","C1","J","95"
"","","approach-retreat","244","1879041","0.0-244.0","","","3-5","4173","40","1","Testing","Stims/Figures/57-C-30-1.bmp","va:fasha","Down","40","4","24","6B","C1","J","96"
"48980","","survey-text","245","1928028","0.0-245.0","","{""Q0"":""PS1023""}","","","","","","","","","","","","","","",""
