\"rt\",\"key_press\",\"trial_type\",\"trial_index\",\"time_elapsed\",\"internal_node_id\",\"view_history\",\"responses\",\"Id\",\"Rt\",\"ResKeyCode\",\"ResCorr\",\"TrialType2\",\"Image\",\"Label\",\"Location\",\"CorrectResponse\",\"Block\",\"BlockTrial\",\"Condition\",\"LabelType\",\"Subcondition\",\"trialNum\"
\"54372\",\"32\",\"text\",\"0\",\"54375\",\"0.0-0.0-0.0\",\"\",\"\",\"\",\"\",\"\",\"\",\"\",\"\",\"\",\"\",\"\",\"\",\"\",\"\",\"\",\"\",\"\"
\"82962\",\"\",\"instructions\",\"1\",\"137340\",\"0.0-1.0\",\"[{\"\"page_index\"\":0,\"\"viewing_time\"\":82962}]\",\"\",\"\",\"\",\"\",\"\",\"\",\"\",\"\",\"\",\"\",\"\",\"\",\"\",\"\",\"\",\"\"
\"16032\",\"\",\"survey-multi-choice\",\"2\",\"153392\",\"0.0-2.0\",\"\",\"{\"\"Q0\"\":\"\"Da\"\",\"\"Q1\"\":\"\"Da\"\",\"\"Q2\"\":\"\"Da\"\",\"\"Q3\"\":\"\"Da\"\",\"\"Q4\"\":\"\"Da\"\",\"\"Q5\"\":\"\"Da\"\"}\",\"\",\"\",\"\",\"\",\"\",\"\",\"\",\"\",\"\",\"\",\"\",\"\",\"\",\"\",\"\"
\"\",\"\",\"bio\",\"3\",\"161405\",\"0.0-3.0\",\"\",\"{\"\"age\"\":\"\"21\"\",\"\"gender\"\":\"\"m\"\",\"\"specify\"\":\"\"\"\"}\",\"\",\"\",\"\",\"\",\"\",\"\",\"\",\"\",\"\",\"\",\"\",\"\",\"\",\"\",\"\"
\"\",\"\",\"approach-retreat\",\"4\",\"170135\",\"0.0-4.0\",\"\",\"\",\"3-2\",\"7221\",\"40\",\"0\",\"Training\",\"Stims/Figures/71-J-0-1.bmp\",\"sa:saza\",\"Up\",\"38\",\"1\",\"1\",\"3B\",\"C2\",\"C\",\"1\"
\"\",\"\",\"approach-retreat\",\"5\",\"176422\",\"0.0-5.0\",\"\",\"\",\"3-2\",\"4782\",\"40\",\"1\",\"Training\",\"Stims/Figures/87-J-10-4.bmp\",\"sa:saza\",\"Down\",\"40\",\"1\",\"2\",\"3B\",\"C2\",\"C\",\"2\"
\"\",\"\",\"approach-retreat\",\"6\",\"183257\",\"0.0-6.0\",\"\",\"\",\"3-2\",\"5328\",\"37\",\"0\",\"Training\",\"Stims/Figures/44-C-30-3.bmp\",\"va:shasha\",\"Left\",\"39\",\"1\",\"3\",\"3B\",\"C1\",\"C\",\"3\"
\"\",\"\",\"approach-retreat\",\"7\",\"190173\",\"0.0-7.0\",\"\",\"\",\"3-2\",\"5411\",\"39\",\"1\",\"Training\",\"Stims/Figures/44-J-10-3.bmp\",\"sa:saza\",\"Right\",\"39\",\"1\",\"4\",\"3B\",\"C2\",\"C\",\"4\"
\"\",\"\",\"approach-retreat\",\"8\",\"197310\",\"0.0-8.0\",\"\",\"\",\"3-2\",\"5632\",\"38\",\"1\",\"Training\",\"Stims/Figures/118-C-20-2.bmp\",\"va:shasha\",\"Down\",\"38\",\"1\",\"5\",\"3B\",\"C1\",\"C\",\"5\"
\"\",\"\",\"approach-retreat\",\"9\",\"203551\",\"0.0-9.0\",\"\",\"\",\"3-2\",\"4737\",\"39\",\"0\",\"Training\",\"Stims/Figures/93-C-30-1.bmp\",\"va:shasha\",\"Right\",\"37\",\"1\",\"6\",\"3B\",\"C1\",\"C\",\"6\"
\"\",\"\",\"approach-retreat\",\"10\",\"211230\",\"0.0-10.0\",\"\",\"\",\"3-2\",\"6174\",\"37\",\"0\",\"Training\",\"Stims/Figures/128-C-30-3.bmp\",\"va:shasha\",\"Left\",\"39\",\"1\",\"7\",\"3B\",\"C1\",\"C\",\"7\"
\"\",\"\",\"approach-retreat\",\"11\",\"218829\",\"0.0-11.0\",\"\",\"\",\"3-2\",\"6094\",\"37\",\"1\",\"Training\",\"Stims/Figures/74-C-20-4.bmp\",\"va:shasha\",\"Right\",\"37\",\"1\",\"8\",\"3B\",\"C1\",\"C\",\"8\"
\"\",\"\",\"approach-retreat\",\"12\",\"225303\",\"0.0-12.0\",\"\",\"\",\"3-2\",\"4968\",\"40\",\"1\",\"Training\",\"Stims/Figures/118-J-0-2.bmp\",\"sa:saza\",\"Down\",\"40\",\"1\",\"9\",\"3B\",\"C2\",\"C\",\"9\"
\"\",\"\",\"approach-retreat\",\"13\",\"231628\",\"0.0-13.0\",\"\",\"\",\"3-2\",\"4820\",\"39\",\"0\",\"Training\",\"Stims/Figures/139-C-20-2.bmp\",\"va:shasha\",\"Right\",\"37\",\"1\",\"10\",\"3B\",\"C1\",\"C\",\"10\"
\"\",\"\",\"approach-retreat\",\"14\",\"238274\",\"0.0-14.0\",\"\",\"\",\"3-2\",\"5141\",\"37\",\"0\",\"Training\",\"Stims/Figures/87-C-20-4.bmp\",\"va:shasha\",\"Left\",\"39\",\"1\",\"11\",\"3B\",\"C1\",\"C\",\"11\"
\"\",\"\",\"approach-retreat\",\"15\",\"244953\",\"0.0-15.0\",\"\",\"\",\"3-2\",\"5175\",\"38\",\"1\",\"Training\",\"Stims/Figures/93-J-0-1.bmp\",\"sa:saza\",\"Up\",\"38\",\"1\",\"12\",\"3B\",\"C2\",\"C\",\"12\"
\"\",\"\",\"approach-retreat\",\"16\",\"251368\",\"0.0-16.0\",\"\",\"\",\"3-2\",\"4909\",\"40\",\"0\",\"Training\",\"Stims/Figures/139-J-0-2.bmp\",\"sa:saza\",\"Up\",\"38\",\"1\",\"13\",\"3B\",\"C2\",\"C\",\"13\"
\"\",\"\",\"approach-retreat\",\"17\",\"256879\",\"0.0-17.0\",\"\",\"\",\"3-2\",\"4005\",\"38\",\"1\",\"Training\",\"Stims/Figures/74-J-10-4.bmp\",\"sa:saza\",\"Up\",\"38\",\"1\",\"14\",\"3B\",\"C2\",\"C\",\"14\"
\"\",\"\",\"approach-retreat\",\"18\",\"262821\",\"0.0-18.0\",\"\",\"\",\"3-2\",\"4438\",\"40\",\"0\",\"Training\",\"Stims/Figures/71-C-30-1.bmp\",\"va:shasha\",\"Down\",\"38\",\"1\",\"15\",\"3B\",\"C1\",\"C\",\"15\"
\"\",\"\",\"approach-retreat\",\"19\",\"268680\",\"0.0-19.0\",\"\",\"\",\"3-2\",\"4355\",\"37\",\"1\",\"Training\",\"Stims/Figures/128-J-10-3.bmp\",\"sa:saza\",\"Left\",\"37\",\"1\",\"16\",\"3B\",\"C2\",\"C\",\"16\"
\"\",\"\",\"approach-retreat\",\"20\",\"274543\",\"0.0-20.0\",\"\",\"\",\"3-2\",\"4357\",\"40\",\"0\",\"Training\",\"Stims/Figures/93-J-0-1.bmp\",\"sa:saza\",\"Up\",\"38\",\"2\",\"1\",\"3B\",\"C2\",\"C\",\"17\"
\"\",\"\",\"approach-retreat\",\"21\",\"280655\",\"0.0-21.0\",\"\",\"\",\"3-2\",\"4607\",\"40\",\"1\",\"Training\",\"Stims/Figures/74-J-10-4.bmp\",\"sa:saza\",\"Down\",\"40\",\"2\",\"2\",\"3B\",\"C2\",\"C\",\"18\"
\"\",\"\",\"approach-retreat\",\"22\",\"287971\",\"0.0-22.0\",\"\",\"\",\"3-2\",\"5812\",\"40\",\"0\",\"Training\",\"Stims/Figures/87-J-10-4.bmp\",\"sa:saza\",\"Up\",\"38\",\"2\",\"3\",\"3B\",\"C2\",\"C\",\"19\"
\"\",\"\",\"approach-retreat\",\"23\",\"294277\",\"0.0-23.0\",\"\",\"\",\"3-2\",\"4799\",\"37\",\"1\",\"Training\",\"Stims/Figures/87-C-20-4.bmp\",\"va:shasha\",\"Right\",\"37\",\"2\",\"4\",\"3B\",\"C1\",\"C\",\"20\"
\"\",\"\",\"approach-retreat\",\"24\",\"300314\",\"0.0-24.0\",\"\",\"\",\"3-2\",\"4531\",\"39\",\"0\",\"Training\",\"Stims/Figures/139-J-0-2.bmp\",\"sa:saza\",\"Left\",\"37\",\"2\",\"5\",\"3B\",\"C2\",\"C\",\"21\"
\"\",\"\",\"approach-retreat\",\"25\",\"307218\",\"0.0-25.0\",\"\",\"\",\"3-2\",\"5401\",\"38\",\"1\",\"Training\",\"Stims/Figures/93-C-30-1.bmp\",\"va:shasha\",\"Down\",\"38\",\"2\",\"6\",\"3B\",\"C1\",\"C\",\"22\"
\"\",\"\",\"approach-retreat\",\"26\",\"313501\",\"0.0-26.0\",\"\",\"\",\"3-2\",\"4778\",\"39\",\"1\",\"Training\",\"Stims/Figures/128-J-10-3.bmp\",\"sa:saza\",\"Right\",\"39\",\"2\",\"7\",\"3B\",\"C2\",\"C\",\"23\"
\"\",\"\",\"approach-retreat\",\"27\",\"319507\",\"0.0-27.0\",\"\",\"\",\"3-2\",\"4500\",\"37\",\"1\",\"Training\",\"Stims/Figures/74-C-20-4.bmp\",\"va:shasha\",\"Right\",\"37\",\"2\",\"8\",\"3B\",\"C1\",\"C\",\"24\"
\"\",\"\",\"approach-retreat\",\"28\",\"325203\",\"0.0-28.0\",\"\",\"\",\"3-2\",\"4193\",\"39\",\"1\",\"Training\",\"Stims/Figures/71-J-0-1.bmp\",\"sa:saza\",\"Right\",\"39\",\"2\",\"9\",\"3B\",\"C2\",\"C\",\"25\"
\"\",\"\",\"approach-retreat\",\"29\",\"332145\",\"0.0-29.0\",\"\",\"\",\"3-2\",\"5436\",\"40\",\"0\",\"Training\",\"Stims/Figures/128-C-30-3.bmp\",\"va:shasha\",\"Down\",\"38\",\"2\",\"10\",\"3B\",\"C1\",\"C\",\"26\"
\"\",\"\",\"approach-retreat\",\"30\",\"337880\",\"0.0-30.0\",\"\",\"\",\"3-2\",\"4230\",\"39\",\"1\",\"Training\",\"Stims/Figures/139-C-20-2.bmp\",\"va:shasha\",\"Left\",\"39\",\"2\",\"11\",\"3B\",\"C1\",\"C\",\"27\"
\"\",\"\",\"approach-retreat\",\"31\",\"343700\",\"0.0-31.0\",\"\",\"\",\"3-2\",\"4315\",\"37\",\"0\",\"Training\",\"Stims/Figures/118-C-20-2.bmp\",\"va:shasha\",\"Left\",\"39\",\"2\",\"12\",\"3B\",\"C1\",\"C\",\"28\"
\"\",\"\",\"approach-retreat\",\"32\",\"349910\",\"0.0-32.0\",\"\",\"\",\"3-2\",\"4706\",\"40\",\"1\",\"Training\",\"Stims/Figures/44-C-30-3.bmp\",\"va:shasha\",\"Up\",\"40\",\"2\",\"13\",\"3B\",\"C1\",\"C\",\"29\"
\"\",\"\",\"approach-retreat\",\"33\",\"356236\",\"0.0-33.0\",\"\",\"\",\"3-2\",\"4821\",\"40\",\"1\",\"Training\",\"Stims/Figures/71-C-30-1.bmp\",\"va:shasha\",\"Up\",\"40\",\"2\",\"14\",\"3B\",\"C1\",\"C\",\"30\"
\"\",\"\",\"approach-retreat\",\"34\",\"363921\",\"0.0-34.0\",\"\",\"\",\"3-2\",\"6179\",\"37\",\"1\",\"Training\",\"Stims/Figures/118-J-0-2.bmp\",\"sa:saza\",\"Left\",\"37\",\"2\",\"15\",\"3B\",\"C2\",\"C\",\"31\"
\"\",\"\",\"approach-retreat\",\"35\",\"370787\",\"0.0-35.0\",\"\",\"\",\"3-2\",\"5360\",\"40\",\"1\",\"Training\",\"Stims/Figures/44-J-10-3.bmp\",\"sa:saza\",\"Down\",\"40\",\"2\",\"16\",\"3B\",\"C2\",\"C\",\"32\"
\"\",\"\",\"approach-retreat\",\"36\",\"377179\",\"0.0-36.0\",\"\",\"\",\"3-2\",\"4887\",\"38\",\"0\",\"Training\",\"Stims/Figures/93-C-30-1.bmp\",\"va:shasha\",\"Up\",\"40\",\"3\",\"1\",\"3B\",\"C1\",\"C\",\"33\"
\"\",\"\",\"approach-retreat\",\"37\",\"383057\",\"0.0-37.0\",\"\",\"\",\"3-2\",\"4373\",\"38\",\"1\",\"Training\",\"Stims/Figures/71-J-0-1.bmp\",\"sa:saza\",\"Up\",\"38\",\"3\",\"2\",\"3B\",\"C2\",\"C\",\"34\"
\"\",\"\",\"approach-retreat\",\"38\",\"389584\",\"0.0-38.0\",\"\",\"\",\"3-2\",\"5021\",\"40\",\"0\",\"Training\",\"Stims/Figures/44-C-30-3.bmp\",\"va:shasha\",\"Down\",\"38\",\"3\",\"3\",\"3B\",\"C1\",\"C\",\"35\"
\"\",\"\",\"approach-retreat\",\"39\",\"395441\",\"0.0-39.0\",\"\",\"\",\"3-2\",\"4353\",\"40\",\"0\",\"Training\",\"Stims/Figures/71-C-30-1.bmp\",\"va:shasha\",\"Down\",\"38\",\"3\",\"4\",\"3B\",\"C1\",\"C\",\"36\"
\"\",\"\",\"approach-retreat\",\"40\",\"401614\",\"0.0-40.0\",\"\",\"\",\"3-2\",\"4668\",\"38\",\"0\",\"Training\",\"Stims/Figures/139-C-20-2.bmp\",\"va:shasha\",\"Up\",\"40\",\"3\",\"5\",\"3B\",\"C1\",\"C\",\"37\"
\"\",\"\",\"approach-retreat\",\"41\",\"407812\",\"0.0-41.0\",\"\",\"\",\"3-2\",\"4693\",\"40\",\"1\",\"Training\",\"Stims/Figures/139-J-0-2.bmp\",\"sa:saza\",\"Down\",\"40\",\"3\",\"6\",\"3B\",\"C2\",\"C\",\"38\"
\"\",\"\",\"approach-retreat\",\"42\",\"413701\",\"0.0-42.0\",\"\",\"\",\"3-2\",\"4384\",\"37\",\"1\",\"Training\",\"Stims/Figures/87-J-10-4.bmp\",\"sa:saza\",\"Left\",\"37\",\"3\",\"7\",\"3B\",\"C2\",\"C\",\"39\"
\"\",\"\",\"approach-retreat\",\"43\",\"419809\",\"0.0-43.0\",\"\",\"\",\"3-2\",\"4603\",\"37\",\"1\",\"Training\",\"Stims/Figures/118-C-20-2.bmp\",\"va:shasha\",\"Right\",\"37\",\"3\",\"8\",\"3B\",\"C1\",\"C\",\"40\"
\"\",\"\",\"approach-retreat\",\"44\",\"425490\",\"0.0-44.0\",\"\",\"\",\"3-2\",\"4177\",\"37\",\"0\",\"Training\",\"Stims/Figures/93-J-0-1.bmp\",\"sa:saza\",\"Right\",\"39\",\"3\",\"9\",\"3B\",\"C2\",\"C\",\"41\"
\"\",\"\",\"approach-retreat\",\"45\",\"431460\",\"0.0-45.0\",\"\",\"\",\"3-2\",\"4465\",\"39\",\"0\",\"Training\",\"Stims/Figures/128-J-10-3.bmp\",\"sa:saza\",\"Left\",\"37\",\"3\",\"10\",\"3B\",\"C2\",\"C\",\"42\"
\"\",\"\",\"approach-retreat\",\"46\",\"437644\",\"0.0-46.0\",\"\",\"\",\"3-2\",\"4679\",\"40\",\"0\",\"Training\",\"Stims/Figures/128-C-30-3.bmp\",\"va:shasha\",\"Down\",\"38\",\"3\",\"11\",\"3B\",\"C1\",\"C\",\"43\"
\"\",\"\",\"approach-retreat\",\"47\",\"444271\",\"0.0-47.0\",\"\",\"\",\"3-2\",\"5120\",\"39\",\"0\",\"Training\",\"Stims/Figures/74-C-20-4.bmp\",\"va:shasha\",\"Right\",\"37\",\"3\",\"12\",\"3B\",\"C1\",\"C\",\"44\"
\"\",\"\",\"approach-retreat\",\"48\",\"450698\",\"0.0-48.0\",\"\",\"\",\"3-2\",\"4922\",\"40\",\"0\",\"Training\",\"Stims/Figures/74-J-10-4.bmp\",\"sa:saza\",\"Up\",\"38\",\"3\",\"13\",\"3B\",\"C2\",\"C\",\"45\"
\"\",\"\",\"approach-retreat\",\"49\",\"456975\",\"0.0-49.0\",\"\",\"\",\"3-2\",\"4773\",\"39\",\"0\",\"Training\",\"Stims/Figures/44-J-10-3.bmp\",\"sa:saza\",\"Left\",\"37\",\"3\",\"14\",\"3B\",\"C2\",\"C\",\"46\"
\"\",\"\",\"approach-retreat\",\"50\",\"462877\",\"0.0-50.0\",\"\",\"\",\"3-2\",\"4397\",\"39\",\"1\",\"Training\",\"Stims/Figures/118-J-0-2.bmp\",\"sa:saza\",\"Right\",\"39\",\"3\",\"15\",\"3B\",\"C2\",\"C\",\"47\"
\"\",\"\",\"approach-retreat\",\"51\",\"469752\",\"0.0-51.0\",\"\",\"\",\"3-2\",\"5371\",\"37\",\"0\",\"Training\",\"Stims/Figures/87-C-20-4.bmp\",\"va:shasha\",\"Left\",\"39\",\"3\",\"16\",\"3B\",\"C1\",\"C\",\"48\"
\"\",\"\",\"approach-retreat\",\"52\",\"475971\",\"0.0-52.0\",\"\",\"\",\"3-2\",\"4712\",\"39\",\"0\",\"Training\",\"Stims/Figures/87-C-20-4.bmp\",\"va:shasha\",\"Right\",\"37\",\"4\",\"1\",\"3B\",\"C1\",\"C\",\"49\"
\"\",\"\",\"approach-retreat\",\"53\",\"481842\",\"0.0-53.0\",\"\",\"\",\"3-2\",\"4367\",\"37\",\"0\",\"Training\",\"Stims/Figures/118-J-0-2.bmp\",\"sa:saza\",\"Right\",\"39\",\"4\",\"2\",\"3B\",\"C2\",\"C\",\"50\"
\"\",\"\",\"approach-retreat\",\"54\",\"487635\",\"0.0-54.0\",\"\",\"\",\"3-2\",\"4288\",\"38\",\"0\",\"Training\",\"Stims/Figures/139-C-20-2.bmp\",\"va:shasha\",\"Up\",\"40\",\"4\",\"3\",\"3B\",\"C1\",\"C\",\"51\"
\"\",\"\",\"approach-retreat\",\"55\",\"493523\",\"0.0-55.0\",\"\",\"\",\"3-2\",\"4383\",\"40\",\"0\",\"Training\",\"Stims/Figures/71-J-0-1.bmp\",\"sa:saza\",\"Up\",\"38\",\"4\",\"4\",\"3B\",\"C2\",\"C\",\"52\"
\"\",\"\",\"approach-retreat\",\"56\",\"499426\",\"0.0-56.0\",\"\",\"\",\"3-2\",\"4397\",\"39\",\"1\",\"Training\",\"Stims/Figures/128-C-30-3.bmp\",\"va:shasha\",\"Left\",\"39\",\"4\",\"5\",\"3B\",\"C1\",\"C\",\"53\"
\"\",\"\",\"approach-retreat\",\"57\",\"505335\",\"0.0-57.0\",\"\",\"\",\"3-2\",\"4404\",\"40\",\"1\",\"Training\",\"Stims/Figures/87-J-10-4.bmp\",\"sa:saza\",\"Down\",\"40\",\"4\",\"6\",\"3B\",\"C2\",\"C\",\"54\"
\"\",\"\",\"approach-retreat\",\"58\",\"511486\",\"0.0-58.0\",\"\",\"\",\"3-2\",\"4646\",\"39\",\"0\",\"Training\",\"Stims/Figures/128-J-10-3.bmp\",\"sa:saza\",\"Left\",\"37\",\"4\",\"7\",\"3B\",\"C2\",\"C\",\"55\"
\"\",\"\",\"approach-retreat\",\"59\",\"517344\",\"0.0-59.0\",\"\",\"\",\"3-2\",\"4353\",\"40\",\"1\",\"Training\",\"Stims/Figures/74-J-10-4.bmp\",\"sa:saza\",\"Down\",\"40\",\"4\",\"8\",\"3B\",\"C2\",\"C\",\"56\"
\"\",\"\",\"approach-retreat\",\"60\",\"523249\",\"0.0-60.0\",\"\",\"\",\"3-2\",\"4401\",\"39\",\"1\",\"Training\",\"Stims/Figures/44-J-10-3.bmp\",\"sa:saza\",\"Right\",\"39\",\"4\",\"9\",\"3B\",\"C2\",\"C\",\"57\"
\"\",\"\",\"approach-retreat\",\"61\",\"529173\",\"0.0-61.0\",\"\",\"\",\"3-2\",\"4420\",\"37\",\"0\",\"Training\",\"Stims/Figures/71-C-30-1.bmp\",\"va:shasha\",\"Left\",\"39\",\"4\",\"10\",\"3B\",\"C1\",\"C\",\"58\"
\"\",\"\",\"approach-retreat\",\"62\",\"535068\",\"0.0-62.0\",\"\",\"\",\"3-2\",\"4390\",\"40\",\"1\",\"Training\",\"Stims/Figures/139-J-0-2.bmp\",\"sa:saza\",\"Down\",\"40\",\"4\",\"11\",\"3B\",\"C2\",\"C\",\"59\"
\"\",\"\",\"approach-retreat\",\"63\",\"541318\",\"0.0-63.0\",\"\",\"\",\"3-2\",\"4745\",\"40\",\"1\",\"Training\",\"Stims/Figures/74-C-20-4.bmp\",\"va:shasha\",\"Up\",\"40\",\"4\",\"12\",\"3B\",\"C1\",\"C\",\"60\"
\"\",\"\",\"approach-retreat\",\"64\",\"547590\",\"0.0-64.0\",\"\",\"\",\"3-2\",\"4768\",\"37\",\"1\",\"Training\",\"Stims/Figures/118-C-20-2.bmp\",\"va:shasha\",\"Right\",\"37\",\"4\",\"13\",\"3B\",\"C1\",\"C\",\"61\"
\"\",\"\",\"approach-retreat\",\"65\",\"553524\",\"0.0-65.0\",\"\",\"\",\"3-2\",\"4429\",\"40\",\"1\",\"Training\",\"Stims/Figures/93-C-30-1.bmp\",\"va:shasha\",\"Up\",\"40\",\"4\",\"14\",\"3B\",\"C1\",\"C\",\"62\"
\"\",\"\",\"approach-retreat\",\"66\",\"559246\",\"0.0-66.0\",\"\",\"\",\"3-2\",\"4217\",\"39\",\"1\",\"Training\",\"Stims/Figures/44-C-30-3.bmp\",\"va:shasha\",\"Left\",\"39\",\"4\",\"15\",\"3B\",\"C1\",\"C\",\"63\"
\"\",\"\",\"approach-retreat\",\"67\",\"565169\",\"0.0-67.0\",\"\",\"\",\"3-2\",\"4419\",\"40\",\"1\",\"Training\",\"Stims/Figures/93-J-0-1.bmp\",\"sa:saza\",\"Down\",\"40\",\"4\",\"16\",\"3B\",\"C2\",\"C\",\"64\"
\"\",\"\",\"approach-retreat\",\"68\",\"572014\",\"0.0-68.0\",\"\",\"\",\"3-2\",\"5341\",\"40\",\"1\",\"Training\",\"Stims/Figures/128-C-30-3.bmp\",\"va:shasha\",\"Up\",\"40\",\"5\",\"1\",\"3B\",\"C1\",\"C\",\"65\"
\"\",\"\",\"approach-retreat\",\"69\",\"577985\",\"0.0-69.0\",\"\",\"\",\"3-2\",\"4465\",\"38\",\"0\",\"Training\",\"Stims/Figures/139-J-0-2.bmp\",\"sa:saza\",\"Down\",\"40\",\"5\",\"2\",\"3B\",\"C2\",\"C\",\"66\"
\"\",\"\",\"approach-retreat\",\"70\",\"584357\",\"0.0-70.0\",\"\",\"\",\"3-2\",\"4867\",\"40\",\"1\",\"Training\",\"Stims/Figures/44-J-10-3.bmp\",\"sa:saza\",\"Down\",\"40\",\"5\",\"3\",\"3B\",\"C2\",\"C\",\"67\"
\"\",\"\",\"approach-retreat\",\"71\",\"590044\",\"0.0-71.0\",\"\",\"\",\"3-2\",\"4183\",\"39\",\"0\",\"Training\",\"Stims/Figures/128-J-10-3.bmp\",\"sa:saza\",\"Left\",\"37\",\"5\",\"4\",\"3B\",\"C2\",\"C\",\"68\"
\"\",\"\",\"approach-retreat\",\"72\",\"595929\",\"0.0-72.0\",\"\",\"\",\"3-2\",\"4380\",\"38\",\"1\",\"Training\",\"Stims/Figures/74-C-20-4.bmp\",\"va:shasha\",\"Down\",\"38\",\"5\",\"5\",\"3B\",\"C1\",\"C\",\"69\"
\"\",\"\",\"approach-retreat\",\"73\",\"601485\",\"0.0-73.0\",\"\",\"\",\"3-2\",\"4053\",\"38\",\"1\",\"Training\",\"Stims/Figures/71-C-30-1.bmp\",\"va:shasha\",\"Down\",\"38\",\"5\",\"6\",\"3B\",\"C1\",\"C\",\"70\"
\"\",\"\",\"approach-retreat\",\"74\",\"607803\",\"0.0-74.0\",\"\",\"\",\"3-2\",\"4813\",\"40\",\"1\",\"Training\",\"Stims/Figures/87-C-20-4.bmp\",\"va:shasha\",\"Up\",\"40\",\"5\",\"7\",\"3B\",\"C1\",\"C\",\"71\"
\"\",\"\",\"approach-retreat\",\"75\",\"613702\",\"0.0-75.0\",\"\",\"\",\"3-2\",\"4395\",\"37\",\"1\",\"Training\",\"Stims/Figures/93-C-30-1.bmp\",\"va:shasha\",\"Right\",\"37\",\"5\",\"8\",\"3B\",\"C1\",\"C\",\"72\"
\"\",\"\",\"approach-retreat\",\"76\",\"620145\",\"0.0-76.0\",\"\",\"\",\"3-2\",\"4937\",\"39\",\"1\",\"Training\",\"Stims/Figures/71-J-0-1.bmp\",\"sa:saza\",\"Right\",\"39\",\"5\",\"9\",\"3B\",\"C2\",\"C\",\"73\"
\"\",\"\",\"approach-retreat\",\"77\",\"626047\",\"0.0-77.0\",\"\",\"\",\"3-2\",\"4397\",\"37\",\"1\",\"Training\",\"Stims/Figures/93-J-0-1.bmp\",\"sa:saza\",\"Left\",\"37\",\"5\",\"10\",\"3B\",\"C2\",\"C\",\"74\"
\"\",\"\",\"approach-retreat\",\"78\",\"631940\",\"0.0-78.0\",\"\",\"\",\"3-2\",\"4388\",\"40\",\"1\",\"Training\",\"Stims/Figures/44-C-30-3.bmp\",\"va:shasha\",\"Up\",\"40\",\"5\",\"11\",\"3B\",\"C1\",\"C\",\"75\"
\"\",\"\",\"approach-retreat\",\"79\",\"639558\",\"0.0-79.0\",\"\",\"\",\"3-2\",\"6114\",\"37\",\"0\",\"Training\",\"Stims/Figures/87-J-10-4.bmp\",\"sa:saza\",\"Right\",\"39\",\"5\",\"12\",\"3B\",\"C2\",\"C\",\"76\"
\"\",\"\",\"approach-retreat\",\"80\",\"645234\",\"0.0-80.0\",\"\",\"\",\"3-2\",\"4170\",\"37\",\"0\",\"Training\",\"Stims/Figures/139-C-20-2.bmp\",\"va:shasha\",\"Left\",\"39\",\"5\",\"13\",\"3B\",\"C1\",\"C\",\"77\"
\"\",\"\",\"approach-retreat\",\"81\",\"651881\",\"0.0-81.0\",\"\",\"\",\"3-2\",\"5142\",\"38\",\"1\",\"Training\",\"Stims/Figures/74-J-10-4.bmp\",\"sa:saza\",\"Up\",\"38\",\"5\",\"14\",\"3B\",\"C2\",\"C\",\"78\"
\"\",\"\",\"approach-retreat\",\"82\",\"657981\",\"0.0-82.0\",\"\",\"\",\"3-2\",\"4595\",\"37\",\"1\",\"Training\",\"Stims/Figures/118-C-20-2.bmp\",\"va:shasha\",\"Right\",\"37\",\"5\",\"15\",\"3B\",\"C1\",\"C\",\"79\"
\"\",\"\",\"approach-retreat\",\"83\",\"663868\",\"0.0-83.0\",\"\",\"\",\"3-2\",\"4382\",\"37\",\"1\",\"Training\",\"Stims/Figures/118-J-0-2.bmp\",\"sa:saza\",\"Left\",\"37\",\"5\",\"16\",\"3B\",\"C2\",\"C\",\"80\"
\"\",\"\",\"approach-retreat\",\"84\",\"669859\",\"0.0-84.0\",\"\",\"\",\"3-2\",\"4486\",\"39\",\"1\",\"Training\",\"Stims/Figures/71-C-30-1.bmp\",\"va:shasha\",\"Left\",\"39\",\"6\",\"1\",\"3B\",\"C1\",\"C\",\"81\"
\"\",\"\",\"approach-retreat\",\"85\",\"677044\",\"0.0-85.0\",\"\",\"\",\"3-2\",\"5680\",\"39\",\"1\",\"Training\",\"Stims/Figures/118-J-0-2.bmp\",\"sa:saza\",\"Right\",\"39\",\"6\",\"2\",\"3B\",\"C2\",\"C\",\"82\"
\"\",\"\",\"approach-retreat\",\"86\",\"683816\",\"0.0-86.0\",\"\",\"\",\"3-2\",\"5266\",\"39\",\"1\",\"Training\",\"Stims/Figures/71-J-0-1.bmp\",\"sa:saza\",\"Right\",\"39\",\"6\",\"3\",\"3B\",\"C2\",\"C\",\"83\"
\"\",\"\",\"approach-retreat\",\"87\",\"690980\",\"0.0-87.0\",\"\",\"\",\"3-2\",\"5661\",\"40\",\"1\",\"Training\",\"Stims/Figures/74-J-10-4.bmp\",\"sa:saza\",\"Down\",\"40\",\"6\",\"4\",\"3B\",\"C2\",\"C\",\"84\"
\"\",\"\",\"approach-retreat\",\"88\",\"696838\",\"0.0-88.0\",\"\",\"\",\"3-2\",\"4353\",\"38\",\"1\",\"Training\",\"Stims/Figures/128-C-30-3.bmp\",\"va:shasha\",\"Down\",\"38\",\"6\",\"5\",\"3B\",\"C1\",\"C\",\"85\"
\"\",\"\",\"approach-retreat\",\"89\",\"702978\",\"0.0-89.0\",\"\",\"\",\"3-2\",\"4635\",\"40\",\"1\",\"Training\",\"Stims/Figures/87-J-10-4.bmp\",\"sa:saza\",\"Down\",\"40\",\"6\",\"6\",\"3B\",\"C2\",\"C\",\"86\"
\"\",\"\",\"approach-retreat\",\"90\",\"708982\",\"0.0-90.0\",\"\",\"\",\"3-2\",\"4500\",\"37\",\"1\",\"Training\",\"Stims/Figures/139-C-20-2.bmp\",\"va:shasha\",\"Right\",\"37\",\"6\",\"7\",\"3B\",\"C1\",\"C\",\"87\"
\"\",\"\",\"approach-retreat\",\"91\",\"714906\",\"0.0-91.0\",\"\",\"\",\"3-2\",\"4418\",\"40\",\"1\",\"Training\",\"Stims/Figures/93-J-0-1.bmp\",\"sa:saza\",\"Down\",\"40\",\"6\",\"8\",\"3B\",\"C2\",\"C\",\"88\"
\"\",\"\",\"approach-retreat\",\"92\",\"720917\",\"0.0-92.0\",\"\",\"\",\"3-2\",\"4504\",\"37\",\"1\",\"Training\",\"Stims/Figures/44-J-10-3.bmp\",\"sa:saza\",\"Left\",\"37\",\"6\",\"9\",\"3B\",\"C2\",\"C\",\"89\"
\"\",\"\",\"approach-retreat\",\"93\",\"726612\",\"0.0-93.0\",\"\",\"\",\"3-2\",\"4187\",\"39\",\"1\",\"Training\",\"Stims/Figures/87-C-20-4.bmp\",\"va:shasha\",\"Left\",\"39\",\"6\",\"10\",\"3B\",\"C1\",\"C\",\"90\"
\"\",\"\",\"approach-retreat\",\"94\",\"732939\",\"0.0-94.0\",\"\",\"\",\"3-2\",\"4822\",\"40\",\"1\",\"Training\",\"Stims/Figures/74-C-20-4.bmp\",\"va:shasha\",\"Up\",\"40\",\"6\",\"11\",\"3B\",\"C1\",\"C\",\"91\"
\"\",\"\",\"approach-retreat\",\"95\",\"739111\",\"0.0-95.0\",\"\",\"\",\"3-2\",\"4667\",\"39\",\"1\",\"Training\",\"Stims/Figures/139-J-0-2.bmp\",\"sa:saza\",\"Right\",\"39\",\"6\",\"12\",\"3B\",\"C2\",\"C\",\"92\"
\"\",\"\",\"approach-retreat\",\"96\",\"745173\",\"0.0-96.0\",\"\",\"\",\"3-2\",\"4557\",\"40\",\"1\",\"Training\",\"Stims/Figures/118-C-20-2.bmp\",\"va:shasha\",\"Up\",\"40\",\"6\",\"13\",\"3B\",\"C1\",\"C\",\"93\"
\"\",\"\",\"approach-retreat\",\"97\",\"750708\",\"0.0-97.0\",\"\",\"\",\"3-2\",\"4030\",\"40\",\"1\",\"Training\",\"Stims/Figures/93-C-30-1.bmp\",\"va:shasha\",\"Up\",\"40\",\"6\",\"14\",\"3B\",\"C1\",\"C\",\"94\"
\"\",\"\",\"approach-retreat\",\"98\",\"756494\",\"0.0-98.0\",\"\",\"\",\"3-2\",\"4282\",\"39\",\"1\",\"Training\",\"Stims/Figures/44-C-30-3.bmp\",\"va:shasha\",\"Left\",\"39\",\"6\",\"15\",\"3B\",\"C1\",\"C\",\"95\"
\"\",\"\",\"approach-retreat\",\"99\",\"762616\",\"0.0-99.0\",\"\",\"\",\"3-2\",\"4616\",\"38\",\"1\",\"Training\",\"Stims/Figures/128-J-10-3.bmp\",\"sa:saza\",\"Up\",\"38\",\"6\",\"16\",\"3B\",\"C2\",\"C\",\"96\"
\"\",\"\",\"approach-retreat\",\"100\",\"768558\",\"0.0-100.0\",\"\",\"\",\"3-2\",\"4436\",\"38\",\"1\",\"Training\",\"Stims/Figures/71-C-30-1.bmp\",\"va:shasha\",\"Down\",\"38\",\"7\",\"1\",\"3B\",\"C1\",\"C\",\"97\"
\"\",\"\",\"approach-retreat\",\"101\",\"774308\",\"0.0-101.0\",\"\",\"\",\"3-2\",\"4245\",\"38\",\"1\",\"Training\",\"Stims/Figures/74-C-20-4.bmp\",\"va:shasha\",\"Down\",\"38\",\"7\",\"2\",\"3B\",\"C1\",\"C\",\"98\"
\"\",\"\",\"approach-retreat\",\"102\",\"780705\",\"0.0-102.0\",\"\",\"\",\"3-2\",\"4892\",\"37\",\"1\",\"Training\",\"Stims/Figures/71-J-0-1.bmp\",\"sa:saza\",\"Left\",\"37\",\"7\",\"3\",\"3B\",\"C2\",\"C\",\"99\"
\"\",\"\",\"approach-retreat\",\"103\",\"786344\",\"0.0-103.0\",\"\",\"\",\"3-2\",\"4134\",\"40\",\"1\",\"Training\",\"Stims/Figures/44-C-30-3.bmp\",\"va:shasha\",\"Up\",\"40\",\"7\",\"4\",\"3B\",\"C1\",\"C\",\"100\"
\"\",\"\",\"approach-retreat\",\"104\",\"792142\",\"0.0-104.0\",\"\",\"\",\"3-2\",\"4293\",\"38\",\"1\",\"Training\",\"Stims/Figures/93-C-30-1.bmp\",\"va:shasha\",\"Down\",\"38\",\"7\",\"5\",\"3B\",\"C1\",\"C\",\"101\"
\"\",\"\",\"approach-retreat\",\"105\",\"797778\",\"0.0-105.0\",\"\",\"\",\"3-2\",\"4131\",\"40\",\"1\",\"Training\",\"Stims/Figures/128-C-30-3.bmp\",\"va:shasha\",\"Up\",\"40\",\"7\",\"6\",\"3B\",\"C1\",\"C\",\"102\"
\"\",\"\",\"approach-retreat\",\"106\",\"804175\",\"0.0-106.0\",\"\",\"\",\"3-2\",\"4893\",\"39\",\"1\",\"Training\",\"Stims/Figures/93-J-0-1.bmp\",\"sa:saza\",\"Right\",\"39\",\"7\",\"7\",\"3B\",\"C2\",\"C\",\"103\"
\"\",\"\",\"approach-retreat\",\"107\",\"811156\",\"0.0-107.0\",\"\",\"\",\"3-2\",\"5476\",\"39\",\"1\",\"Training\",\"Stims/Figures/139-C-20-2.bmp\",\"va:shasha\",\"Left\",\"39\",\"7\",\"8\",\"3B\",\"C1\",\"C\",\"104\"
\"\",\"\",\"approach-retreat\",\"108\",\"818168\",\"0.0-108.0\",\"\",\"\",\"3-2\",\"5508\",\"39\",\"1\",\"Training\",\"Stims/Figures/128-J-10-3.bmp\",\"sa:saza\",\"Right\",\"39\",\"7\",\"9\",\"3B\",\"C2\",\"C\",\"105\"
\"\",\"\",\"approach-retreat\",\"109\",\"828710\",\"0.0-109.0\",\"\",\"\",\"3-2\",\"9035\",\"38\",\"1\",\"Training\",\"Stims/Figures/87-J-10-4.bmp\",\"sa:saza\",\"Up\",\"38\",\"7\",\"10\",\"3B\",\"C2\",\"C\",\"106\"
\"\",\"\",\"approach-retreat\",\"110\",\"834727\",\"0.0-110.0\",\"\",\"\",\"3-2\",\"4514\",\"39\",\"1\",\"Training\",\"Stims/Figures/118-C-20-2.bmp\",\"va:shasha\",\"Left\",\"39\",\"7\",\"11\",\"3B\",\"C1\",\"C\",\"107\"
\"\",\"\",\"approach-retreat\",\"111\",\"840287\",\"0.0-111.0\",\"\",\"\",\"3-2\",\"4055\",\"40\",\"1\",\"Training\",\"Stims/Figures/87-C-20-4.bmp\",\"va:shasha\",\"Up\",\"40\",\"7\",\"12\",\"3B\",\"C1\",\"C\",\"108\"
\"\",\"\",\"approach-retreat\",\"112\",\"846734\",\"0.0-112.0\",\"\",\"\",\"3-2\",\"4941\",\"39\",\"1\",\"Training\",\"Stims/Figures/118-J-0-2.bmp\",\"sa:saza\",\"Right\",\"39\",\"7\",\"13\",\"3B\",\"C2\",\"C\",\"109\"
\"\",\"\",\"approach-retreat\",\"113\",\"852892\",\"0.0-113.0\",\"\",\"\",\"3-2\",\"4653\",\"40\",\"1\",\"Training\",\"Stims/Figures/44-J-10-3.bmp\",\"sa:saza\",\"Down\",\"40\",\"7\",\"14\",\"3B\",\"C2\",\"C\",\"110\"
\"\",\"\",\"approach-retreat\",\"114\",\"859366\",\"0.0-114.0\",\"\",\"\",\"3-2\",\"4969\",\"37\",\"1\",\"Training\",\"Stims/Figures/139-J-0-2.bmp\",\"sa:saza\",\"Left\",\"37\",\"7\",\"15\",\"3B\",\"C2\",\"C\",\"111\"
\"\",\"\",\"approach-retreat\",\"115\",\"864960\",\"0.0-115.0\",\"\",\"\",\"3-2\",\"4089\",\"39\",\"1\",\"Training\",\"Stims/Figures/74-J-10-4.bmp\",\"sa:saza\",\"Right\",\"39\",\"7\",\"16\",\"3B\",\"C2\",\"C\",\"112\"
\"\",\"\",\"approach-retreat\",\"116\",\"872273\",\"0.0-116.0\",\"\",\"\",\"3-2\",\"5809\",\"40\",\"1\",\"Training\",\"Stims/Figures/74-J-10-4.bmp\",\"sa:saza\",\"Down\",\"40\",\"8\",\"1\",\"3B\",\"C2\",\"C\",\"113\"
\"\",\"\",\"approach-retreat\",\"117\",\"879061\",\"0.0-117.0\",\"\",\"\",\"3-2\",\"5284\",\"39\",\"1\",\"Training\",\"Stims/Figures/87-J-10-4.bmp\",\"sa:saza\",\"Right\",\"39\",\"8\",\"2\",\"3B\",\"C2\",\"C\",\"114\"
\"\",\"\",\"approach-retreat\",\"118\",\"885126\",\"0.0-118.0\",\"\",\"\",\"3-2\",\"4560\",\"40\",\"1\",\"Training\",\"Stims/Figures/44-C-30-3.bmp\",\"va:shasha\",\"Up\",\"40\",\"8\",\"3\",\"3B\",\"C1\",\"C\",\"115\"
\"\",\"\",\"approach-retreat\",\"119\",\"891205\",\"0.0-119.0\",\"\",\"\",\"3-2\",\"4574\",\"38\",\"1\",\"Training\",\"Stims/Figures/139-C-20-2.bmp\",\"va:shasha\",\"Down\",\"38\",\"8\",\"4\",\"3B\",\"C1\",\"C\",\"116\"
\"\",\"\",\"approach-retreat\",\"120\",\"898426\",\"0.0-120.0\",\"\",\"\",\"3-2\",\"5717\",\"38\",\"1\",\"Training\",\"Stims/Figures/93-J-0-1.bmp\",\"sa:saza\",\"Up\",\"38\",\"8\",\"5\",\"3B\",\"C2\",\"C\",\"117\"
\"\",\"\",\"approach-retreat\",\"121\",\"904135\",\"0.0-121.0\",\"\",\"\",\"3-2\",\"4206\",\"39\",\"0\",\"Training\",\"Stims/Figures/93-C-30-1.bmp\",\"va:shasha\",\"Right\",\"37\",\"8\",\"6\",\"3B\",\"C1\",\"C\",\"118\"
\"\",\"\",\"approach-retreat\",\"122\",\"909818\",\"0.0-122.0\",\"\",\"\",\"3-2\",\"4178\",\"39\",\"1\",\"Training\",\"Stims/Figures/139-J-0-2.bmp\",\"sa:saza\",\"Right\",\"39\",\"8\",\"7\",\"3B\",\"C2\",\"C\",\"119\"
\"\",\"\",\"approach-retreat\",\"123\",\"916756\",\"0.0-123.0\",\"\",\"\",\"3-2\",\"5435\",\"39\",\"1\",\"Training\",\"Stims/Figures/87-C-20-4.bmp\",\"va:shasha\",\"Left\",\"39\",\"8\",\"8\",\"3B\",\"C1\",\"C\",\"120\"
\"\",\"\",\"approach-retreat\",\"124\",\"922547\",\"0.0-124.0\",\"\",\"\",\"3-2\",\"4286\",\"40\",\"1\",\"Training\",\"Stims/Figures/71-C-30-1.bmp\",\"va:shasha\",\"Up\",\"40\",\"8\",\"9\",\"3B\",\"C1\",\"C\",\"121\"
\"\",\"\",\"approach-retreat\",\"125\",\"933250\",\"0.0-125.0\",\"\",\"\",\"3-2\",\"9199\",\"40\",\"1\",\"Training\",\"Stims/Figures/71-J-0-1.bmp\",\"sa:saza\",\"Down\",\"40\",\"8\",\"10\",\"3B\",\"C2\",\"C\",\"122\"
\"\",\"\",\"approach-retreat\",\"126\",\"938978\",\"0.0-126.0\",\"\",\"\",\"3-2\",\"4223\",\"38\",\"1\",\"Training\",\"Stims/Figures/128-C-30-3.bmp\",\"va:shasha\",\"Down\",\"38\",\"8\",\"11\",\"3B\",\"C1\",\"C\",\"123\"
\"\",\"\",\"approach-retreat\",\"127\",\"944688\",\"0.0-127.0\",\"\",\"\",\"3-2\",\"4204\",\"39\",\"1\",\"Training\",\"Stims/Figures/74-C-20-4.bmp\",\"va:shasha\",\"Left\",\"39\",\"8\",\"12\",\"3B\",\"C1\",\"C\",\"124\"
\"\",\"\",\"approach-retreat\",\"128\",\"951518\",\"0.0-128.0\",\"\",\"\",\"3-2\",\"5324\",\"38\",\"1\",\"Training\",\"Stims/Figures/118-J-0-2.bmp\",\"sa:saza\",\"Up\",\"38\",\"8\",\"13\",\"3B\",\"C2\",\"C\",\"125\"
\"\",\"\",\"approach-retreat\",\"129\",\"958878\",\"0.0-129.0\",\"\",\"\",\"3-2\",\"5856\",\"37\",\"1\",\"Training\",\"Stims/Figures/118-C-20-2.bmp\",\"va:shasha\",\"Right\",\"37\",\"8\",\"14\",\"3B\",\"C1\",\"C\",\"126\"
\"\",\"\",\"approach-retreat\",\"130\",\"964999\",\"0.0-130.0\",\"\",\"\",\"3-2\",\"4615\",\"37\",\"1\",\"Training\",\"Stims/Figures/128-J-10-3.bmp\",\"sa:saza\",\"Left\",\"37\",\"8\",\"15\",\"3B\",\"C2\",\"C\",\"127\"
\"\",\"\",\"approach-retreat\",\"131\",\"970706\",\"0.0-131.0\",\"\",\"\",\"3-2\",\"4202\",\"37\",\"1\",\"Training\",\"Stims/Figures/44-J-10-3.bmp\",\"sa:saza\",\"Left\",\"37\",\"8\",\"16\",\"3B\",\"C2\",\"C\",\"128\"
\"\",\"\",\"approach-retreat\",\"132\",\"976831\",\"0.0-132.0\",\"\",\"\",\"3-2\",\"4619\",\"39\",\"1\",\"Training\",\"Stims/Figures/71-J-0-1.bmp\",\"sa:saza\",\"Right\",\"39\",\"9\",\"1\",\"3B\",\"C2\",\"C\",\"129\"
\"\",\"\",\"approach-retreat\",\"133\",\"985237\",\"0.0-133.0\",\"\",\"\",\"3-2\",\"6901\",\"38\",\"1\",\"Training\",\"Stims/Figures/44-J-10-3.bmp\",\"sa:saza\",\"Up\",\"38\",\"9\",\"2\",\"3B\",\"C2\",\"C\",\"130\"
\"\",\"\",\"approach-retreat\",\"134\",\"992702\",\"0.0-134.0\",\"\",\"\",\"3-2\",\"5960\",\"38\",\"1\",\"Training\",\"Stims/Figures/71-C-30-1.bmp\",\"va:shasha\",\"Down\",\"38\",\"9\",\"3\",\"3B\",\"C1\",\"C\",\"131\"
\"\",\"\",\"approach-retreat\",\"135\",\"998471\",\"0.0-135.0\",\"\",\"\",\"3-2\",\"4264\",\"38\",\"1\",\"Training\",\"Stims/Figures/128-C-30-3.bmp\",\"va:shasha\",\"Down\",\"38\",\"9\",\"4\",\"3B\",\"C1\",\"C\",\"132\"
\"\",\"\",\"approach-retreat\",\"136\",\"1004593\",\"0.0-136.0\",\"\",\"\",\"3-2\",\"4618\",\"39\",\"1\",\"Training\",\"Stims/Figures/74-J-10-4.bmp\",\"sa:saza\",\"Right\",\"39\",\"9\",\"5\",\"3B\",\"C2\",\"C\",\"133\"
\"\",\"\",\"approach-retreat\",\"137\",\"1010460\",\"0.0-137.0\",\"\",\"\",\"3-2\",\"4362\",\"37\",\"1\",\"Training\",\"Stims/Figures/139-C-20-2.bmp\",\"va:shasha\",\"Right\",\"37\",\"9\",\"6\",\"3B\",\"C1\",\"C\",\"134\"
\"\",\"\",\"approach-retreat\",\"138\",\"1016634\",\"0.0-138.0\",\"\",\"\",\"3-2\",\"4669\",\"37\",\"1\",\"Training\",\"Stims/Figures/118-J-0-2.bmp\",\"sa:saza\",\"Left\",\"37\",\"9\",\"7\",\"3B\",\"C2\",\"C\",\"135\"
\"\",\"\",\"approach-retreat\",\"139\",\"1022641\",\"0.0-139.0\",\"\",\"\",\"3-2\",\"4502\",\"40\",\"1\",\"Training\",\"Stims/Figures/93-J-0-1.bmp\",\"sa:saza\",\"Down\",\"40\",\"9\",\"8\",\"3B\",\"C2\",\"C\",\"136\"
\"\",\"\",\"approach-retreat\",\"140\",\"1028577\",\"0.0-140.0\",\"\",\"\",\"3-2\",\"4432\",\"39\",\"1\",\"Training\",\"Stims/Figures/118-C-20-2.bmp\",\"va:shasha\",\"Left\",\"39\",\"9\",\"9\",\"3B\",\"C1\",\"C\",\"137\"
\"\",\"\",\"approach-retreat\",\"141\",\"1034764\",\"0.0-141.0\",\"\",\"\",\"3-2\",\"4683\",\"40\",\"0\",\"Training\",\"Stims/Figures/139-J-0-2.bmp\",\"sa:saza\",\"Up\",\"38\",\"9\",\"10\",\"3B\",\"C2\",\"C\",\"138\"
\"\",\"\",\"approach-retreat\",\"142\",\"1040990\",\"0.0-142.0\",\"\",\"\",\"3-2\",\"4721\",\"38\",\"1\",\"Training\",\"Stims/Figures/93-C-30-1.bmp\",\"va:shasha\",\"Down\",\"38\",\"9\",\"11\",\"3B\",\"C1\",\"C\",\"139\"
\"\",\"\",\"approach-retreat\",\"143\",\"1046856\",\"0.0-143.0\",\"\",\"\",\"3-2\",\"4362\",\"37\",\"1\",\"Training\",\"Stims/Figures/87-J-10-4.bmp\",\"sa:saza\",\"Left\",\"37\",\"9\",\"12\",\"3B\",\"C2\",\"C\",\"140\"
\"\",\"\",\"approach-retreat\",\"144\",\"1052494\",\"0.0-144.0\",\"\",\"\",\"3-2\",\"4132\",\"37\",\"1\",\"Training\",\"Stims/Figures/128-J-10-3.bmp\",\"sa:saza\",\"Left\",\"37\",\"9\",\"13\",\"3B\",\"C2\",\"C\",\"141\"
\"\",\"\",\"approach-retreat\",\"145\",\"1058381\",\"0.0-145.0\",\"\",\"\",\"3-2\",\"4382\",\"38\",\"0\",\"Training\",\"Stims/Figures/44-C-30-3.bmp\",\"va:shasha\",\"Up\",\"40\",\"9\",\"14\",\"3B\",\"C1\",\"C\",\"142\"
\"\",\"\",\"approach-retreat\",\"146\",\"1064263\",\"0.0-146.0\",\"\",\"\",\"3-2\",\"4377\",\"40\",\"1\",\"Training\",\"Stims/Figures/87-C-20-4.bmp\",\"va:shasha\",\"Up\",\"40\",\"9\",\"15\",\"3B\",\"C1\",\"C\",\"143\"
\"\",\"\",\"approach-retreat\",\"147\",\"1072148\",\"0.0-147.0\",\"\",\"\",\"3-2\",\"6381\",\"37\",\"1\",\"Training\",\"Stims/Figures/74-C-20-4.bmp\",\"va:shasha\",\"Right\",\"37\",\"9\",\"16\",\"3B\",\"C1\",\"C\",\"144\"
\"12648\",\"\",\"instructions\",\"148\",\"1084797\",\"0.0-148.0\",\"[{\"\"page_index\"\":0,\"\"viewing_time\"\":12648}]\",\"\",\"\",\"\",\"\",\"\",\"\",\"\",\"\",\"\",\"\",\"\",\"\",\"\",\"\",\"\",\"\"
\"\",\"\",\"approach-retreat\",\"149\",\"1091550\",\"0.0-149.0\",\"\",\"\",\"3-2\",\"5249\",\"39\",\"1\",\"Testing\",\"Stims/Figures/27-J-0-1.bmp\",\"sa:saza\",\"Right\",\"39\",\"1\",\"1\",\"3B\",\"C2\",\"C\",\"1\"
\"\",\"\",\"approach-retreat\",\"150\",\"1097204\",\"0.0-150.0\",\"\",\"\",\"3-2\",\"4149\",\"38\",\"1\",\"Testing\",\"Stims/Figures/118-C-20-2.bmp\",\"va:shasha\",\"Down\",\"38\",\"1\",\"2\",\"3B\",\"C1\",\"C\",\"2\"
\"\",\"\",\"approach-retreat\",\"151\",\"1104071\",\"0.0-151.0\",\"\",\"\",\"3-2\",\"5363\",\"37\",\"1\",\"Testing\",\"Stims/Figures/74-J-10-4.bmp\",\"sa:saza\",\"Left\",\"37\",\"1\",\"3\",\"3B\",\"C2\",\"C\",\"3\"
\"\",\"\",\"approach-retreat\",\"152\",\"1109727\",\"0.0-152.0\",\"\",\"\",\"3-2\",\"4152\",\"37\",\"0\",\"Testing\",\"Stims/Figures/19-C-20-4.bmp\",\"va:shasha\",\"Left\",\"39\",\"1\",\"4\",\"3B\",\"C1\",\"C\",\"4\"
\"\",\"\",\"approach-retreat\",\"153\",\"1116861\",\"0.0-153.0\",\"\",\"\",\"3-2\",\"5630\",\"38\",\"0\",\"Testing\",\"Stims/Figures/87-C-20-4.bmp\",\"va:shasha\",\"Up\",\"40\",\"1\",\"5\",\"3B\",\"C1\",\"C\",\"5\"
\"\",\"\",\"approach-retreat\",\"154\",\"1122528\",\"0.0-154.0\",\"\",\"\",\"3-2\",\"4162\",\"39\",\"1\",\"Testing\",\"Stims/Figures/139-C-20-2.bmp\",\"va:shasha\",\"Left\",\"39\",\"1\",\"6\",\"3B\",\"C1\",\"C\",\"6\"
\"\",\"\",\"approach-retreat\",\"155\",\"1129145\",\"0.0-155.0\",\"\",\"\",\"3-2\",\"5115\",\"38\",\"1\",\"Testing\",\"Stims/Figures/100-J-10-3.bmp\",\"sa:saza\",\"Up\",\"38\",\"1\",\"7\",\"3B\",\"C2\",\"C\",\"7\"
\"\",\"\",\"approach-retreat\",\"156\",\"1135067\",\"0.0-156.0\",\"\",\"\",\"3-2\",\"4418\",\"40\",\"1\",\"Testing\",\"Stims/Figures/27-C-30-1.bmp\",\"va:shasha\",\"Up\",\"40\",\"1\",\"8\",\"3B\",\"C1\",\"C\",\"8\"
\"\",\"\",\"approach-retreat\",\"157\",\"1140944\",\"0.0-157.0\",\"\",\"\",\"3-2\",\"4372\",\"39\",\"1\",\"Testing\",\"Stims/Figures/128-C-30-3.bmp\",\"va:shasha\",\"Left\",\"39\",\"1\",\"9\",\"3B\",\"C1\",\"C\",\"9\"
\"\",\"\",\"approach-retreat\",\"158\",\"1148548\",\"0.0-158.0\",\"\",\"\",\"3-2\",\"6100\",\"39\",\"1\",\"Testing\",\"Stims/Figures/19-J-10-4.bmp\",\"sa:saza\",\"Right\",\"39\",\"1\",\"10\",\"3B\",\"C2\",\"C\",\"10\"
\"\",\"\",\"approach-retreat\",\"159\",\"1155156\",\"0.0-159.0\",\"\",\"\",\"3-2\",\"5103\",\"38\",\"1\",\"Testing\",\"Stims/Figures/44-J-10-3.bmp\",\"sa:saza\",\"Up\",\"38\",\"1\",\"11\",\"3B\",\"C2\",\"C\",\"11\"
\"\",\"\",\"approach-retreat\",\"160\",\"1162135\",\"0.0-160.0\",\"\",\"\",\"3-2\",\"5476\",\"38\",\"0\",\"Testing\",\"Stims/Figures/118-J-0-2.bmp\",\"sa:saza\",\"Down\",\"40\",\"1\",\"12\",\"3B\",\"C2\",\"C\",\"12\"
\"\",\"\",\"approach-retreat\",\"161\",\"1169848\",\"0.0-161.0\",\"\",\"\",\"3-2\",\"6210\",\"38\",\"1\",\"Testing\",\"Stims/Figures/93-J-0-1.bmp\",\"sa:saza\",\"Up\",\"38\",\"1\",\"13\",\"3B\",\"C2\",\"C\",\"13\"
\"\",\"\",\"approach-retreat\",\"162\",\"1176102\",\"0.0-162.0\",\"\",\"\",\"3-2\",\"4750\",\"37\",\"1\",\"Testing\",\"Stims/Figures/85-C-20-2.bmp\",\"va:shasha\",\"Right\",\"37\",\"1\",\"14\",\"3B\",\"C1\",\"C\",\"14\"
\"\",\"\",\"approach-retreat\",\"163\",\"1181799\",\"0.0-163.0\",\"\",\"\",\"3-2\",\"4194\",\"39\",\"1\",\"Testing\",\"Stims/Figures/139-J-0-2.bmp\",\"sa:saza\",\"Right\",\"39\",\"1\",\"15\",\"3B\",\"C2\",\"C\",\"15\"
\"\",\"\",\"approach-retreat\",\"164\",\"1187471\",\"0.0-164.0\",\"\",\"\",\"3-2\",\"4166\",\"39\",\"1\",\"Testing\",\"Stims/Figures/128-J-10-3.bmp\",\"sa:saza\",\"Right\",\"39\",\"1\",\"16\",\"3B\",\"C2\",\"C\",\"16\"
\"\",\"\",\"approach-retreat\",\"165\",\"1193531\",\"0.0-165.0\",\"\",\"\",\"3-2\",\"4556\",\"39\",\"1\",\"Testing\",\"Stims/Figures/74-C-20-4.bmp\",\"va:shasha\",\"Left\",\"39\",\"1\",\"17\",\"3B\",\"C1\",\"C\",\"17\"
\"\",\"\",\"approach-retreat\",\"166\",\"1203561\",\"0.0-166.0\",\"\",\"\",\"3-2\",\"8525\",\"38\",\"1\",\"Testing\",\"Stims/Figures/71-C-30-1.bmp\",\"va:shasha\",\"Down\",\"38\",\"1\",\"18\",\"3B\",\"C1\",\"C\",\"18\"
\"\",\"\",\"approach-retreat\",\"167\",\"1211495\",\"0.0-167.0\",\"\",\"\",\"3-2\",\"6427\",\"38\",\"1\",\"Testing\",\"Stims/Figures/44-C-30-3.bmp\",\"va:shasha\",\"Down\",\"38\",\"1\",\"19\",\"3B\",\"C1\",\"C\",\"19\"
\"\",\"\",\"approach-retreat\",\"168\",\"1217938\",\"0.0-168.0\",\"\",\"\",\"3-2\",\"4940\",\"38\",\"1\",\"Testing\",\"Stims/Figures/71-J-0-1.bmp\",\"sa:saza\",\"Up\",\"38\",\"1\",\"20\",\"3B\",\"C2\",\"C\",\"20\"
\"\",\"\",\"approach-retreat\",\"169\",\"1226204\",\"0.0-169.0\",\"\",\"\",\"3-2\",\"6761\",\"40\",\"1\",\"Testing\",\"Stims/Figures/85-J-0-2.bmp\",\"sa:saza\",\"Down\",\"40\",\"1\",\"21\",\"3B\",\"C2\",\"C\",\"21\"
\"\",\"\",\"approach-retreat\",\"170\",\"1232273\",\"0.0-170.0\",\"\",\"\",\"3-2\",\"4564\",\"38\",\"1\",\"Testing\",\"Stims/Figures/100-C-30-3.bmp\",\"va:shasha\",\"Down\",\"38\",\"1\",\"22\",\"3B\",\"C1\",\"C\",\"22\"
\"\",\"\",\"approach-retreat\",\"171\",\"1238317\",\"0.0-171.0\",\"\",\"\",\"3-2\",\"4541\",\"39\",\"1\",\"Testing\",\"Stims/Figures/93-C-30-1.bmp\",\"va:shasha\",\"Left\",\"39\",\"1\",\"23\",\"3B\",\"C1\",\"C\",\"23\"
\"\",\"\",\"approach-retreat\",\"172\",\"1244575\",\"0.0-172.0\",\"\",\"\",\"3-2\",\"4752\",\"39\",\"1\",\"Testing\",\"Stims/Figures/87-J-10-4.bmp\",\"sa:saza\",\"Right\",\"39\",\"1\",\"24\",\"3B\",\"C2\",\"C\",\"24\"
\"\",\"\",\"approach-retreat\",\"173\",\"1250902\",\"0.0-173.0\",\"\",\"\",\"3-2\",\"4824\",\"37\",\"1\",\"Testing\",\"Stims/Figures/71-J-0-1.bmp\",\"sa:saza\",\"Left\",\"37\",\"2\",\"1\",\"3B\",\"C2\",\"C\",\"25\"
\"\",\"\",\"approach-retreat\",\"174\",\"1256559\",\"0.0-174.0\",\"\",\"\",\"3-2\",\"4154\",\"39\",\"0\",\"Testing\",\"Stims/Figures/87-C-20-4.bmp\",\"va:shasha\",\"Right\",\"37\",\"2\",\"2\",\"3B\",\"C1\",\"C\",\"26\"
\"\",\"\",\"approach-retreat\",\"175\",\"1262507\",\"0.0-175.0\",\"\",\"\",\"3-2\",\"4444\",\"38\",\"1\",\"Testing\",\"Stims/Figures/85-C-20-2.bmp\",\"va:shasha\",\"Down\",\"38\",\"2\",\"3\",\"3B\",\"C1\",\"C\",\"27\"
\"\",\"\",\"approach-retreat\",\"176\",\"1268475\",\"0.0-176.0\",\"\",\"\",\"3-2\",\"4464\",\"40\",\"1\",\"Testing\",\"Stims/Figures/93-C-30-1.bmp\",\"va:shasha\",\"Up\",\"40\",\"2\",\"4\",\"3B\",\"C1\",\"C\",\"28\"
\"\",\"\",\"approach-retreat\",\"177\",\"1275236\",\"0.0-177.0\",\"\",\"\",\"3-2\",\"5257\",\"39\",\"1\",\"Testing\",\"Stims/Figures/71-C-30-1.bmp\",\"va:shasha\",\"Left\",\"39\",\"2\",\"5\",\"3B\",\"C1\",\"C\",\"29\"
\"\",\"\",\"approach-retreat\",\"178\",\"1281320\",\"0.0-178.0\",\"\",\"\",\"3-2\",\"4580\",\"40\",\"1\",\"Testing\",\"Stims/Figures/139-C-20-2.bmp\",\"va:shasha\",\"Up\",\"40\",\"2\",\"6\",\"3B\",\"C1\",\"C\",\"30\"
\"\",\"\",\"approach-retreat\",\"179\",\"1287708\",\"0.0-179.0\",\"\",\"\",\"3-2\",\"4884\",\"37\",\"1\",\"Testing\",\"Stims/Figures/100-C-30-3.bmp\",\"va:shasha\",\"Right\",\"37\",\"2\",\"7\",\"3B\",\"C1\",\"C\",\"31\"
\"\",\"\",\"approach-retreat\",\"180\",\"1298559\",\"0.0-180.0\",\"\",\"\",\"3-2\",\"9348\",\"38\",\"1\",\"Testing\",\"Stims/Figures/27-C-30-1.bmp\",\"va:shasha\",\"Down\",\"38\",\"2\",\"8\",\"3B\",\"C1\",\"C\",\"32\"
\"\",\"\",\"approach-retreat\",\"181\",\"1305232\",\"0.0-181.0\",\"\",\"\",\"3-2\",\"5169\",\"37\",\"1\",\"Testing\",\"Stims/Figures/118-J-0-2.bmp\",\"sa:saza\",\"Left\",\"37\",\"2\",\"9\",\"3B\",\"C2\",\"C\",\"33\"
\"\",\"\",\"approach-retreat\",\"182\",\"1311155\",\"0.0-182.0\",\"\",\"\",\"3-2\",\"4420\",\"37\",\"1\",\"Testing\",\"Stims/Figures/85-J-0-2.bmp\",\"sa:saza\",\"Left\",\"37\",\"2\",\"10\",\"3B\",\"C2\",\"C\",\"34\"
\"\",\"\",\"approach-retreat\",\"183\",\"1317639\",\"0.0-183.0\",\"\",\"\",\"3-2\",\"4980\",\"40\",\"1\",\"Testing\",\"Stims/Figures/19-J-10-4.bmp\",\"sa:saza\",\"Down\",\"40\",\"2\",\"11\",\"3B\",\"C2\",\"C\",\"35\"
\"\",\"\",\"approach-retreat\",\"184\",\"1328568\",\"0.0-184.0\",\"\",\"\",\"3-2\",\"9425\",\"38\",\"0\",\"Testing\",\"Stims/Figures/74-C-20-4.bmp\",\"va:shasha\",\"Up\",\"40\",\"2\",\"12\",\"3B\",\"C1\",\"C\",\"36\"
\"\",\"\",\"approach-retreat\",\"185\",\"1334768\",\"0.0-185.0\",\"\",\"\",\"3-2\",\"4696\",\"38\",\"1\",\"Testing\",\"Stims/Figures/87-J-10-4.bmp\",\"sa:saza\",\"Up\",\"38\",\"2\",\"13\",\"3B\",\"C2\",\"C\",\"37\"
\"\",\"\",\"approach-retreat\",\"186\",\"1340647\",\"0.0-186.0\",\"\",\"\",\"3-2\",\"4375\",\"38\",\"1\",\"Testing\",\"Stims/Figures/74-J-10-4.bmp\",\"sa:saza\",\"Up\",\"38\",\"2\",\"14\",\"3B\",\"C2\",\"C\",\"38\"
\"\",\"\",\"approach-retreat\",\"187\",\"1347881\",\"0.0-187.0\",\"\",\"\",\"3-2\",\"5731\",\"39\",\"0\",\"Testing\",\"Stims/Figures/19-C-20-4.bmp\",\"va:shasha\",\"Right\",\"37\",\"2\",\"15\",\"3B\",\"C1\",\"C\",\"39\"
\"\",\"\",\"approach-retreat\",\"188\",\"1353932\",\"0.0-188.0\",\"\",\"\",\"3-2\",\"4546\",\"38\",\"1\",\"Testing\",\"Stims/Figures/44-C-30-3.bmp\",\"va:shasha\",\"Down\",\"38\",\"2\",\"16\",\"3B\",\"C1\",\"C\",\"40\"
\"\",\"\",\"approach-retreat\",\"189\",\"1360052\",\"0.0-189.0\",\"\",\"\",\"3-2\",\"4615\",\"37\",\"1\",\"Testing\",\"Stims/Figures/93-J-0-1.bmp\",\"sa:saza\",\"Left\",\"37\",\"2\",\"17\",\"3B\",\"C2\",\"C\",\"41\"
\"\",\"\",\"approach-retreat\",\"190\",\"1366698\",\"0.0-190.0\",\"\",\"\",\"3-2\",\"5142\",\"38\",\"1\",\"Testing\",\"Stims/Figures/128-J-10-3.bmp\",\"sa:saza\",\"Up\",\"38\",\"2\",\"18\",\"3B\",\"C2\",\"C\",\"42\"
\"\",\"\",\"approach-retreat\",\"191\",\"1372371\",\"0.0-191.0\",\"\",\"\",\"3-2\",\"4170\",\"38\",\"1\",\"Testing\",\"Stims/Figures/118-C-20-2.bmp\",\"va:shasha\",\"Down\",\"38\",\"2\",\"19\",\"3B\",\"C1\",\"C\",\"43\"
\"\",\"\",\"approach-retreat\",\"192\",\"1379218\",\"0.0-192.0\",\"\",\"\",\"3-2\",\"5342\",\"39\",\"1\",\"Testing\",\"Stims/Figures/139-J-0-2.bmp\",\"sa:saza\",\"Right\",\"39\",\"2\",\"20\",\"3B\",\"C2\",\"C\",\"44\"
\"\",\"\",\"approach-retreat\",\"193\",\"1385135\",\"0.0-193.0\",\"\",\"\",\"3-2\",\"4412\",\"37\",\"1\",\"Testing\",\"Stims/Figures/128-C-30-3.bmp\",\"va:shasha\",\"Right\",\"37\",\"2\",\"21\",\"3B\",\"C1\",\"C\",\"45\"
\"\",\"\",\"approach-retreat\",\"194\",\"1391090\",\"0.0-194.0\",\"\",\"\",\"3-2\",\"4452\",\"39\",\"1\",\"Testing\",\"Stims/Figures/44-J-10-3.bmp\",\"sa:saza\",\"Right\",\"39\",\"2\",\"22\",\"3B\",\"C2\",\"C\",\"46\"
\"\",\"\",\"approach-retreat\",\"195\",\"1397946\",\"0.0-195.0\",\"\",\"\",\"3-2\",\"5351\",\"37\",\"1\",\"Testing\",\"Stims/Figures/27-J-0-1.bmp\",\"sa:saza\",\"Left\",\"37\",\"2\",\"23\",\"3B\",\"C2\",\"C\",\"47\"
\"\",\"\",\"approach-retreat\",\"196\",\"1408924\",\"0.0-196.0\",\"\",\"\",\"3-2\",\"9475\",\"40\",\"1\",\"Testing\",\"Stims/Figures/100-J-10-3.bmp\",\"sa:saza\",\"Down\",\"40\",\"2\",\"24\",\"3B\",\"C2\",\"C\",\"48\"
\"\",\"\",\"approach-retreat\",\"197\",\"1415928\",\"0.0-197.0\",\"\",\"\",\"3-2\",\"5499\",\"37\",\"1\",\"Testing\",\"Stims/Figures/100-C-30-3.bmp\",\"va:shasha\",\"Right\",\"37\",\"3\",\"1\",\"3B\",\"C1\",\"C\",\"49\"
\"\",\"\",\"approach-retreat\",\"198\",\"1422821\",\"0.0-198.0\",\"\",\"\",\"3-2\",\"5389\",\"39\",\"1\",\"Testing\",\"Stims/Figures/93-J-0-1.bmp\",\"sa:saza\",\"Right\",\"39\",\"3\",\"2\",\"3B\",\"C2\",\"C\",\"50\"
\"\",\"\",\"approach-retreat\",\"199\",\"1431205\",\"0.0-199.0\",\"\",\"\",\"3-2\",\"6878\",\"39\",\"1\",\"Testing\",\"Stims/Figures/27-C-30-1.bmp\",\"va:shasha\",\"Left\",\"39\",\"3\",\"3\",\"3B\",\"C1\",\"C\",\"51\"
\"\",\"\",\"approach-retreat\",\"200\",\"1438898\",\"0.0-200.0\",\"\",\"\",\"3-2\",\"6189\",\"38\",\"1\",\"Testing\",\"Stims/Figures/139-J-0-2.bmp\",\"sa:saza\",\"Up\",\"38\",\"3\",\"4\",\"3B\",\"C2\",\"C\",\"52\"
\"\",\"\",\"approach-retreat\",\"201\",\"1444661\",\"0.0-201.0\",\"\",\"\",\"3-2\",\"4259\",\"37\",\"1\",\"Testing\",\"Stims/Figures/85-C-20-2.bmp\",\"va:shasha\",\"Right\",\"37\",\"3\",\"5\",\"3B\",\"C1\",\"C\",\"53\"
\"\",\"\",\"approach-retreat\",\"202\",\"1450673\",\"0.0-202.0\",\"\",\"\",\"3-2\",\"4506\",\"37\",\"1\",\"Testing\",\"Stims/Figures/27-J-0-1.bmp\",\"sa:saza\",\"Left\",\"37\",\"3\",\"6\",\"3B\",\"C2\",\"C\",\"54\"
\"\",\"\",\"approach-retreat\",\"203\",\"1456591\",\"0.0-203.0\",\"\",\"\",\"3-2\",\"4414\",\"37\",\"1\",\"Testing\",\"Stims/Figures/44-J-10-3.bmp\",\"sa:saza\",\"Left\",\"37\",\"3\",\"7\",\"3B\",\"C2\",\"C\",\"55\"
\"\",\"\",\"approach-retreat\",\"204\",\"1462488\",\"0.0-204.0\",\"\",\"\",\"3-2\",\"4393\",\"39\",\"1\",\"Testing\",\"Stims/Figures/44-C-30-3.bmp\",\"va:shasha\",\"Left\",\"39\",\"3\",\"8\",\"3B\",\"C1\",\"C\",\"56\"
\"\",\"\",\"approach-retreat\",\"205\",\"1469442\",\"0.0-205.0\",\"\",\"\",\"3-2\",\"5449\",\"37\",\"1\",\"Testing\",\"Stims/Figures/71-C-30-1.bmp\",\"va:shasha\",\"Right\",\"37\",\"3\",\"9\",\"3B\",\"C1\",\"C\",\"57\"
\"\",\"\",\"approach-retreat\",\"206\",\"1475698\",\"0.0-206.0\",\"\",\"\",\"3-2\",\"4752\",\"40\",\"1\",\"Testing\",\"Stims/Figures/74-C-20-4.bmp\",\"va:shasha\",\"Up\",\"40\",\"3\",\"10\",\"3B\",\"C1\",\"C\",\"58\"
\"\",\"\",\"approach-retreat\",\"207\",\"1482839\",\"0.0-207.0\",\"\",\"\",\"3-2\",\"5636\",\"37\",\"1\",\"Testing\",\"Stims/Figures/19-J-10-4.bmp\",\"sa:saza\",\"Left\",\"37\",\"3\",\"11\",\"3B\",\"C2\",\"C\",\"59\"
\"\",\"\",\"approach-retreat\",\"208\",\"1491095\",\"0.0-208.0\",\"\",\"\",\"3-2\",\"6752\",\"38\",\"1\",\"Testing\",\"Stims/Figures/93-C-30-1.bmp\",\"va:shasha\",\"Down\",\"38\",\"3\",\"12\",\"3B\",\"C1\",\"C\",\"60\"
\"\",\"\",\"approach-retreat\",\"209\",\"1497184\",\"0.0-209.0\",\"\",\"\",\"3-2\",\"4585\",\"38\",\"1\",\"Testing\",\"Stims/Figures/128-C-30-3.bmp\",\"va:shasha\",\"Down\",\"38\",\"3\",\"13\",\"3B\",\"C1\",\"C\",\"61\"
\"\",\"\",\"approach-retreat\",\"210\",\"1503521\",\"0.0-210.0\",\"\",\"\",\"3-2\",\"4834\",\"38\",\"1\",\"Testing\",\"Stims/Figures/139-C-20-2.bmp\",\"va:shasha\",\"Down\",\"38\",\"3\",\"14\",\"3B\",\"C1\",\"C\",\"62\"
\"\",\"\",\"approach-retreat\",\"211\",\"1509943\",\"0.0-211.0\",\"\",\"\",\"3-2\",\"4917\",\"40\",\"1\",\"Testing\",\"Stims/Figures/87-J-10-4.bmp\",\"sa:saza\",\"Down\",\"40\",\"3\",\"15\",\"3B\",\"C2\",\"C\",\"63\"
\"\",\"\",\"approach-retreat\",\"212\",\"1515966\",\"0.0-212.0\",\"\",\"\",\"3-2\",\"4519\",\"39\",\"1\",\"Testing\",\"Stims/Figures/118-J-0-2.bmp\",\"sa:saza\",\"Right\",\"39\",\"3\",\"16\",\"3B\",\"C2\",\"C\",\"64\"
\"\",\"\",\"approach-retreat\",\"213\",\"1522292\",\"0.0-213.0\",\"\",\"\",\"3-2\",\"4823\",\"38\",\"1\",\"Testing\",\"Stims/Figures/71-J-0-1.bmp\",\"sa:saza\",\"Up\",\"38\",\"3\",\"17\",\"3B\",\"C2\",\"C\",\"65\"
\"\",\"\",\"approach-retreat\",\"214\",\"1528068\",\"0.0-214.0\",\"\",\"\",\"3-2\",\"4272\",\"39\",\"0\",\"Testing\",\"Stims/Figures/87-C-20-4.bmp\",\"va:shasha\",\"Right\",\"37\",\"3\",\"18\",\"3B\",\"C1\",\"C\",\"66\"
\"\",\"\",\"approach-retreat\",\"215\",\"1534265\",\"0.0-215.0\",\"\",\"\",\"3-2\",\"4692\",\"40\",\"1\",\"Testing\",\"Stims/Figures/74-J-10-4.bmp\",\"sa:saza\",\"Down\",\"40\",\"3\",\"19\",\"3B\",\"C2\",\"C\",\"67\"
\"\",\"\",\"approach-retreat\",\"216\",\"1540386\",\"0.0-216.0\",\"\",\"\",\"3-2\",\"4615\",\"40\",\"1\",\"Testing\",\"Stims/Figures/128-J-10-3.bmp\",\"sa:saza\",\"Down\",\"40\",\"3\",\"20\",\"3B\",\"C2\",\"C\",\"68\"
\"\",\"\",\"approach-retreat\",\"217\",\"1547104\",\"0.0-217.0\",\"\",\"\",\"3-2\",\"5213\",\"38\",\"1\",\"Testing\",\"Stims/Figures/85-J-0-2.bmp\",\"sa:saza\",\"Up\",\"38\",\"3\",\"21\",\"3B\",\"C2\",\"C\",\"69\"
\"\",\"\",\"approach-retreat\",\"218\",\"1553037\",\"0.0-218.0\",\"\",\"\",\"3-2\",\"4429\",\"38\",\"1\",\"Testing\",\"Stims/Figures/100-J-10-3.bmp\",\"sa:saza\",\"Up\",\"38\",\"3\",\"22\",\"3B\",\"C2\",\"C\",\"70\"
\"\",\"\",\"approach-retreat\",\"219\",\"1559106\",\"0.0-219.0\",\"\",\"\",\"3-2\",\"4566\",\"40\",\"1\",\"Testing\",\"Stims/Figures/118-C-20-2.bmp\",\"va:shasha\",\"Up\",\"40\",\"3\",\"23\",\"3B\",\"C1\",\"C\",\"71\"
\"\",\"\",\"approach-retreat\",\"220\",\"1566076\",\"0.0-220.0\",\"\",\"\",\"3-2\",\"5466\",\"37\",\"0\",\"Testing\",\"Stims/Figures/19-C-20-4.bmp\",\"va:shasha\",\"Left\",\"39\",\"3\",\"24\",\"3B\",\"C1\",\"C\",\"72\"
\"\",\"\",\"approach-retreat\",\"221\",\"1572503\",\"0.0-221.0\",\"\",\"\",\"3-2\",\"4923\",\"39\",\"1\",\"Testing\",\"Stims/Figures/87-C-20-4.bmp\",\"va:shasha\",\"Left\",\"39\",\"4\",\"1\",\"3B\",\"C1\",\"C\",\"73\"
\"\",\"\",\"approach-retreat\",\"222\",\"1578195\",\"0.0-222.0\",\"\",\"\",\"3-2\",\"4189\",\"38\",\"1\",\"Testing\",\"Stims/Figures/44-C-30-3.bmp\",\"va:shasha\",\"Down\",\"38\",\"4\",\"2\",\"3B\",\"C1\",\"C\",\"74\"
\"\",\"\",\"approach-retreat\",\"223\",\"1583935\",\"0.0-223.0\",\"\",\"\",\"3-2\",\"4236\",\"38\",\"1\",\"Testing\",\"Stims/Figures/87-J-10-4.bmp\",\"sa:saza\",\"Up\",\"38\",\"4\",\"3\",\"3B\",\"C2\",\"C\",\"75\"
\"\",\"\",\"approach-retreat\",\"224\",\"1595484\",\"0.0-224.0\",\"\",\"\",\"3-2\",\"10045\",\"40\",\"1\",\"Testing\",\"Stims/Figures/85-C-20-2.bmp\",\"va:shasha\",\"Up\",\"40\",\"4\",\"4\",\"3B\",\"C1\",\"C\",\"76\"
\"\",\"\",\"approach-retreat\",\"225\",\"1602320\",\"0.0-225.0\",\"\",\"\",\"3-2\",\"5333\",\"38\",\"1\",\"Testing\",\"Stims/Figures/44-J-10-3.bmp\",\"sa:saza\",\"Up\",\"38\",\"4\",\"5\",\"3B\",\"C2\",\"C\",\"77\"
\"\",\"\",\"approach-retreat\",\"226\",\"1608298\",\"0.0-226.0\",\"\",\"\",\"3-2\",\"4471\",\"39\",\"1\",\"Testing\",\"Stims/Figures/93-C-30-1.bmp\",\"va:shasha\",\"Left\",\"39\",\"4\",\"6\",\"3B\",\"C1\",\"C\",\"78\"
\"\",\"\",\"approach-retreat\",\"227\",\"1614952\",\"0.0-227.0\",\"\",\"\",\"3-2\",\"5150\",\"40\",\"1\",\"Testing\",\"Stims/Figures/74-J-10-4.bmp\",\"sa:saza\",\"Down\",\"40\",\"4\",\"7\",\"3B\",\"C2\",\"C\",\"79\"
\"\",\"\",\"approach-retreat\",\"228\",\"1621538\",\"0.0-228.0\",\"\",\"\",\"3-2\",\"5082\",\"37\",\"1\",\"Testing\",\"Stims/Figures/85-J-0-2.bmp\",\"sa:saza\",\"Left\",\"37\",\"4\",\"8\",\"3B\",\"C2\",\"C\",\"80\"
\"\",\"\",\"approach-retreat\",\"229\",\"1629069\",\"0.0-229.0\",\"\",\"\",\"3-2\",\"6028\",\"37\",\"1\",\"Testing\",\"Stims/Figures/93-J-0-1.bmp\",\"sa:saza\",\"Left\",\"37\",\"4\",\"9\",\"3B\",\"C2\",\"C\",\"81\"
\"\",\"\",\"approach-retreat\",\"230\",\"1637980\",\"0.0-230.0\",\"\",\"\",\"3-2\",\"7408\",\"40\",\"1\",\"Testing\",\"Stims/Figures/71-C-30-1.bmp\",\"va:shasha\",\"Up\",\"40\",\"4\",\"10\",\"3B\",\"C1\",\"C\",\"82\"
\"\",\"\",\"approach-retreat\",\"231\",\"1643846\",\"0.0-231.0\",\"\",\"\",\"3-2\",\"4362\",\"37\",\"1\",\"Testing\",\"Stims/Figures/74-C-20-4.bmp\",\"va:shasha\",\"Right\",\"37\",\"4\",\"11\",\"3B\",\"C1\",\"C\",\"83\"
\"\",\"\",\"approach-retreat\",\"232\",\"1649933\",\"0.0-232.0\",\"\",\"\",\"3-2\",\"4582\",\"40\",\"1\",\"Testing\",\"Stims/Figures/139-C-20-2.bmp\",\"va:shasha\",\"Up\",\"40\",\"4\",\"12\",\"3B\",\"C1\",\"C\",\"84\"
\"\",\"\",\"approach-retreat\",\"233\",\"1656611\",\"0.0-233.0\",\"\",\"\",\"3-2\",\"5174\",\"39\",\"1\",\"Testing\",\"Stims/Figures/19-J-10-4.bmp\",\"sa:saza\",\"Right\",\"39\",\"4\",\"13\",\"3B\",\"C2\",\"C\",\"85\"
\"\",\"\",\"approach-retreat\",\"234\",\"1663350\",\"0.0-234.0\",\"\",\"\",\"3-2\",\"5236\",\"40\",\"1\",\"Testing\",\"Stims/Figures/128-C-30-3.bmp\",\"va:shasha\",\"Up\",\"40\",\"4\",\"14\",\"3B\",\"C1\",\"C\",\"86\"
\"\",\"\",\"approach-retreat\",\"235\",\"1670016\",\"0.0-235.0\",\"\",\"\",\"3-2\",\"5161\",\"39\",\"1\",\"Testing\",\"Stims/Figures/118-J-0-2.bmp\",\"sa:saza\",\"Right\",\"39\",\"4\",\"15\",\"3B\",\"C2\",\"C\",\"87\"
\"\",\"\",\"approach-retreat\",\"236\",\"1675918\",\"0.0-236.0\",\"\",\"\",\"3-2\",\"4399\",\"39\",\"1\",\"Testing\",\"Stims/Figures/118-C-20-2.bmp\",\"va:shasha\",\"Left\",\"39\",\"4\",\"16\",\"3B\",\"C1\",\"C\",\"88\"
\"\",\"\",\"approach-retreat\",\"237\",\"1682461\",\"0.0-237.0\",\"\",\"\",\"3-2\",\"5039\",\"40\",\"1\",\"Testing\",\"Stims/Figures/27-J-0-1.bmp\",\"sa:saza\",\"Down\",\"40\",\"4\",\"17\",\"3B\",\"C2\",\"C\",\"89\"
\"\",\"\",\"approach-retreat\",\"238\",\"1688250\",\"0.0-238.0\",\"\",\"\",\"3-2\",\"4285\",\"40\",\"1\",\"Testing\",\"Stims/Figures/128-J-10-3.bmp\",\"sa:saza\",\"Down\",\"40\",\"4\",\"18\",\"3B\",\"C2\",\"C\",\"90\"
\"\",\"\",\"approach-retreat\",\"239\",\"1694835\",\"0.0-239.0\",\"\",\"\",\"3-2\",\"5080\",\"37\",\"1\",\"Testing\",\"Stims/Figures/71-J-0-1.bmp\",\"sa:saza\",\"Left\",\"37\",\"4\",\"19\",\"3B\",\"C2\",\"C\",\"91\"
\"\",\"\",\"approach-retreat\",\"240\",\"1702231\",\"0.0-240.0\",\"\",\"\",\"3-2\",\"5893\",\"37\",\"1\",\"Testing\",\"Stims/Figures/100-C-30-3.bmp\",\"va:shasha\",\"Right\",\"37\",\"4\",\"20\",\"3B\",\"C1\",\"C\",\"92\"
\"\",\"\",\"approach-retreat\",\"241\",\"1707941\",\"0.0-241.0\",\"\",\"\",\"3-2\",\"4204\",\"38\",\"1\",\"Testing\",\"Stims/Figures/19-C-20-4.bmp\",\"va:shasha\",\"Down\",\"38\",\"4\",\"21\",\"3B\",\"C1\",\"C\",\"93\"
\"\",\"\",\"approach-retreat\",\"242\",\"1714517\",\"0.0-242.0\",\"\",\"\",\"3-2\",\"5073\",\"40\",\"1\",\"Testing\",\"Stims/Figures/100-J-10-3.bmp\",\"sa:saza\",\"Down\",\"40\",\"4\",\"22\",\"3B\",\"C2\",\"C\",\"94\"
\"\",\"\",\"approach-retreat\",\"243\",\"1720501\",\"0.0-243.0\",\"\",\"\",\"3-2\",\"4479\",\"37\",\"1\",\"Testing\",\"Stims/Figures/27-C-30-1.bmp\",\"va:shasha\",\"Right\",\"37\",\"4\",\"23\",\"3B\",\"C1\",\"C\",\"95\"
\"\",\"\",\"approach-retreat\",\"244\",\"1727854\",\"0.0-244.0\",\"\",\"\",\"3-2\",\"5849\",\"39\",\"1\",\"Testing\",\"Stims/Figures/139-J-0-2.bmp\",\"sa:saza\",\"Right\",\"39\",\"4\",\"24\",\"3B\",\"C2\",\"C\",\"96\"
\"22408\",\"\",\"survey-text\",\"245\",\"1750267\",\"0.0-245.0\",\"\",\"{\"\"Q0\"\":\"\"PS160077\"\"}\",\"\",\"\",\"\",\"\",\"\",\"\",\"\",\"\",\"\",\"\",\"\",\"\",\"\",\"\",\"\"
