\"rt\",\"key_press\",\"trial_type\",\"trial_index\",\"time_elapsed\",\"internal_node_id\",\"view_history\",\"responses\",\"Id\",\"Rt\",\"ResKeyCode\",\"ResCorr\",\"TrialType2\",\"Image\",\"Label\",\"Location\",\"CorrectResponse\",\"Block\",\"BlockTrial\",\"Condition\",\"LabelType\",\"Subcondition\",\"trialNum\"
\"85633\",\"32\",\"text\",\"0\",\"85639\",\"0.0-0.0-0.0\",\"\",\"\",\"\",\"\",\"\",\"\",\"\",\"\",\"\",\"\",\"\",\"\",\"\",\"\",\"\",\"\",\"\"
\"115650\",\"\",\"instructions\",\"1\",\"201292\",\"0.0-1.0\",\"[{\"\"page_index\"\":0,\"\"viewing_time\"\":115649}]\",\"\",\"\",\"\",\"\",\"\",\"\",\"\",\"\",\"\",\"\",\"\",\"\",\"\",\"\",\"\",\"\"
\"16687\",\"\",\"survey-multi-choice\",\"2\",\"218024\",\"0.0-2.0\",\"\",\"{\"\"Q0\"\":\"\"Da\"\",\"\"Q1\"\":\"\"Da\"\",\"\"Q2\"\":\"\"Da\"\",\"\"Q3\"\":\"\"Da\"\",\"\"Q4\"\":\"\"Da\"\",\"\"Q5\"\":\"\"Da\"\"}\",\"\",\"\",\"\",\"\",\"\",\"\",\"\",\"\",\"\",\"\",\"\",\"\",\"\",\"\",\"\"
\"\",\"\",\"bio\",\"3\",\"232247\",\"0.0-3.0\",\"\",\"{\"\"age\"\":\"\"22\"\",\"\"gender\"\":\"\"f\"\",\"\"specify\"\":\"\"\"\"}\",\"\",\"\",\"\",\"\",\"\",\"\",\"\",\"\",\"\",\"\",\"\",\"\",\"\",\"\",\"\"
\"\",\"\",\"approach-retreat\",\"4\",\"239002\",\"0.0-4.0\",\"\",\"\",\"1-1\",\"5207\",\"40\",\"1\",\"Training\",\"Stims/Figures/111-C-30-3.bmp\",\"papata\",\"Up\",\"40\",\"1\",\"1\",\"5\",\"P\",\"C\",\"1\"
\"\",\"\",\"approach-retreat\",\"5\",\"245232\",\"0.0-5.0\",\"\",\"\",\"1-1\",\"4718\",\"37\",\"1\",\"Training\",\"Stims/Figures/118-J-0-2.bmp\",\"ma:la:la\",\"Left\",\"37\",\"1\",\"2\",\"5\",\"S\",\"C\",\"2\"
\"\",\"\",\"approach-retreat\",\"6\",\"251263\",\"0.0-6.0\",\"\",\"\",\"1-1\",\"4522\",\"37\",\"1\",\"Training\",\"Stims/Figures/93-C-30-1.bmp\",\"ta:kaka\",\"Right\",\"37\",\"1\",\"3\",\"5\",\"P\",\"C\",\"3\"
\"\",\"\",\"approach-retreat\",\"7\",\"258520\",\"0.0-7.0\",\"\",\"\",\"1-1\",\"5743\",\"37\",\"1\",\"Training\",\"Stims/Figures/118-C-20-2.bmp\",\"pa:kaka\",\"Right\",\"37\",\"1\",\"4\",\"5\",\"P\",\"C\",\"4\"
\"\",\"\",\"approach-retreat\",\"8\",\"266718\",\"0.0-8.0\",\"\",\"\",\"1-1\",\"6685\",\"39\",\"0\",\"Training\",\"Stims/Figures/111-J-10-3.bmp\",\"ma:mana\",\"Left\",\"37\",\"1\",\"5\",\"5\",\"S\",\"C\",\"5\"
\"\",\"\",\"approach-retreat\",\"9\",\"275673\",\"0.0-9.0\",\"\",\"\",\"1-1\",\"7446\",\"40\",\"1\",\"Training\",\"Stims/Figures/7-C-20-4.bmp\",\"pakaka\",\"Up\",\"40\",\"1\",\"6\",\"5\",\"P\",\"C\",\"6\"
\"\",\"\",\"approach-retreat\",\"10\",\"281915\",\"0.0-10.0\",\"\",\"\",\"1-1\",\"4729\",\"38\",\"1\",\"Training\",\"Stims/Figures/85-C-20-2.bmp\",\"ta:kata\",\"Down\",\"38\",\"1\",\"7\",\"5\",\"P\",\"C\",\"7\"
\"\",\"\",\"approach-retreat\",\"11\",\"287937\",\"0.0-11.0\",\"\",\"\",\"1-1\",\"4509\",\"40\",\"1\",\"Training\",\"Stims/Figures/27-J-0-1.bmp\",\"mamala\",\"Down\",\"40\",\"1\",\"8\",\"5\",\"S\",\"C\",\"8\"
\"\",\"\",\"approach-retreat\",\"12\",\"293926\",\"0.0-12.0\",\"\",\"\",\"1-1\",\"4477\",\"39\",\"1\",\"Training\",\"Stims/Figures/85-J-0-2.bmp\",\"ma:la:na\",\"Right\",\"39\",\"1\",\"9\",\"5\",\"S\",\"C\",\"9\"
\"\",\"\",\"approach-retreat\",\"13\",\"299745\",\"0.0-13.0\",\"\",\"\",\"1-1\",\"4309\",\"37\",\"1\",\"Training\",\"Stims/Figures/93-J-0-1.bmp\",\"mala:na\",\"Left\",\"37\",\"1\",\"10\",\"5\",\"S\",\"C\",\"10\"
\"\",\"\",\"approach-retreat\",\"14\",\"305936\",\"0.0-14.0\",\"\",\"\",\"1-1\",\"4683\",\"40\",\"1\",\"Training\",\"Stims/Figures/87-C-20-4.bmp\",\"pa:pa:ka\",\"Up\",\"40\",\"1\",\"11\",\"5\",\"P\",\"C\",\"11\"
\"\",\"\",\"approach-retreat\",\"15\",\"311678\",\"0.0-15.0\",\"\",\"\",\"1-1\",\"4233\",\"39\",\"1\",\"Training\",\"Stims/Figures/144-C-30-3.bmp\",\"takata\",\"Left\",\"39\",\"1\",\"12\",\"5\",\"P\",\"C\",\"12\"
\"\",\"\",\"approach-retreat\",\"16\",\"317625\",\"0.0-16.0\",\"\",\"\",\"1-1\",\"4430\",\"37\",\"1\",\"Training\",\"Stims/Figures/27-C-30-1.bmp\",\"pa:ka:ta\",\"Right\",\"37\",\"1\",\"13\",\"5\",\"P\",\"C\",\"13\"
\"\",\"\",\"approach-retreat\",\"17\",\"323290\",\"0.0-17.0\",\"\",\"\",\"1-1\",\"4150\",\"40\",\"0\",\"Training\",\"Stims/Figures/87-J-10-4.bmp\",\"mamana\",\"Up\",\"38\",\"1\",\"14\",\"5\",\"S\",\"C\",\"14\"
\"\",\"\",\"approach-retreat\",\"18\",\"330450\",\"0.0-18.0\",\"\",\"\",\"1-1\",\"5643\",\"40\",\"1\",\"Training\",\"Stims/Figures/144-J-10-3.bmp\",\"na:lana\",\"Down\",\"40\",\"1\",\"15\",\"5\",\"S\",\"C\",\"15\"
\"\",\"\",\"approach-retreat\",\"19\",\"338341\",\"0.0-19.0\",\"\",\"\",\"1-1\",\"6375\",\"40\",\"1\",\"Training\",\"Stims/Figures/7-J-10-4.bmp\",\"nalana\",\"Down\",\"40\",\"1\",\"16\",\"5\",\"S\",\"C\",\"16\"
\"\",\"\",\"approach-retreat\",\"20\",\"346644\",\"0.0-20.0\",\"\",\"\",\"1-1\",\"6790\",\"37\",\"1\",\"Training\",\"Stims/Figures/7-C-20-4.bmp\",\"pakaka\",\"Right\",\"37\",\"2\",\"1\",\"5\",\"P\",\"C\",\"17\"
\"\",\"\",\"approach-retreat\",\"21\",\"352352\",\"0.0-21.0\",\"\",\"\",\"1-1\",\"4190\",\"39\",\"1\",\"Training\",\"Stims/Figures/144-C-30-3.bmp\",\"takata\",\"Left\",\"39\",\"2\",\"2\",\"5\",\"P\",\"C\",\"18\"
\"\",\"\",\"approach-retreat\",\"22\",\"358771\",\"0.0-22.0\",\"\",\"\",\"1-1\",\"4902\",\"40\",\"1\",\"Training\",\"Stims/Figures/85-C-20-2.bmp\",\"ta:kata\",\"Up\",\"40\",\"2\",\"3\",\"5\",\"P\",\"C\",\"19\"
\"\",\"\",\"approach-retreat\",\"23\",\"364713\",\"0.0-23.0\",\"\",\"\",\"1-1\",\"4433\",\"40\",\"1\",\"Training\",\"Stims/Figures/27-J-0-1.bmp\",\"mamala\",\"Down\",\"40\",\"2\",\"4\",\"5\",\"S\",\"C\",\"20\"
\"\",\"\",\"approach-retreat\",\"24\",\"370543\",\"0.0-24.0\",\"\",\"\",\"1-1\",\"4313\",\"40\",\"0\",\"Training\",\"Stims/Figures/87-C-20-4.bmp\",\"pa:pa:ka\",\"Down\",\"38\",\"2\",\"5\",\"5\",\"P\",\"C\",\"21\"
\"\",\"\",\"approach-retreat\",\"25\",\"376511\",\"0.0-25.0\",\"\",\"\",\"1-1\",\"4458\",\"40\",\"1\",\"Training\",\"Stims/Figures/85-J-0-2.bmp\",\"ma:la:na\",\"Down\",\"40\",\"2\",\"6\",\"5\",\"S\",\"C\",\"22\"
\"\",\"\",\"approach-retreat\",\"26\",\"383625\",\"0.0-26.0\",\"\",\"\",\"1-1\",\"5600\",\"38\",\"1\",\"Training\",\"Stims/Figures/118-J-0-2.bmp\",\"ma:la:la\",\"Up\",\"38\",\"2\",\"7\",\"5\",\"S\",\"C\",\"23\"
\"\",\"\",\"approach-retreat\",\"27\",\"390660\",\"0.0-27.0\",\"\",\"\",\"1-1\",\"5520\",\"39\",\"1\",\"Training\",\"Stims/Figures/87-J-10-4.bmp\",\"mamana\",\"Right\",\"39\",\"2\",\"8\",\"5\",\"S\",\"C\",\"24\"
\"\",\"\",\"approach-retreat\",\"28\",\"398324\",\"0.0-28.0\",\"\",\"\",\"1-1\",\"6151\",\"38\",\"1\",\"Training\",\"Stims/Figures/144-J-10-3.bmp\",\"na:lana\",\"Up\",\"38\",\"2\",\"9\",\"5\",\"S\",\"C\",\"25\"
\"\",\"\",\"approach-retreat\",\"29\",\"404844\",\"0.0-29.0\",\"\",\"\",\"1-1\",\"5002\",\"40\",\"0\",\"Training\",\"Stims/Figures/27-C-30-1.bmp\",\"pa:ka:ta\",\"Down\",\"38\",\"2\",\"10\",\"5\",\"P\",\"C\",\"26\"
\"\",\"\",\"approach-retreat\",\"30\",\"410674\",\"0.0-30.0\",\"\",\"\",\"1-1\",\"4320\",\"39\",\"1\",\"Training\",\"Stims/Figures/93-C-30-1.bmp\",\"ta:kaka\",\"Left\",\"39\",\"2\",\"11\",\"5\",\"P\",\"C\",\"27\"
\"\",\"\",\"approach-retreat\",\"31\",\"416299\",\"0.0-31.0\",\"\",\"\",\"1-1\",\"4111\",\"39\",\"1\",\"Training\",\"Stims/Figures/111-C-30-3.bmp\",\"papata\",\"Left\",\"39\",\"2\",\"12\",\"5\",\"P\",\"C\",\"28\"
\"\",\"\",\"approach-retreat\",\"32\",\"422114\",\"0.0-32.0\",\"\",\"\",\"1-1\",\"4299\",\"39\",\"1\",\"Training\",\"Stims/Figures/93-J-0-1.bmp\",\"mala:na\",\"Right\",\"39\",\"2\",\"13\",\"5\",\"S\",\"C\",\"29\"
\"\",\"\",\"approach-retreat\",\"33\",\"429077\",\"0.0-33.0\",\"\",\"\",\"1-1\",\"5452\",\"37\",\"1\",\"Training\",\"Stims/Figures/118-C-20-2.bmp\",\"pa:kaka\",\"Right\",\"37\",\"2\",\"14\",\"5\",\"P\",\"C\",\"30\"
\"\",\"\",\"approach-retreat\",\"34\",\"435563\",\"0.0-34.0\",\"\",\"\",\"1-1\",\"4969\",\"40\",\"0\",\"Training\",\"Stims/Figures/7-J-10-4.bmp\",\"nalana\",\"Up\",\"38\",\"2\",\"15\",\"5\",\"S\",\"C\",\"31\"
\"\",\"\",\"approach-retreat\",\"35\",\"441734\",\"0.0-35.0\",\"\",\"\",\"1-1\",\"4654\",\"39\",\"0\",\"Training\",\"Stims/Figures/111-J-10-3.bmp\",\"ma:mana\",\"Left\",\"37\",\"2\",\"16\",\"5\",\"S\",\"C\",\"32\"
\"\",\"\",\"approach-retreat\",\"36\",\"447749\",\"0.0-36.0\",\"\",\"\",\"1-1\",\"4503\",\"39\",\"0\",\"Training\",\"Stims/Figures/7-C-20-4.bmp\",\"pakaka\",\"Right\",\"37\",\"3\",\"1\",\"5\",\"P\",\"C\",\"33\"
\"\",\"\",\"approach-retreat\",\"37\",\"454663\",\"0.0-37.0\",\"\",\"\",\"1-1\",\"5401\",\"37\",\"1\",\"Training\",\"Stims/Figures/111-J-10-3.bmp\",\"ma:mana\",\"Left\",\"37\",\"3\",\"2\",\"5\",\"S\",\"C\",\"34\"
\"\",\"\",\"approach-retreat\",\"38\",\"460362\",\"0.0-38.0\",\"\",\"\",\"1-1\",\"4188\",\"37\",\"1\",\"Training\",\"Stims/Figures/7-J-10-4.bmp\",\"nalana\",\"Left\",\"37\",\"3\",\"3\",\"5\",\"S\",\"C\",\"35\"
\"\",\"\",\"approach-retreat\",\"39\",\"466667\",\"0.0-39.0\",\"\",\"\",\"1-1\",\"4798\",\"38\",\"1\",\"Training\",\"Stims/Figures/111-C-30-3.bmp\",\"papata\",\"Down\",\"38\",\"3\",\"4\",\"5\",\"P\",\"C\",\"36\"
\"\",\"\",\"approach-retreat\",\"40\",\"472462\",\"0.0-40.0\",\"\",\"\",\"1-1\",\"4284\",\"37\",\"1\",\"Training\",\"Stims/Figures/118-J-0-2.bmp\",\"ma:la:la\",\"Left\",\"37\",\"3\",\"5\",\"5\",\"S\",\"C\",\"37\"
\"\",\"\",\"approach-retreat\",\"41\",\"479699\",\"0.0-41.0\",\"\",\"\",\"1-1\",\"5721\",\"38\",\"0\",\"Training\",\"Stims/Figures/27-C-30-1.bmp\",\"pa:ka:ta\",\"Up\",\"40\",\"3\",\"6\",\"5\",\"P\",\"C\",\"38\"
\"\",\"\",\"approach-retreat\",\"42\",\"486424\",\"0.0-42.0\",\"\",\"\",\"1-1\",\"5208\",\"37\",\"1\",\"Training\",\"Stims/Figures/144-J-10-3.bmp\",\"na:lana\",\"Left\",\"37\",\"3\",\"7\",\"5\",\"S\",\"C\",\"39\"
\"\",\"\",\"approach-retreat\",\"43\",\"492739\",\"0.0-43.0\",\"\",\"\",\"1-1\",\"4805\",\"39\",\"1\",\"Training\",\"Stims/Figures/85-J-0-2.bmp\",\"ma:la:na\",\"Right\",\"39\",\"3\",\"8\",\"5\",\"S\",\"C\",\"40\"
\"\",\"\",\"approach-retreat\",\"44\",\"498820\",\"0.0-44.0\",\"\",\"\",\"1-1\",\"4572\",\"38\",\"1\",\"Training\",\"Stims/Figures/27-J-0-1.bmp\",\"mamala\",\"Up\",\"38\",\"3\",\"9\",\"5\",\"S\",\"C\",\"41\"
\"\",\"\",\"approach-retreat\",\"45\",\"504479\",\"0.0-45.0\",\"\",\"\",\"1-1\",\"4148\",\"39\",\"0\",\"Training\",\"Stims/Figures/118-C-20-2.bmp\",\"pa:kaka\",\"Right\",\"37\",\"3\",\"10\",\"5\",\"P\",\"C\",\"42\"
\"\",\"\",\"approach-retreat\",\"46\",\"510470\",\"0.0-46.0\",\"\",\"\",\"1-1\",\"4474\",\"38\",\"1\",\"Training\",\"Stims/Figures/93-J-0-1.bmp\",\"mala:na\",\"Up\",\"38\",\"3\",\"11\",\"5\",\"S\",\"C\",\"43\"
\"\",\"\",\"approach-retreat\",\"47\",\"516650\",\"0.0-47.0\",\"\",\"\",\"1-1\",\"4667\",\"38\",\"1\",\"Training\",\"Stims/Figures/144-C-30-3.bmp\",\"takata\",\"Down\",\"38\",\"3\",\"12\",\"5\",\"P\",\"C\",\"44\"
\"\",\"\",\"approach-retreat\",\"48\",\"522443\",\"0.0-48.0\",\"\",\"\",\"1-1\",\"4276\",\"38\",\"1\",\"Training\",\"Stims/Figures/93-C-30-1.bmp\",\"ta:kaka\",\"Down\",\"38\",\"3\",\"13\",\"5\",\"P\",\"C\",\"45\"
\"\",\"\",\"approach-retreat\",\"49\",\"528073\",\"0.0-49.0\",\"\",\"\",\"1-1\",\"4118\",\"38\",\"1\",\"Training\",\"Stims/Figures/85-C-20-2.bmp\",\"ta:kata\",\"Down\",\"38\",\"3\",\"14\",\"5\",\"P\",\"C\",\"46\"
\"\",\"\",\"approach-retreat\",\"50\",\"534122\",\"0.0-50.0\",\"\",\"\",\"1-1\",\"4535\",\"37\",\"1\",\"Training\",\"Stims/Figures/87-C-20-4.bmp\",\"pa:pa:ka\",\"Right\",\"37\",\"3\",\"15\",\"5\",\"P\",\"C\",\"47\"
\"\",\"\",\"approach-retreat\",\"51\",\"540388\",\"0.0-51.0\",\"\",\"\",\"1-1\",\"4757\",\"40\",\"0\",\"Training\",\"Stims/Figures/87-J-10-4.bmp\",\"mamana\",\"Up\",\"38\",\"3\",\"16\",\"5\",\"S\",\"C\",\"48\"
\"\",\"\",\"approach-retreat\",\"52\",\"547731\",\"0.0-52.0\",\"\",\"\",\"1-1\",\"5836\",\"38\",\"1\",\"Training\",\"Stims/Figures/144-J-10-3.bmp\",\"na:lana\",\"Up\",\"38\",\"4\",\"1\",\"5\",\"S\",\"C\",\"49\"
\"\",\"\",\"approach-retreat\",\"53\",\"554281\",\"0.0-53.0\",\"\",\"\",\"1-1\",\"5035\",\"40\",\"1\",\"Training\",\"Stims/Figures/87-J-10-4.bmp\",\"mamana\",\"Down\",\"40\",\"4\",\"2\",\"5\",\"S\",\"C\",\"50\"
\"\",\"\",\"approach-retreat\",\"54\",\"561327\",\"0.0-54.0\",\"\",\"\",\"1-1\",\"5537\",\"39\",\"1\",\"Training\",\"Stims/Figures/111-J-10-3.bmp\",\"ma:mana\",\"Right\",\"39\",\"4\",\"3\",\"5\",\"S\",\"C\",\"51\"
\"\",\"\",\"approach-retreat\",\"55\",\"567558\",\"0.0-55.0\",\"\",\"\",\"1-1\",\"4718\",\"39\",\"1\",\"Training\",\"Stims/Figures/111-C-30-3.bmp\",\"papata\",\"Left\",\"39\",\"4\",\"4\",\"5\",\"P\",\"C\",\"52\"
\"\",\"\",\"approach-retreat\",\"56\",\"573416\",\"0.0-56.0\",\"\",\"\",\"1-1\",\"4341\",\"37\",\"1\",\"Training\",\"Stims/Figures/93-J-0-1.bmp\",\"mala:na\",\"Left\",\"37\",\"4\",\"5\",\"5\",\"S\",\"C\",\"53\"
\"\",\"\",\"approach-retreat\",\"57\",\"579271\",\"0.0-57.0\",\"\",\"\",\"1-1\",\"4344\",\"40\",\"1\",\"Training\",\"Stims/Figures/7-J-10-4.bmp\",\"nalana\",\"Down\",\"40\",\"4\",\"6\",\"5\",\"S\",\"C\",\"54\"
\"\",\"\",\"approach-retreat\",\"58\",\"585856\",\"0.0-58.0\",\"\",\"\",\"1-1\",\"5069\",\"38\",\"1\",\"Training\",\"Stims/Figures/118-J-0-2.bmp\",\"ma:la:la\",\"Up\",\"38\",\"4\",\"7\",\"5\",\"S\",\"C\",\"55\"
\"\",\"\",\"approach-retreat\",\"59\",\"591566\",\"0.0-59.0\",\"\",\"\",\"1-1\",\"4202\",\"39\",\"1\",\"Training\",\"Stims/Figures/7-C-20-4.bmp\",\"pakaka\",\"Left\",\"39\",\"4\",\"8\",\"5\",\"P\",\"C\",\"56\"
\"\",\"\",\"approach-retreat\",\"60\",\"597851\",\"0.0-60.0\",\"\",\"\",\"1-1\",\"4773\",\"38\",\"1\",\"Training\",\"Stims/Figures/27-J-0-1.bmp\",\"mamala\",\"Up\",\"38\",\"4\",\"9\",\"5\",\"S\",\"C\",\"57\"
\"\",\"\",\"approach-retreat\",\"61\",\"604988\",\"0.0-61.0\",\"\",\"\",\"1-1\",\"5622\",\"37\",\"1\",\"Training\",\"Stims/Figures/118-C-20-2.bmp\",\"pa:kaka\",\"Right\",\"37\",\"4\",\"10\",\"5\",\"P\",\"C\",\"58\"
\"\",\"\",\"approach-retreat\",\"62\",\"611231\",\"0.0-62.0\",\"\",\"\",\"1-1\",\"4730\",\"40\",\"1\",\"Training\",\"Stims/Figures/87-C-20-4.bmp\",\"pa:pa:ka\",\"Up\",\"40\",\"4\",\"11\",\"5\",\"P\",\"C\",\"59\"
\"\",\"\",\"approach-retreat\",\"63\",\"617801\",\"0.0-63.0\",\"\",\"\",\"1-1\",\"5062\",\"38\",\"1\",\"Training\",\"Stims/Figures/144-C-30-3.bmp\",\"takata\",\"Down\",\"38\",\"4\",\"12\",\"5\",\"P\",\"C\",\"60\"
\"\",\"\",\"approach-retreat\",\"64\",\"623899\",\"0.0-64.0\",\"\",\"\",\"1-1\",\"4589\",\"37\",\"1\",\"Training\",\"Stims/Figures/85-J-0-2.bmp\",\"ma:la:na\",\"Left\",\"37\",\"4\",\"13\",\"5\",\"S\",\"C\",\"61\"
\"\",\"\",\"approach-retreat\",\"65\",\"632306\",\"0.0-65.0\",\"\",\"\",\"1-1\",\"6894\",\"37\",\"1\",\"Training\",\"Stims/Figures/27-C-30-1.bmp\",\"pa:ka:ta\",\"Right\",\"37\",\"4\",\"14\",\"5\",\"P\",\"C\",\"62\"
\"\",\"\",\"approach-retreat\",\"66\",\"638209\",\"0.0-66.0\",\"\",\"\",\"1-1\",\"4394\",\"37\",\"1\",\"Training\",\"Stims/Figures/93-C-30-1.bmp\",\"ta:kaka\",\"Right\",\"37\",\"4\",\"15\",\"5\",\"P\",\"C\",\"63\"
\"\",\"\",\"approach-retreat\",\"67\",\"645535\",\"0.0-67.0\",\"\",\"\",\"1-1\",\"5808\",\"38\",\"1\",\"Training\",\"Stims/Figures/85-C-20-2.bmp\",\"ta:kata\",\"Down\",\"38\",\"4\",\"16\",\"5\",\"P\",\"C\",\"64\"
\"\",\"\",\"approach-retreat\",\"68\",\"651255\",\"0.0-68.0\",\"\",\"\",\"1-1\",\"4202\",\"40\",\"1\",\"Training\",\"Stims/Figures/7-J-10-4.bmp\",\"nalana\",\"Down\",\"40\",\"5\",\"1\",\"5\",\"S\",\"C\",\"65\"
\"\",\"\",\"approach-retreat\",\"69\",\"657396\",\"0.0-69.0\",\"\",\"\",\"1-1\",\"4629\",\"39\",\"1\",\"Training\",\"Stims/Figures/144-C-30-3.bmp\",\"takata\",\"Left\",\"39\",\"5\",\"2\",\"5\",\"P\",\"C\",\"66\"
\"\",\"\",\"approach-retreat\",\"70\",\"663194\",\"0.0-70.0\",\"\",\"\",\"1-1\",\"4282\",\"40\",\"1\",\"Training\",\"Stims/Figures/111-J-10-3.bmp\",\"ma:mana\",\"Down\",\"40\",\"5\",\"3\",\"5\",\"S\",\"C\",\"67\"
\"\",\"\",\"approach-retreat\",\"71\",\"669776\",\"0.0-71.0\",\"\",\"\",\"1-1\",\"5068\",\"37\",\"1\",\"Training\",\"Stims/Figures/85-C-20-2.bmp\",\"ta:kata\",\"Right\",\"37\",\"5\",\"4\",\"5\",\"P\",\"C\",\"68\"
\"\",\"\",\"approach-retreat\",\"72\",\"677603\",\"0.0-72.0\",\"\",\"\",\"1-1\",\"6311\",\"40\",\"0\",\"Training\",\"Stims/Figures/144-J-10-3.bmp\",\"na:lana\",\"Up\",\"38\",\"5\",\"5\",\"5\",\"S\",\"C\",\"69\"
\"\",\"\",\"approach-retreat\",\"73\",\"683440\",\"0.0-73.0\",\"\",\"\",\"1-1\",\"4329\",\"38\",\"1\",\"Training\",\"Stims/Figures/118-C-20-2.bmp\",\"pa:kaka\",\"Down\",\"38\",\"5\",\"6\",\"5\",\"P\",\"C\",\"70\"
\"\",\"\",\"approach-retreat\",\"74\",\"689926\",\"0.0-74.0\",\"\",\"\",\"1-1\",\"4971\",\"40\",\"1\",\"Training\",\"Stims/Figures/87-J-10-4.bmp\",\"mamana\",\"Down\",\"40\",\"5\",\"7\",\"5\",\"S\",\"C\",\"71\"
\"\",\"\",\"approach-retreat\",\"75\",\"696201\",\"0.0-75.0\",\"\",\"\",\"1-1\",\"4760\",\"38\",\"1\",\"Training\",\"Stims/Figures/93-J-0-1.bmp\",\"mala:na\",\"Up\",\"38\",\"5\",\"8\",\"5\",\"S\",\"C\",\"72\"
\"\",\"\",\"approach-retreat\",\"76\",\"702692\",\"0.0-76.0\",\"\",\"\",\"1-1\",\"4983\",\"39\",\"1\",\"Training\",\"Stims/Figures/27-C-30-1.bmp\",\"pa:ka:ta\",\"Left\",\"39\",\"5\",\"9\",\"5\",\"P\",\"C\",\"73\"
\"\",\"\",\"approach-retreat\",\"77\",\"708473\",\"0.0-77.0\",\"\",\"\",\"1-1\",\"4270\",\"40\",\"1\",\"Training\",\"Stims/Figures/87-C-20-4.bmp\",\"pa:pa:ka\",\"Up\",\"40\",\"5\",\"10\",\"5\",\"P\",\"C\",\"74\"
\"\",\"\",\"approach-retreat\",\"78\",\"714504\",\"0.0-78.0\",\"\",\"\",\"1-1\",\"4519\",\"37\",\"1\",\"Training\",\"Stims/Figures/111-C-30-3.bmp\",\"papata\",\"Right\",\"37\",\"5\",\"11\",\"5\",\"P\",\"C\",\"75\"
\"\",\"\",\"approach-retreat\",\"79\",\"720485\",\"0.0-79.0\",\"\",\"\",\"1-1\",\"4469\",\"37\",\"1\",\"Training\",\"Stims/Figures/85-J-0-2.bmp\",\"ma:la:na\",\"Left\",\"37\",\"5\",\"12\",\"5\",\"S\",\"C\",\"76\"
\"\",\"\",\"approach-retreat\",\"80\",\"726543\",\"0.0-80.0\",\"\",\"\",\"1-1\",\"4542\",\"38\",\"1\",\"Training\",\"Stims/Figures/118-J-0-2.bmp\",\"ma:la:la\",\"Up\",\"38\",\"5\",\"13\",\"5\",\"S\",\"C\",\"77\"
\"\",\"\",\"approach-retreat\",\"81\",\"732258\",\"0.0-81.0\",\"\",\"\",\"1-1\",\"4202\",\"39\",\"1\",\"Training\",\"Stims/Figures/7-C-20-4.bmp\",\"pakaka\",\"Left\",\"39\",\"5\",\"14\",\"5\",\"P\",\"C\",\"78\"
\"\",\"\",\"approach-retreat\",\"82\",\"739480\",\"0.0-82.0\",\"\",\"\",\"1-1\",\"5705\",\"37\",\"1\",\"Training\",\"Stims/Figures/93-C-30-1.bmp\",\"ta:kaka\",\"Right\",\"37\",\"5\",\"15\",\"5\",\"P\",\"C\",\"79\"
\"\",\"\",\"approach-retreat\",\"83\",\"745343\",\"0.0-83.0\",\"\",\"\",\"1-1\",\"4348\",\"39\",\"1\",\"Training\",\"Stims/Figures/27-J-0-1.bmp\",\"mamala\",\"Right\",\"39\",\"5\",\"16\",\"5\",\"S\",\"C\",\"80\"
\"\",\"\",\"approach-retreat\",\"84\",\"751660\",\"0.0-84.0\",\"\",\"\",\"1-1\",\"4804\",\"37\",\"1\",\"Training\",\"Stims/Figures/27-J-0-1.bmp\",\"mamala\",\"Left\",\"37\",\"6\",\"1\",\"5\",\"S\",\"C\",\"81\"
\"\",\"\",\"approach-retreat\",\"85\",\"757891\",\"0.0-85.0\",\"\",\"\",\"1-1\",\"4723\",\"37\",\"1\",\"Training\",\"Stims/Figures/87-C-20-4.bmp\",\"pa:pa:ka\",\"Right\",\"37\",\"6\",\"2\",\"5\",\"P\",\"C\",\"82\"
\"\",\"\",\"approach-retreat\",\"86\",\"764079\",\"0.0-86.0\",\"\",\"\",\"1-1\",\"4678\",\"38\",\"1\",\"Training\",\"Stims/Figures/93-C-30-1.bmp\",\"ta:kaka\",\"Down\",\"38\",\"6\",\"3\",\"5\",\"P\",\"C\",\"83\"
\"\",\"\",\"approach-retreat\",\"87\",\"770064\",\"0.0-87.0\",\"\",\"\",\"1-1\",\"4472\",\"37\",\"1\",\"Training\",\"Stims/Figures/85-J-0-2.bmp\",\"ma:la:na\",\"Left\",\"37\",\"6\",\"4\",\"5\",\"S\",\"C\",\"84\"
\"\",\"\",\"approach-retreat\",\"88\",\"778353\",\"0.0-88.0\",\"\",\"\",\"1-1\",\"6781\",\"40\",\"1\",\"Training\",\"Stims/Figures/111-J-10-3.bmp\",\"ma:mana\",\"Down\",\"40\",\"6\",\"5\",\"5\",\"S\",\"C\",\"85\"
\"\",\"\",\"approach-retreat\",\"89\",\"784666\",\"0.0-89.0\",\"\",\"\",\"1-1\",\"4800\",\"40\",\"1\",\"Training\",\"Stims/Figures/85-C-20-2.bmp\",\"ta:kata\",\"Up\",\"40\",\"6\",\"6\",\"5\",\"P\",\"C\",\"86\"
\"\",\"\",\"approach-retreat\",\"90\",\"791229\",\"0.0-90.0\",\"\",\"\",\"1-1\",\"5050\",\"39\",\"1\",\"Training\",\"Stims/Figures/7-J-10-4.bmp\",\"nalana\",\"Right\",\"39\",\"6\",\"7\",\"5\",\"S\",\"C\",\"87\"
\"\",\"\",\"approach-retreat\",\"91\",\"797744\",\"0.0-91.0\",\"\",\"\",\"1-1\",\"5003\",\"37\",\"1\",\"Training\",\"Stims/Figures/93-J-0-1.bmp\",\"mala:na\",\"Left\",\"37\",\"6\",\"8\",\"5\",\"S\",\"C\",\"88\"
\"\",\"\",\"approach-retreat\",\"92\",\"803515\",\"0.0-92.0\",\"\",\"\",\"1-1\",\"4260\",\"40\",\"1\",\"Training\",\"Stims/Figures/111-C-30-3.bmp\",\"papata\",\"Up\",\"40\",\"6\",\"9\",\"5\",\"P\",\"C\",\"89\"
\"\",\"\",\"approach-retreat\",\"93\",\"809852\",\"0.0-93.0\",\"\",\"\",\"1-1\",\"4826\",\"40\",\"1\",\"Training\",\"Stims/Figures/118-J-0-2.bmp\",\"ma:la:la\",\"Down\",\"40\",\"6\",\"10\",\"5\",\"S\",\"C\",\"90\"
\"\",\"\",\"approach-retreat\",\"94\",\"815656\",\"0.0-94.0\",\"\",\"\",\"1-1\",\"4293\",\"38\",\"1\",\"Training\",\"Stims/Figures/144-C-30-3.bmp\",\"takata\",\"Down\",\"38\",\"6\",\"11\",\"5\",\"P\",\"C\",\"91\"
\"\",\"\",\"approach-retreat\",\"95\",\"822032\",\"0.0-95.0\",\"\",\"\",\"1-1\",\"4863\",\"37\",\"1\",\"Training\",\"Stims/Figures/7-C-20-4.bmp\",\"pakaka\",\"Right\",\"37\",\"6\",\"12\",\"5\",\"P\",\"C\",\"92\"
\"\",\"\",\"approach-retreat\",\"96\",\"830928\",\"0.0-96.0\",\"\",\"\",\"1-1\",\"7379\",\"37\",\"1\",\"Training\",\"Stims/Figures/27-C-30-1.bmp\",\"pa:ka:ta\",\"Right\",\"37\",\"6\",\"13\",\"5\",\"P\",\"C\",\"93\"
\"\",\"\",\"approach-retreat\",\"97\",\"838190\",\"0.0-97.0\",\"\",\"\",\"1-1\",\"5750\",\"40\",\"0\",\"Training\",\"Stims/Figures/144-J-10-3.bmp\",\"na:lana\",\"Up\",\"38\",\"6\",\"14\",\"5\",\"S\",\"C\",\"94\"
\"\",\"\",\"approach-retreat\",\"98\",\"843929\",\"0.0-98.0\",\"\",\"\",\"1-1\",\"4228\",\"39\",\"1\",\"Training\",\"Stims/Figures/118-C-20-2.bmp\",\"pa:kaka\",\"Left\",\"39\",\"6\",\"15\",\"5\",\"P\",\"C\",\"95\"
\"\",\"\",\"approach-retreat\",\"99\",\"852694\",\"0.0-99.0\",\"\",\"\",\"1-1\",\"7249\",\"38\",\"1\",\"Training\",\"Stims/Figures/87-J-10-4.bmp\",\"mamana\",\"Up\",\"38\",\"6\",\"16\",\"5\",\"S\",\"C\",\"96\"
\"\",\"\",\"approach-retreat\",\"100\",\"859732\",\"0.0-100.0\",\"\",\"\",\"1-1\",\"5526\",\"37\",\"1\",\"Training\",\"Stims/Figures/27-C-30-1.bmp\",\"pa:ka:ta\",\"Right\",\"37\",\"7\",\"1\",\"5\",\"P\",\"C\",\"97\"
\"\",\"\",\"approach-retreat\",\"101\",\"865433\",\"0.0-101.0\",\"\",\"\",\"1-1\",\"4186\",\"39\",\"1\",\"Training\",\"Stims/Figures/118-C-20-2.bmp\",\"pa:kaka\",\"Left\",\"39\",\"7\",\"2\",\"5\",\"P\",\"C\",\"98\"
\"\",\"\",\"approach-retreat\",\"102\",\"871087\",\"0.0-102.0\",\"\",\"\",\"1-1\",\"4143\",\"37\",\"1\",\"Training\",\"Stims/Figures/93-J-0-1.bmp\",\"mala:na\",\"Left\",\"37\",\"7\",\"3\",\"5\",\"S\",\"C\",\"99\"
\"\",\"\",\"approach-retreat\",\"103\",\"876937\",\"0.0-103.0\",\"\",\"\",\"1-1\",\"4333\",\"38\",\"1\",\"Training\",\"Stims/Figures/111-J-10-3.bmp\",\"ma:mana\",\"Up\",\"38\",\"7\",\"4\",\"5\",\"S\",\"C\",\"100\"
\"\",\"\",\"approach-retreat\",\"104\",\"883101\",\"0.0-104.0\",\"\",\"\",\"1-1\",\"4647\",\"38\",\"1\",\"Training\",\"Stims/Figures/111-C-30-3.bmp\",\"papata\",\"Down\",\"38\",\"7\",\"5\",\"5\",\"P\",\"C\",\"101\"
\"\",\"\",\"approach-retreat\",\"105\",\"889376\",\"0.0-105.0\",\"\",\"\",\"1-1\",\"4756\",\"37\",\"1\",\"Training\",\"Stims/Figures/85-C-20-2.bmp\",\"ta:kata\",\"Right\",\"37\",\"7\",\"6\",\"5\",\"P\",\"C\",\"102\"
\"\",\"\",\"approach-retreat\",\"106\",\"895374\",\"0.0-106.0\",\"\",\"\",\"1-1\",\"4481\",\"37\",\"1\",\"Training\",\"Stims/Figures/144-C-30-3.bmp\",\"takata\",\"Right\",\"37\",\"7\",\"7\",\"5\",\"P\",\"C\",\"103\"
\"\",\"\",\"approach-retreat\",\"107\",\"901045\",\"0.0-107.0\",\"\",\"\",\"1-1\",\"4163\",\"37\",\"1\",\"Training\",\"Stims/Figures/93-C-30-1.bmp\",\"ta:kaka\",\"Right\",\"37\",\"7\",\"8\",\"5\",\"P\",\"C\",\"104\"
\"\",\"\",\"approach-retreat\",\"108\",\"906701\",\"0.0-108.0\",\"\",\"\",\"1-1\",\"4144\",\"40\",\"1\",\"Training\",\"Stims/Figures/7-J-10-4.bmp\",\"nalana\",\"Down\",\"40\",\"7\",\"9\",\"5\",\"S\",\"C\",\"105\"
\"\",\"\",\"approach-retreat\",\"109\",\"912433\",\"0.0-109.0\",\"\",\"\",\"1-1\",\"4217\",\"40\",\"1\",\"Training\",\"Stims/Figures/7-C-20-4.bmp\",\"pakaka\",\"Up\",\"40\",\"7\",\"10\",\"5\",\"P\",\"C\",\"106\"
\"\",\"\",\"approach-retreat\",\"110\",\"918089\",\"0.0-110.0\",\"\",\"\",\"1-1\",\"4141\",\"40\",\"1\",\"Training\",\"Stims/Figures/87-C-20-4.bmp\",\"pa:pa:ka\",\"Up\",\"40\",\"7\",\"11\",\"5\",\"P\",\"C\",\"107\"
\"\",\"\",\"approach-retreat\",\"111\",\"924533\",\"0.0-111.0\",\"\",\"\",\"1-1\",\"4932\",\"37\",\"1\",\"Training\",\"Stims/Figures/87-J-10-4.bmp\",\"mamana\",\"Left\",\"37\",\"7\",\"12\",\"5\",\"S\",\"C\",\"108\"
\"\",\"\",\"approach-retreat\",\"112\",\"930179\",\"0.0-112.0\",\"\",\"\",\"1-1\",\"4127\",\"37\",\"1\",\"Training\",\"Stims/Figures/85-J-0-2.bmp\",\"ma:la:na\",\"Left\",\"37\",\"7\",\"13\",\"5\",\"S\",\"C\",\"109\"
\"\",\"\",\"approach-retreat\",\"113\",\"935961\",\"0.0-113.0\",\"\",\"\",\"1-1\",\"4268\",\"38\",\"1\",\"Training\",\"Stims/Figures/144-J-10-3.bmp\",\"na:lana\",\"Up\",\"38\",\"7\",\"14\",\"5\",\"S\",\"C\",\"110\"
\"\",\"\",\"approach-retreat\",\"114\",\"941659\",\"0.0-114.0\",\"\",\"\",\"1-1\",\"4183\",\"40\",\"1\",\"Training\",\"Stims/Figures/27-J-0-1.bmp\",\"mamala\",\"Down\",\"40\",\"7\",\"15\",\"5\",\"S\",\"C\",\"111\"
\"\",\"\",\"approach-retreat\",\"115\",\"947447\",\"0.0-115.0\",\"\",\"\",\"1-1\",\"4273\",\"40\",\"1\",\"Training\",\"Stims/Figures/118-J-0-2.bmp\",\"ma:la:la\",\"Down\",\"40\",\"7\",\"16\",\"5\",\"S\",\"C\",\"112\"
\"\",\"\",\"approach-retreat\",\"116\",\"953295\",\"0.0-116.0\",\"\",\"\",\"1-1\",\"4337\",\"37\",\"1\",\"Training\",\"Stims/Figures/111-C-30-3.bmp\",\"papata\",\"Right\",\"37\",\"8\",\"1\",\"5\",\"P\",\"C\",\"113\"
\"\",\"\",\"approach-retreat\",\"117\",\"960016\",\"0.0-117.0\",\"\",\"\",\"1-1\",\"5212\",\"37\",\"0\",\"Training\",\"Stims/Figures/7-J-10-4.bmp\",\"nalana\",\"Right\",\"39\",\"8\",\"2\",\"5\",\"S\",\"C\",\"114\"
\"\",\"\",\"approach-retreat\",\"118\",\"965749\",\"0.0-118.0\",\"\",\"\",\"1-1\",\"4218\",\"38\",\"1\",\"Training\",\"Stims/Figures/27-C-30-1.bmp\",\"pa:ka:ta\",\"Down\",\"38\",\"8\",\"3\",\"5\",\"P\",\"C\",\"115\"
\"\",\"\",\"approach-retreat\",\"119\",\"972314\",\"0.0-119.0\",\"\",\"\",\"1-1\",\"5055\",\"38\",\"1\",\"Training\",\"Stims/Figures/118-J-0-2.bmp\",\"ma:la:la\",\"Up\",\"38\",\"8\",\"4\",\"5\",\"S\",\"C\",\"116\"
\"\",\"\",\"approach-retreat\",\"120\",\"978083\",\"0.0-120.0\",\"\",\"\",\"1-1\",\"4255\",\"37\",\"1\",\"Training\",\"Stims/Figures/144-C-30-3.bmp\",\"takata\",\"Right\",\"37\",\"8\",\"5\",\"5\",\"P\",\"C\",\"117\"
\"\",\"\",\"approach-retreat\",\"121\",\"983901\",\"0.0-121.0\",\"\",\"\",\"1-1\",\"4305\",\"40\",\"1\",\"Training\",\"Stims/Figures/144-J-10-3.bmp\",\"na:lana\",\"Down\",\"40\",\"8\",\"6\",\"5\",\"S\",\"C\",\"118\"
\"\",\"\",\"approach-retreat\",\"122\",\"990025\",\"0.0-122.0\",\"\",\"\",\"1-1\",\"4610\",\"39\",\"1\",\"Training\",\"Stims/Figures/85-C-20-2.bmp\",\"ta:kata\",\"Left\",\"39\",\"8\",\"7\",\"5\",\"P\",\"C\",\"119\"
\"\",\"\",\"approach-retreat\",\"123\",\"995677\",\"0.0-123.0\",\"\",\"\",\"1-1\",\"4133\",\"37\",\"1\",\"Training\",\"Stims/Figures/111-J-10-3.bmp\",\"ma:mana\",\"Left\",\"37\",\"8\",\"8\",\"5\",\"S\",\"C\",\"120\"
\"\",\"\",\"approach-retreat\",\"124\",\"1001441\",\"0.0-124.0\",\"\",\"\",\"1-1\",\"4248\",\"37\",\"1\",\"Training\",\"Stims/Figures/93-J-0-1.bmp\",\"mala:na\",\"Left\",\"37\",\"8\",\"9\",\"5\",\"S\",\"C\",\"121\"
\"\",\"\",\"approach-retreat\",\"125\",\"1007081\",\"0.0-125.0\",\"\",\"\",\"1-1\",\"4125\",\"40\",\"1\",\"Training\",\"Stims/Figures/87-C-20-4.bmp\",\"pa:pa:ka\",\"Up\",\"40\",\"8\",\"10\",\"5\",\"P\",\"C\",\"122\"
\"\",\"\",\"approach-retreat\",\"126\",\"1013704\",\"0.0-126.0\",\"\",\"\",\"1-1\",\"5107\",\"37\",\"1\",\"Training\",\"Stims/Figures/27-J-0-1.bmp\",\"mamala\",\"Left\",\"37\",\"8\",\"11\",\"5\",\"S\",\"C\",\"123\"
\"\",\"\",\"approach-retreat\",\"127\",\"1019561\",\"0.0-127.0\",\"\",\"\",\"1-1\",\"4344\",\"38\",\"1\",\"Training\",\"Stims/Figures/85-J-0-2.bmp\",\"ma:la:na\",\"Up\",\"38\",\"8\",\"12\",\"5\",\"S\",\"C\",\"124\"
\"\",\"\",\"approach-retreat\",\"128\",\"1025323\",\"0.0-128.0\",\"\",\"\",\"1-1\",\"4249\",\"38\",\"1\",\"Training\",\"Stims/Figures/118-C-20-2.bmp\",\"pa:kaka\",\"Down\",\"38\",\"8\",\"13\",\"5\",\"P\",\"C\",\"125\"
\"\",\"\",\"approach-retreat\",\"129\",\"1031225\",\"0.0-129.0\",\"\",\"\",\"1-1\",\"4386\",\"37\",\"1\",\"Training\",\"Stims/Figures/93-C-30-1.bmp\",\"ta:kaka\",\"Right\",\"37\",\"8\",\"14\",\"5\",\"P\",\"C\",\"126\"
\"\",\"\",\"approach-retreat\",\"130\",\"1036979\",\"0.0-130.0\",\"\",\"\",\"1-1\",\"4243\",\"40\",\"1\",\"Training\",\"Stims/Figures/7-C-20-4.bmp\",\"pakaka\",\"Up\",\"40\",\"8\",\"15\",\"5\",\"P\",\"C\",\"127\"
\"\",\"\",\"approach-retreat\",\"131\",\"1043055\",\"0.0-131.0\",\"\",\"\",\"1-1\",\"4564\",\"40\",\"1\",\"Training\",\"Stims/Figures/87-J-10-4.bmp\",\"mamana\",\"Down\",\"40\",\"8\",\"16\",\"5\",\"S\",\"C\",\"128\"
\"\",\"\",\"approach-retreat\",\"132\",\"1048825\",\"0.0-132.0\",\"\",\"\",\"1-1\",\"4254\",\"40\",\"1\",\"Training\",\"Stims/Figures/85-J-0-2.bmp\",\"ma:la:na\",\"Down\",\"40\",\"9\",\"1\",\"5\",\"S\",\"C\",\"129\"
\"\",\"\",\"approach-retreat\",\"133\",\"1054970\",\"0.0-133.0\",\"\",\"\",\"1-1\",\"4621\",\"40\",\"1\",\"Training\",\"Stims/Figures/118-J-0-2.bmp\",\"ma:la:la\",\"Down\",\"40\",\"9\",\"2\",\"5\",\"S\",\"C\",\"130\"
\"\",\"\",\"approach-retreat\",\"134\",\"1060895\",\"0.0-134.0\",\"\",\"\",\"1-1\",\"4416\",\"37\",\"1\",\"Training\",\"Stims/Figures/27-C-30-1.bmp\",\"pa:ka:ta\",\"Right\",\"37\",\"9\",\"3\",\"5\",\"P\",\"C\",\"131\"
\"\",\"\",\"approach-retreat\",\"135\",\"1066750\",\"0.0-135.0\",\"\",\"\",\"1-1\",\"4346\",\"37\",\"1\",\"Training\",\"Stims/Figures/93-J-0-1.bmp\",\"mala:na\",\"Left\",\"37\",\"9\",\"4\",\"5\",\"S\",\"C\",\"132\"
\"\",\"\",\"approach-retreat\",\"136\",\"1072558\",\"0.0-136.0\",\"\",\"\",\"1-1\",\"4291\",\"38\",\"1\",\"Training\",\"Stims/Figures/144-C-30-3.bmp\",\"takata\",\"Down\",\"38\",\"9\",\"5\",\"5\",\"P\",\"C\",\"133\"
\"\",\"\",\"approach-retreat\",\"137\",\"1078572\",\"0.0-137.0\",\"\",\"\",\"1-1\",\"4497\",\"37\",\"1\",\"Training\",\"Stims/Figures/85-C-20-2.bmp\",\"ta:kata\",\"Right\",\"37\",\"9\",\"6\",\"5\",\"P\",\"C\",\"134\"
\"\",\"\",\"approach-retreat\",\"138\",\"1084209\",\"0.0-138.0\",\"\",\"\",\"1-1\",\"4124\",\"40\",\"1\",\"Training\",\"Stims/Figures/7-C-20-4.bmp\",\"pakaka\",\"Up\",\"40\",\"9\",\"7\",\"5\",\"P\",\"C\",\"135\"
\"\",\"\",\"approach-retreat\",\"139\",\"1090639\",\"0.0-139.0\",\"\",\"\",\"1-1\",\"4921\",\"39\",\"1\",\"Training\",\"Stims/Figures/27-J-0-1.bmp\",\"mamala\",\"Right\",\"39\",\"9\",\"8\",\"5\",\"S\",\"C\",\"136\"
\"\",\"\",\"approach-retreat\",\"140\",\"1097024\",\"0.0-140.0\",\"\",\"\",\"1-1\",\"4877\",\"37\",\"1\",\"Training\",\"Stims/Figures/87-J-10-4.bmp\",\"mamana\",\"Left\",\"37\",\"9\",\"9\",\"5\",\"S\",\"C\",\"137\"
\"\",\"\",\"approach-retreat\",\"141\",\"1104439\",\"0.0-141.0\",\"\",\"\",\"1-1\",\"5898\",\"38\",\"1\",\"Training\",\"Stims/Figures/111-J-10-3.bmp\",\"ma:mana\",\"Up\",\"38\",\"9\",\"10\",\"5\",\"S\",\"C\",\"138\"
\"\",\"\",\"approach-retreat\",\"142\",\"1110229\",\"0.0-142.0\",\"\",\"\",\"1-1\",\"4278\",\"37\",\"1\",\"Training\",\"Stims/Figures/111-C-30-3.bmp\",\"papata\",\"Right\",\"37\",\"9\",\"11\",\"5\",\"P\",\"C\",\"139\"
\"\",\"\",\"approach-retreat\",\"143\",\"1115823\",\"0.0-143.0\",\"\",\"\",\"1-1\",\"4078\",\"39\",\"1\",\"Training\",\"Stims/Figures/93-C-30-1.bmp\",\"ta:kaka\",\"Left\",\"39\",\"9\",\"12\",\"5\",\"P\",\"C\",\"140\"
\"\",\"\",\"approach-retreat\",\"144\",\"1122066\",\"0.0-144.0\",\"\",\"\",\"1-1\",\"4734\",\"38\",\"1\",\"Training\",\"Stims/Figures/87-C-20-4.bmp\",\"pa:pa:ka\",\"Down\",\"38\",\"9\",\"13\",\"5\",\"P\",\"C\",\"141\"
\"\",\"\",\"approach-retreat\",\"145\",\"1127742\",\"0.0-145.0\",\"\",\"\",\"1-1\",\"4160\",\"37\",\"1\",\"Training\",\"Stims/Figures/7-J-10-4.bmp\",\"nalana\",\"Left\",\"37\",\"9\",\"14\",\"5\",\"S\",\"C\",\"142\"
\"\",\"\",\"approach-retreat\",\"146\",\"1133374\",\"0.0-146.0\",\"\",\"\",\"1-1\",\"4123\",\"40\",\"1\",\"Training\",\"Stims/Figures/118-C-20-2.bmp\",\"pa:kaka\",\"Up\",\"40\",\"9\",\"15\",\"5\",\"P\",\"C\",\"143\"
\"\",\"\",\"approach-retreat\",\"147\",\"1139169\",\"0.0-147.0\",\"\",\"\",\"1-1\",\"4285\",\"38\",\"1\",\"Training\",\"Stims/Figures/144-J-10-3.bmp\",\"na:lana\",\"Up\",\"38\",\"9\",\"16\",\"5\",\"S\",\"C\",\"144\"
\"33304\",\"\",\"instructions\",\"148\",\"1172474\",\"0.0-148.0\",\"[{\"\"page_index\"\":0,\"\"viewing_time\"\":33304}]\",\"\",\"\",\"\",\"\",\"\",\"\",\"\",\"\",\"\",\"\",\"\",\"\",\"\",\"\",\"\",\"\"
\"\",\"\",\"approach-retreat\",\"149\",\"1178718\",\"0.0-149.0\",\"\",\"\",\"1-1\",\"4732\",\"39\",\"1\",\"Testing\",\"Stims/Figures/118-C-20-2.bmp\",\"pa:kaka\",\"Left\",\"39\",\"1\",\"1\",\"5\",\"P\",\"C\",\"1\"
\"\",\"\",\"approach-retreat\",\"150\",\"1185162\",\"0.0-150.0\",\"\",\"\",\"1-1\",\"4936\",\"40\",\"0\",\"Testing\",\"Stims/Figures/74-C-20-4.bmp\",\"tapata\",\"Down\",\"38\",\"1\",\"2\",\"5\",\"P\",\"C\",\"2\"
\"\",\"\",\"approach-retreat\",\"151\",\"1190937\",\"0.0-151.0\",\"\",\"\",\"1-1\",\"4261\",\"39\",\"1\",\"Testing\",\"Stims/Figures/111-C-30-3.bmp\",\"papata\",\"Left\",\"39\",\"1\",\"3\",\"5\",\"P\",\"C\",\"3\"
\"\",\"\",\"approach-retreat\",\"152\",\"1197621\",\"0.0-152.0\",\"\",\"\",\"1-1\",\"5168\",\"39\",\"1\",\"Testing\",\"Stims/Figures/100-C-30-3.bmp\",\"pa:ka:ka\",\"Left\",\"39\",\"1\",\"4\",\"5\",\"P\",\"C\",\"4\"
\"\",\"\",\"approach-retreat\",\"153\",\"1203574\",\"0.0-153.0\",\"\",\"\",\"1-1\",\"4443\",\"40\",\"1\",\"Testing\",\"Stims/Figures/85-C-20-2.bmp\",\"ta:kata\",\"Up\",\"40\",\"1\",\"5\",\"5\",\"P\",\"C\",\"5\"
\"\",\"\",\"approach-retreat\",\"154\",\"1210747\",\"0.0-154.0\",\"\",\"\",\"1-1\",\"5657\",\"37\",\"0\",\"Testing\",\"Stims/Figures/144-C-30-3.bmp\",\"takata\",\"Left\",\"39\",\"1\",\"6\",\"5\",\"P\",\"C\",\"6\"
\"\",\"\",\"approach-retreat\",\"155\",\"1216573\",\"0.0-155.0\",\"\",\"\",\"1-1\",\"4315\",\"39\",\"1\",\"Testing\",\"Stims/Figures/27-J-0-1.bmp\",\"mamala\",\"Right\",\"39\",\"1\",\"7\",\"5\",\"S\",\"C\",\"7\"
\"\",\"\",\"approach-retreat\",\"156\",\"1222486\",\"0.0-156.0\",\"\",\"\",\"1-1\",\"4390\",\"37\",\"0\",\"Testing\",\"Stims/Figures/93-C-30-1.bmp\",\"ta:kaka\",\"Left\",\"39\",\"1\",\"8\",\"5\",\"P\",\"C\",\"8\"
\"\",\"\",\"approach-retreat\",\"157\",\"1228323\",\"0.0-157.0\",\"\",\"\",\"1-1\",\"4328\",\"40\",\"1\",\"Testing\",\"Stims/Figures/94-J-0-2.bmp\",\"ma:ma:na\",\"Down\",\"40\",\"1\",\"9\",\"5\",\"S\",\"C\",\"9\"
\"\",\"\",\"approach-retreat\",\"158\",\"1234318\",\"0.0-158.0\",\"\",\"\",\"1-1\",\"4474\",\"38\",\"1\",\"Testing\",\"Stims/Figures/85-J-0-2.bmp\",\"ma:la:na\",\"Up\",\"38\",\"1\",\"10\",\"5\",\"S\",\"C\",\"10\"
\"\",\"\",\"approach-retreat\",\"159\",\"1241166\",\"0.0-159.0\",\"\",\"\",\"1-1\",\"5336\",\"40\",\"1\",\"Testing\",\"Stims/Figures/7-C-20-4.bmp\",\"pakaka\",\"Up\",\"40\",\"1\",\"11\",\"5\",\"P\",\"C\",\"11\"
\"\",\"\",\"approach-retreat\",\"160\",\"1247650\",\"0.0-160.0\",\"\",\"\",\"1-1\",\"4969\",\"37\",\"1\",\"Testing\",\"Stims/Figures/86-C-30-1.bmp\",\"tapa:ka\",\"Right\",\"37\",\"1\",\"12\",\"5\",\"P\",\"C\",\"12\"
\"\",\"\",\"approach-retreat\",\"161\",\"1253457\",\"0.0-161.0\",\"\",\"\",\"1-1\",\"4294\",\"38\",\"1\",\"Testing\",\"Stims/Figures/27-C-30-1.bmp\",\"pa:ka:ta\",\"Down\",\"38\",\"1\",\"13\",\"5\",\"P\",\"C\",\"13\"
\"\",\"\",\"approach-retreat\",\"162\",\"1259325\",\"0.0-162.0\",\"\",\"\",\"1-1\",\"4353\",\"40\",\"0\",\"Testing\",\"Stims/Figures/144-J-10-3.bmp\",\"na:lana\",\"Up\",\"38\",\"1\",\"14\",\"5\",\"S\",\"C\",\"14\"
\"\",\"\",\"approach-retreat\",\"163\",\"1265739\",\"0.0-163.0\",\"\",\"\",\"1-1\",\"4903\",\"37\",\"1\",\"Testing\",\"Stims/Figures/87-C-20-4.bmp\",\"pa:pa:ka\",\"Right\",\"37\",\"1\",\"15\",\"5\",\"P\",\"C\",\"15\"
\"\",\"\",\"approach-retreat\",\"164\",\"1272524\",\"0.0-164.0\",\"\",\"\",\"1-1\",\"5268\",\"38\",\"0\",\"Testing\",\"Stims/Figures/7-J-10-4.bmp\",\"nalana\",\"Down\",\"40\",\"1\",\"16\",\"5\",\"S\",\"C\",\"16\"
\"\",\"\",\"approach-retreat\",\"165\",\"1278463\",\"0.0-165.0\",\"\",\"\",\"1-1\",\"4417\",\"39\",\"1\",\"Testing\",\"Stims/Figures/93-J-0-1.bmp\",\"mala:na\",\"Right\",\"39\",\"1\",\"17\",\"5\",\"S\",\"C\",\"17\"
\"\",\"\",\"approach-retreat\",\"166\",\"1284167\",\"0.0-166.0\",\"\",\"\",\"1-1\",\"4185\",\"40\",\"1\",\"Testing\",\"Stims/Figures/118-J-0-2.bmp\",\"ma:la:la\",\"Down\",\"40\",\"1\",\"18\",\"5\",\"S\",\"C\",\"18\"
\"\",\"\",\"approach-retreat\",\"167\",\"1290535\",\"0.0-167.0\",\"\",\"\",\"1-1\",\"4844\",\"39\",\"1\",\"Testing\",\"Stims/Figures/87-J-10-4.bmp\",\"mamana\",\"Right\",\"39\",\"1\",\"19\",\"5\",\"S\",\"C\",\"19\"
\"\",\"\",\"approach-retreat\",\"168\",\"1296413\",\"0.0-168.0\",\"\",\"\",\"1-1\",\"4371\",\"37\",\"1\",\"Testing\",\"Stims/Figures/74-J-10-4.bmp\",\"ma:lala\",\"Left\",\"37\",\"1\",\"20\",\"5\",\"S\",\"C\",\"20\"
\"\",\"\",\"approach-retreat\",\"169\",\"1302659\",\"0.0-169.0\",\"\",\"\",\"1-1\",\"4732\",\"40\",\"0\",\"Testing\",\"Stims/Figures/111-J-10-3.bmp\",\"ma:mana\",\"Up\",\"38\",\"1\",\"21\",\"5\",\"S\",\"C\",\"21\"
\"\",\"\",\"approach-retreat\",\"170\",\"1309181\",\"0.0-170.0\",\"\",\"\",\"1-1\",\"5001\",\"38\",\"1\",\"Testing\",\"Stims/Figures/86-J-0-1.bmp\",\"nama:na\",\"Up\",\"38\",\"1\",\"22\",\"5\",\"S\",\"C\",\"22\"
\"\",\"\",\"approach-retreat\",\"171\",\"1315091\",\"0.0-171.0\",\"\",\"\",\"1-1\",\"4391\",\"38\",\"1\",\"Testing\",\"Stims/Figures/94-C-20-2.bmp\",\"taka:ta\",\"Down\",\"38\",\"1\",\"23\",\"5\",\"P\",\"C\",\"23\"
\"\",\"\",\"approach-retreat\",\"172\",\"1322048\",\"0.0-172.0\",\"\",\"\",\"1-1\",\"5450\",\"39\",\"1\",\"Testing\",\"Stims/Figures/100-J-10-3.bmp\",\"mama:na\",\"Right\",\"39\",\"1\",\"24\",\"5\",\"S\",\"C\",\"24\"
\"\",\"\",\"approach-retreat\",\"173\",\"1328429\",\"0.0-173.0\",\"\",\"\",\"1-1\",\"4869\",\"38\",\"1\",\"Testing\",\"Stims/Figures/118-J-0-2.bmp\",\"ma:la:la\",\"Up\",\"38\",\"2\",\"1\",\"5\",\"S\",\"C\",\"25\"
\"\",\"\",\"approach-retreat\",\"174\",\"1334395\",\"0.0-174.0\",\"\",\"\",\"1-1\",\"4458\",\"40\",\"1\",\"Testing\",\"Stims/Figures/85-C-20-2.bmp\",\"ta:kata\",\"Up\",\"40\",\"2\",\"2\",\"5\",\"P\",\"C\",\"26\"
\"\",\"\",\"approach-retreat\",\"175\",\"1340220\",\"0.0-175.0\",\"\",\"\",\"1-1\",\"4307\",\"40\",\"1\",\"Testing\",\"Stims/Figures/144-C-30-3.bmp\",\"takata\",\"Up\",\"40\",\"2\",\"3\",\"5\",\"P\",\"C\",\"27\"
\"\",\"\",\"approach-retreat\",\"176\",\"1346925\",\"0.0-176.0\",\"\",\"\",\"1-1\",\"5199\",\"38\",\"1\",\"Testing\",\"Stims/Figures/118-C-20-2.bmp\",\"pa:kaka\",\"Down\",\"38\",\"2\",\"4\",\"5\",\"P\",\"C\",\"28\"
\"\",\"\",\"approach-retreat\",\"177\",\"1352644\",\"0.0-177.0\",\"\",\"\",\"1-1\",\"4208\",\"39\",\"1\",\"Testing\",\"Stims/Figures/86-C-30-1.bmp\",\"tapa:ka\",\"Left\",\"39\",\"2\",\"5\",\"5\",\"P\",\"C\",\"29\"
\"\",\"\",\"approach-retreat\",\"178\",\"1358386\",\"0.0-178.0\",\"\",\"\",\"1-1\",\"4222\",\"39\",\"1\",\"Testing\",\"Stims/Figures/74-C-20-4.bmp\",\"tapata\",\"Left\",\"39\",\"2\",\"6\",\"5\",\"P\",\"C\",\"30\"
\"\",\"\",\"approach-retreat\",\"179\",\"1364443\",\"0.0-179.0\",\"\",\"\",\"1-1\",\"4537\",\"40\",\"1\",\"Testing\",\"Stims/Figures/85-J-0-2.bmp\",\"ma:la:na\",\"Down\",\"40\",\"2\",\"7\",\"5\",\"S\",\"C\",\"31\"
\"\",\"\",\"approach-retreat\",\"180\",\"1371200\",\"0.0-180.0\",\"\",\"\",\"1-1\",\"5238\",\"39\",\"1\",\"Testing\",\"Stims/Figures/94-C-20-2.bmp\",\"taka:ta\",\"Left\",\"39\",\"2\",\"8\",\"5\",\"P\",\"C\",\"32\"
\"\",\"\",\"approach-retreat\",\"181\",\"1378636\",\"0.0-181.0\",\"\",\"\",\"1-1\",\"5925\",\"39\",\"1\",\"Testing\",\"Stims/Figures/111-J-10-3.bmp\",\"ma:mana\",\"Right\",\"39\",\"2\",\"9\",\"5\",\"S\",\"C\",\"33\"
\"\",\"\",\"approach-retreat\",\"182\",\"1385340\",\"0.0-182.0\",\"\",\"\",\"1-1\",\"5182\",\"40\",\"1\",\"Testing\",\"Stims/Figures/100-C-30-3.bmp\",\"pa:ka:ka\",\"Up\",\"40\",\"2\",\"10\",\"5\",\"P\",\"C\",\"34\"
\"\",\"\",\"approach-retreat\",\"183\",\"1392537\",\"0.0-183.0\",\"\",\"\",\"1-1\",\"5681\",\"38\",\"1\",\"Testing\",\"Stims/Figures/27-C-30-1.bmp\",\"pa:ka:ta\",\"Down\",\"38\",\"2\",\"11\",\"5\",\"P\",\"C\",\"35\"
\"\",\"\",\"approach-retreat\",\"184\",\"1399263\",\"0.0-184.0\",\"\",\"\",\"1-1\",\"5207\",\"39\",\"1\",\"Testing\",\"Stims/Figures/94-J-0-2.bmp\",\"ma:ma:na\",\"Right\",\"39\",\"2\",\"12\",\"5\",\"S\",\"C\",\"36\"
\"\",\"\",\"approach-retreat\",\"185\",\"1405367\",\"0.0-185.0\",\"\",\"\",\"1-1\",\"4597\",\"40\",\"1\",\"Testing\",\"Stims/Figures/87-C-20-4.bmp\",\"pa:pa:ka\",\"Up\",\"40\",\"2\",\"13\",\"5\",\"P\",\"C\",\"37\"
\"\",\"\",\"approach-retreat\",\"186\",\"1412178\",\"0.0-186.0\",\"\",\"\",\"1-1\",\"5299\",\"37\",\"1\",\"Testing\",\"Stims/Figures/144-J-10-3.bmp\",\"na:lana\",\"Left\",\"37\",\"2\",\"14\",\"5\",\"S\",\"C\",\"38\"
\"\",\"\",\"approach-retreat\",\"187\",\"1418257\",\"0.0-187.0\",\"\",\"\",\"1-1\",\"4556\",\"39\",\"1\",\"Testing\",\"Stims/Figures/100-J-10-3.bmp\",\"mama:na\",\"Right\",\"39\",\"2\",\"15\",\"5\",\"S\",\"C\",\"39\"
\"\",\"\",\"approach-retreat\",\"188\",\"1424025\",\"0.0-188.0\",\"\",\"\",\"1-1\",\"4231\",\"39\",\"1\",\"Testing\",\"Stims/Figures/93-J-0-1.bmp\",\"mala:na\",\"Right\",\"39\",\"2\",\"16\",\"5\",\"S\",\"C\",\"40\"
\"\",\"\",\"approach-retreat\",\"189\",\"1429843\",\"0.0-189.0\",\"\",\"\",\"1-1\",\"4303\",\"39\",\"1\",\"Testing\",\"Stims/Figures/86-J-0-1.bmp\",\"nama:na\",\"Right\",\"39\",\"2\",\"17\",\"5\",\"S\",\"C\",\"41\"
\"\",\"\",\"approach-retreat\",\"190\",\"1435655\",\"0.0-190.0\",\"\",\"\",\"1-1\",\"4301\",\"38\",\"1\",\"Testing\",\"Stims/Figures/111-C-30-3.bmp\",\"papata\",\"Down\",\"38\",\"2\",\"18\",\"5\",\"P\",\"C\",\"42\"
\"\",\"\",\"approach-retreat\",\"191\",\"1441718\",\"0.0-191.0\",\"\",\"\",\"1-1\",\"4547\",\"38\",\"1\",\"Testing\",\"Stims/Figures/93-C-30-1.bmp\",\"ta:kaka\",\"Down\",\"38\",\"2\",\"19\",\"5\",\"P\",\"C\",\"43\"
\"\",\"\",\"approach-retreat\",\"192\",\"1448079\",\"0.0-192.0\",\"\",\"\",\"1-1\",\"4844\",\"37\",\"1\",\"Testing\",\"Stims/Figures/27-J-0-1.bmp\",\"mamala\",\"Left\",\"37\",\"2\",\"20\",\"5\",\"S\",\"C\",\"44\"
\"\",\"\",\"approach-retreat\",\"193\",\"1455264\",\"0.0-193.0\",\"\",\"\",\"1-1\",\"5677\",\"38\",\"1\",\"Testing\",\"Stims/Figures/87-J-10-4.bmp\",\"mamana\",\"Up\",\"38\",\"2\",\"21\",\"5\",\"S\",\"C\",\"45\"
\"\",\"\",\"approach-retreat\",\"194\",\"1461716\",\"0.0-194.0\",\"\",\"\",\"1-1\",\"4932\",\"39\",\"1\",\"Testing\",\"Stims/Figures/74-J-10-4.bmp\",\"ma:lala\",\"Right\",\"39\",\"2\",\"22\",\"5\",\"S\",\"C\",\"46\"
\"\",\"\",\"approach-retreat\",\"195\",\"1469230\",\"0.0-195.0\",\"\",\"\",\"1-1\",\"6002\",\"40\",\"0\",\"Testing\",\"Stims/Figures/7-C-20-4.bmp\",\"pakaka\",\"Down\",\"38\",\"2\",\"23\",\"5\",\"P\",\"C\",\"47\"
\"\",\"\",\"approach-retreat\",\"196\",\"1475287\",\"0.0-196.0\",\"\",\"\",\"1-1\",\"4549\",\"37\",\"1\",\"Testing\",\"Stims/Figures/7-J-10-4.bmp\",\"nalana\",\"Left\",\"37\",\"2\",\"24\",\"5\",\"S\",\"C\",\"48\"
\"\",\"\",\"approach-retreat\",\"197\",\"1481155\",\"0.0-197.0\",\"\",\"\",\"1-1\",\"4354\",\"38\",\"1\",\"Testing\",\"Stims/Figures/93-J-0-1.bmp\",\"mala:na\",\"Up\",\"38\",\"3\",\"1\",\"5\",\"S\",\"C\",\"49\"
\"\",\"\",\"approach-retreat\",\"198\",\"1487485\",\"0.0-198.0\",\"\",\"\",\"1-1\",\"4810\",\"37\",\"0\",\"Testing\",\"Stims/Figures/111-J-10-3.bmp\",\"ma:mana\",\"Right\",\"39\",\"3\",\"2\",\"5\",\"S\",\"C\",\"50\"
\"\",\"\",\"approach-retreat\",\"199\",\"1493580\",\"0.0-199.0\",\"\",\"\",\"1-1\",\"4586\",\"37\",\"1\",\"Testing\",\"Stims/Figures/86-J-0-1.bmp\",\"nama:na\",\"Left\",\"37\",\"3\",\"3\",\"5\",\"S\",\"C\",\"51\"
\"\",\"\",\"approach-retreat\",\"200\",\"1500389\",\"0.0-200.0\",\"\",\"\",\"1-1\",\"5295\",\"38\",\"0\",\"Testing\",\"Stims/Figures/27-C-30-1.bmp\",\"pa:ka:ta\",\"Up\",\"40\",\"3\",\"4\",\"5\",\"P\",\"C\",\"52\"
\"\",\"\",\"approach-retreat\",\"201\",\"1506126\",\"0.0-201.0\",\"\",\"\",\"1-1\",\"4227\",\"39\",\"1\",\"Testing\",\"Stims/Figures/85-C-20-2.bmp\",\"ta:kata\",\"Left\",\"39\",\"3\",\"5\",\"5\",\"P\",\"C\",\"53\"
\"\",\"\",\"approach-retreat\",\"202\",\"1513373\",\"0.0-202.0\",\"\",\"\",\"1-1\",\"5736\",\"39\",\"1\",\"Testing\",\"Stims/Figures/144-J-10-3.bmp\",\"na:lana\",\"Right\",\"39\",\"3\",\"6\",\"5\",\"S\",\"C\",\"54\"
\"\",\"\",\"approach-retreat\",\"203\",\"1520009\",\"0.0-203.0\",\"\",\"\",\"1-1\",\"5118\",\"39\",\"1\",\"Testing\",\"Stims/Figures/7-C-20-4.bmp\",\"pakaka\",\"Left\",\"39\",\"3\",\"7\",\"5\",\"P\",\"C\",\"55\"
\"\",\"\",\"approach-retreat\",\"204\",\"1529569\",\"0.0-204.0\",\"\",\"\",\"1-1\",\"8045\",\"38\",\"1\",\"Testing\",\"Stims/Figures/87-J-10-4.bmp\",\"mamana\",\"Up\",\"38\",\"3\",\"8\",\"5\",\"S\",\"C\",\"56\"
\"\",\"\",\"approach-retreat\",\"205\",\"1537239\",\"0.0-205.0\",\"\",\"\",\"1-1\",\"6150\",\"39\",\"1\",\"Testing\",\"Stims/Figures/7-J-10-4.bmp\",\"nalana\",\"Right\",\"39\",\"3\",\"9\",\"5\",\"S\",\"C\",\"57\"
\"\",\"\",\"approach-retreat\",\"206\",\"1543494\",\"0.0-206.0\",\"\",\"\",\"1-1\",\"4733\",\"38\",\"1\",\"Testing\",\"Stims/Figures/111-C-30-3.bmp\",\"papata\",\"Down\",\"38\",\"3\",\"10\",\"5\",\"P\",\"C\",\"58\"
\"\",\"\",\"approach-retreat\",\"207\",\"1549718\",\"0.0-207.0\",\"\",\"\",\"1-1\",\"4716\",\"39\",\"1\",\"Testing\",\"Stims/Figures/87-C-20-4.bmp\",\"pa:pa:ka\",\"Left\",\"39\",\"3\",\"11\",\"5\",\"P\",\"C\",\"59\"
\"\",\"\",\"approach-retreat\",\"208\",\"1555391\",\"0.0-208.0\",\"\",\"\",\"1-1\",\"4154\",\"38\",\"1\",\"Testing\",\"Stims/Figures/94-C-20-2.bmp\",\"taka:ta\",\"Down\",\"38\",\"3\",\"12\",\"5\",\"P\",\"C\",\"60\"
\"\",\"\",\"approach-retreat\",\"209\",\"1561468\",\"0.0-209.0\",\"\",\"\",\"1-1\",\"4564\",\"38\",\"1\",\"Testing\",\"Stims/Figures/100-J-10-3.bmp\",\"mama:na\",\"Up\",\"38\",\"3\",\"13\",\"5\",\"S\",\"C\",\"61\"
\"\",\"\",\"approach-retreat\",\"210\",\"1567786\",\"0.0-210.0\",\"\",\"\",\"1-1\",\"4798\",\"38\",\"1\",\"Testing\",\"Stims/Figures/100-C-30-3.bmp\",\"pa:ka:ka\",\"Down\",\"38\",\"3\",\"14\",\"5\",\"P\",\"C\",\"62\"
\"\",\"\",\"approach-retreat\",\"211\",\"1573685\",\"0.0-211.0\",\"\",\"\",\"1-1\",\"4392\",\"38\",\"1\",\"Testing\",\"Stims/Figures/74-C-20-4.bmp\",\"tapata\",\"Down\",\"38\",\"3\",\"15\",\"5\",\"P\",\"C\",\"63\"
\"\",\"\",\"approach-retreat\",\"212\",\"1580063\",\"0.0-212.0\",\"\",\"\",\"1-1\",\"4869\",\"40\",\"1\",\"Testing\",\"Stims/Figures/27-J-0-1.bmp\",\"mamala\",\"Down\",\"40\",\"3\",\"16\",\"5\",\"S\",\"C\",\"64\"
\"\",\"\",\"approach-retreat\",\"213\",\"1586030\",\"0.0-213.0\",\"\",\"\",\"1-1\",\"4447\",\"37\",\"1\",\"Testing\",\"Stims/Figures/118-J-0-2.bmp\",\"ma:la:la\",\"Left\",\"37\",\"3\",\"17\",\"5\",\"S\",\"C\",\"65\"
\"\",\"\",\"approach-retreat\",\"214\",\"1591927\",\"0.0-214.0\",\"\",\"\",\"1-1\",\"4389\",\"39\",\"1\",\"Testing\",\"Stims/Figures/94-J-0-2.bmp\",\"ma:ma:na\",\"Right\",\"39\",\"3\",\"18\",\"5\",\"S\",\"C\",\"66\"
\"\",\"\",\"approach-retreat\",\"215\",\"1597976\",\"0.0-215.0\",\"\",\"\",\"1-1\",\"4533\",\"37\",\"1\",\"Testing\",\"Stims/Figures/93-C-30-1.bmp\",\"ta:kaka\",\"Right\",\"37\",\"3\",\"19\",\"5\",\"P\",\"C\",\"67\"
\"\",\"\",\"approach-retreat\",\"216\",\"1604400\",\"0.0-216.0\",\"\",\"\",\"1-1\",\"4901\",\"40\",\"1\",\"Testing\",\"Stims/Figures/118-C-20-2.bmp\",\"pa:kaka\",\"Up\",\"40\",\"3\",\"20\",\"5\",\"P\",\"C\",\"68\"
\"\",\"\",\"approach-retreat\",\"217\",\"1610920\",\"0.0-217.0\",\"\",\"\",\"1-1\",\"5007\",\"38\",\"1\",\"Testing\",\"Stims/Figures/85-J-0-2.bmp\",\"ma:la:na\",\"Up\",\"38\",\"3\",\"21\",\"5\",\"S\",\"C\",\"69\"
\"\",\"\",\"approach-retreat\",\"218\",\"1619532\",\"0.0-218.0\",\"\",\"\",\"1-1\",\"7104\",\"37\",\"0\",\"Testing\",\"Stims/Figures/74-J-10-4.bmp\",\"ma:lala\",\"Right\",\"39\",\"3\",\"22\",\"5\",\"S\",\"C\",\"70\"
\"\",\"\",\"approach-retreat\",\"219\",\"1625616\",\"0.0-219.0\",\"\",\"\",\"1-1\",\"4570\",\"38\",\"1\",\"Testing\",\"Stims/Figures/86-C-30-1.bmp\",\"tapa:ka\",\"Down\",\"38\",\"3\",\"23\",\"5\",\"P\",\"C\",\"71\"
\"\",\"\",\"approach-retreat\",\"220\",\"1631903\",\"0.0-220.0\",\"\",\"\",\"1-1\",\"4767\",\"39\",\"1\",\"Testing\",\"Stims/Figures/144-C-30-3.bmp\",\"takata\",\"Left\",\"39\",\"3\",\"24\",\"5\",\"P\",\"C\",\"72\"
\"\",\"\",\"approach-retreat\",\"221\",\"1639264\",\"0.0-221.0\",\"\",\"\",\"1-1\",\"5851\",\"38\",\"1\",\"Testing\",\"Stims/Figures/74-J-10-4.bmp\",\"ma:lala\",\"Up\",\"38\",\"4\",\"1\",\"5\",\"S\",\"C\",\"73\"
\"\",\"\",\"approach-retreat\",\"222\",\"1648264\",\"0.0-222.0\",\"\",\"\",\"1-1\",\"7486\",\"40\",\"1\",\"Testing\",\"Stims/Figures/118-C-20-2.bmp\",\"pa:kaka\",\"Up\",\"40\",\"4\",\"2\",\"5\",\"P\",\"C\",\"74\"
\"\",\"\",\"approach-retreat\",\"223\",\"1654550\",\"0.0-223.0\",\"\",\"\",\"1-1\",\"4776\",\"38\",\"1\",\"Testing\",\"Stims/Figures/86-J-0-1.bmp\",\"nama:na\",\"Up\",\"38\",\"4\",\"3\",\"5\",\"S\",\"C\",\"75\"
\"\",\"\",\"approach-retreat\",\"224\",\"1660651\",\"0.0-224.0\",\"\",\"\",\"1-1\",\"4588\",\"40\",\"1\",\"Testing\",\"Stims/Figures/85-J-0-2.bmp\",\"ma:la:na\",\"Down\",\"40\",\"4\",\"4\",\"5\",\"S\",\"C\",\"76\"
\"\",\"\",\"approach-retreat\",\"225\",\"1668809\",\"0.0-225.0\",\"\",\"\",\"1-1\",\"6638\",\"39\",\"0\",\"Testing\",\"Stims/Figures/111-J-10-3.bmp\",\"ma:mana\",\"Left\",\"37\",\"4\",\"5\",\"5\",\"S\",\"C\",\"77\"
\"\",\"\",\"approach-retreat\",\"226\",\"1675131\",\"0.0-226.0\",\"\",\"\",\"1-1\",\"4807\",\"37\",\"1\",\"Testing\",\"Stims/Figures/27-J-0-1.bmp\",\"mamala\",\"Left\",\"37\",\"4\",\"6\",\"5\",\"S\",\"C\",\"78\"
\"\",\"\",\"approach-retreat\",\"227\",\"1681922\",\"0.0-227.0\",\"\",\"\",\"1-1\",\"5274\",\"37\",\"0\",\"Testing\",\"Stims/Figures/87-J-10-4.bmp\",\"mamana\",\"Right\",\"39\",\"4\",\"7\",\"5\",\"S\",\"C\",\"79\"
\"\",\"\",\"approach-retreat\",\"228\",\"1688191\",\"0.0-228.0\",\"\",\"\",\"1-1\",\"4758\",\"38\",\"1\",\"Testing\",\"Stims/Figures/111-C-30-3.bmp\",\"papata\",\"Down\",\"38\",\"4\",\"8\",\"5\",\"P\",\"C\",\"80\"
\"\",\"\",\"approach-retreat\",\"229\",\"1694418\",\"0.0-229.0\",\"\",\"\",\"1-1\",\"4711\",\"40\",\"1\",\"Testing\",\"Stims/Figures/93-J-0-1.bmp\",\"mala:na\",\"Down\",\"40\",\"4\",\"9\",\"5\",\"S\",\"C\",\"81\"
\"\",\"\",\"approach-retreat\",\"230\",\"1702135\",\"0.0-230.0\",\"\",\"\",\"1-1\",\"6200\",\"40\",\"1\",\"Testing\",\"Stims/Figures/86-C-30-1.bmp\",\"tapa:ka\",\"Up\",\"40\",\"4\",\"10\",\"5\",\"P\",\"C\",\"82\"
\"\",\"\",\"approach-retreat\",\"231\",\"1708506\",\"0.0-231.0\",\"\",\"\",\"1-1\",\"4853\",\"39\",\"1\",\"Testing\",\"Stims/Figures/144-J-10-3.bmp\",\"na:lana\",\"Right\",\"39\",\"4\",\"11\",\"5\",\"S\",\"C\",\"83\"
\"\",\"\",\"approach-retreat\",\"232\",\"1715413\",\"0.0-232.0\",\"\",\"\",\"1-1\",\"5396\",\"38\",\"1\",\"Testing\",\"Stims/Figures/94-C-20-2.bmp\",\"taka:ta\",\"Down\",\"38\",\"4\",\"12\",\"5\",\"P\",\"C\",\"84\"
\"\",\"\",\"approach-retreat\",\"233\",\"1722063\",\"0.0-233.0\",\"\",\"\",\"1-1\",\"5130\",\"37\",\"1\",\"Testing\",\"Stims/Figures/94-J-0-2.bmp\",\"ma:ma:na\",\"Left\",\"37\",\"4\",\"13\",\"5\",\"S\",\"C\",\"85\"
\"\",\"\",\"approach-retreat\",\"234\",\"1728964\",\"0.0-234.0\",\"\",\"\",\"1-1\",\"5381\",\"37\",\"1\",\"Testing\",\"Stims/Figures/85-C-20-2.bmp\",\"ta:kata\",\"Right\",\"37\",\"4\",\"14\",\"5\",\"P\",\"C\",\"86\"
\"\",\"\",\"approach-retreat\",\"235\",\"1735628\",\"0.0-235.0\",\"\",\"\",\"1-1\",\"5147\",\"39\",\"1\",\"Testing\",\"Stims/Figures/87-C-20-4.bmp\",\"pa:pa:ka\",\"Left\",\"39\",\"4\",\"15\",\"5\",\"P\",\"C\",\"87\"
\"\",\"\",\"approach-retreat\",\"236\",\"1742105\",\"0.0-236.0\",\"\",\"\",\"1-1\",\"4960\",\"37\",\"1\",\"Testing\",\"Stims/Figures/27-C-30-1.bmp\",\"pa:ka:ta\",\"Right\",\"37\",\"4\",\"16\",\"5\",\"P\",\"C\",\"88\"
\"\",\"\",\"approach-retreat\",\"237\",\"1748106\",\"0.0-237.0\",\"\",\"\",\"1-1\",\"4489\",\"37\",\"1\",\"Testing\",\"Stims/Figures/7-C-20-4.bmp\",\"pakaka\",\"Right\",\"37\",\"4\",\"17\",\"5\",\"P\",\"C\",\"89\"
\"\",\"\",\"approach-retreat\",\"238\",\"1754173\",\"0.0-238.0\",\"\",\"\",\"1-1\",\"4547\",\"37\",\"1\",\"Testing\",\"Stims/Figures/100-C-30-3.bmp\",\"pa:ka:ka\",\"Right\",\"37\",\"4\",\"18\",\"5\",\"P\",\"C\",\"90\"
\"\",\"\",\"approach-retreat\",\"239\",\"1760478\",\"0.0-239.0\",\"\",\"\",\"1-1\",\"4787\",\"40\",\"1\",\"Testing\",\"Stims/Figures/100-J-10-3.bmp\",\"mama:na\",\"Down\",\"40\",\"4\",\"19\",\"5\",\"S\",\"C\",\"91\"
\"\",\"\",\"approach-retreat\",\"240\",\"1767139\",\"0.0-240.0\",\"\",\"\",\"1-1\",\"5149\",\"37\",\"1\",\"Testing\",\"Stims/Figures/118-J-0-2.bmp\",\"ma:la:la\",\"Left\",\"37\",\"4\",\"20\",\"5\",\"S\",\"C\",\"92\"
\"\",\"\",\"approach-retreat\",\"241\",\"1775365\",\"0.0-241.0\",\"\",\"\",\"1-1\",\"6703\",\"40\",\"1\",\"Testing\",\"Stims/Figures/93-C-30-1.bmp\",\"ta:kaka\",\"Up\",\"40\",\"4\",\"21\",\"5\",\"P\",\"C\",\"93\"
\"\",\"\",\"approach-retreat\",\"242\",\"1782521\",\"0.0-242.0\",\"\",\"\",\"1-1\",\"5641\",\"38\",\"1\",\"Testing\",\"Stims/Figures/144-C-30-3.bmp\",\"takata\",\"Down\",\"38\",\"4\",\"22\",\"5\",\"P\",\"C\",\"94\"
\"\",\"\",\"approach-retreat\",\"243\",\"1790043\",\"0.0-243.0\",\"\",\"\",\"1-1\",\"6007\",\"37\",\"1\",\"Testing\",\"Stims/Figures/7-J-10-4.bmp\",\"nalana\",\"Left\",\"37\",\"4\",\"23\",\"5\",\"S\",\"C\",\"95\"
\"\",\"\",\"approach-retreat\",\"244\",\"1796977\",\"0.0-244.0\",\"\",\"\",\"1-1\",\"5427\",\"40\",\"1\",\"Testing\",\"Stims/Figures/74-C-20-4.bmp\",\"tapata\",\"Up\",\"40\",\"4\",\"24\",\"5\",\"P\",\"C\",\"96\"
\"117653\",\"\",\"survey-text\",\"245\",\"1914638\",\"0.0-245.0\",\"\",\"{\"\"Q0\"\":\"\"PS140032\"\"}\",\"\",\"\",\"\",\"\",\"\",\"\",\"\",\"\",\"\",\"\",\"\",\"\",\"\",\"\",\"\"
