"rt","key_press","trial_type","trial_index","time_elapsed","internal_node_id","view_history","responses","Id","Rt","ResKeyCode","ResCorr","TrialType2","Image","Label","Location","CorrectResponse","Block","BlockTrial","Condition","LabelType","Subcondition","trialNum"
"11084","32","text","0","11089","0.0-0.0-0.0","","","","","","","","","","","","","","","","",""
"111705","","instructions","1","122799","0.0-1.0","[{""page_index"":0,""viewing_time"":111704}]","","","","","","","","","","","","","","","",""
"58084","","survey-multi-choice","2","180956","0.0-2.0","","{""Q0"":""Da"",""Q1"":""Da"",""Q2"":""Da"",""Q3"":""Da"",""Q4"":""Da"",""Q5"":""Da""}","","","","","","","","","","","","","","",""
"","","bio","3","192007","0.0-3.0","","{""age"":""19"",""gender"":""m"",""specify"":""""}","","","","","","","","","","","","","","",""
"","","approach-retreat","4","211634","0.0-4.0","","","1-1","18106","40","0","Training","Stims/Figures/27-C-30-1.bmp","vafa:va","Up","38","1","1","6B","C1","J","1"
"","","approach-retreat","5","232760","0.0-5.0","","","1-1","19599","37","1","Training","Stims/Figures/19-C-20-4.bmp","va:sha:sha","Left","37","1","2","6B","C1","J","2"
"","","approach-retreat","6","241973","0.0-6.0","","","1-1","7675","38","1","Training","Stims/Figures/74-J-10-4.bmp","zahaha","Down","38","1","3","6B","C2","J","3"
"","","approach-retreat","7","252761","0.0-7.0","","","1-1","9254","39","1","Training","Stims/Figures/84-C-20-2.bmp","vafa:sha","Right","39","1","4","6B","C1","J","4"
"","","approach-retreat","8","260495","0.0-8.0","","","1-1","6204","37","1","Training","Stims/Figures/118-C-20-2.bmp","fa:fa:va","Left","37","1","5","6B","C1","J","5"
"","","approach-retreat","9","267611","0.0-9.0","","","1-1","5589","38","1","Training","Stims/Figures/44-C-30-3.bmp","fafa:va","Up","38","1","6","6B","C1","J","6"
"","","approach-retreat","10","274105","0.0-10.0","","","1-1","4950","37","1","Training","Stims/Figures/84-J-0-2.bmp","zasa:za","Right","37","1","7","6B","C2","J","7"
"","","approach-retreat","11","281231","0.0-11.0","","","1-1","5587","38","0","Training","Stims/Figures/128-C-30-3.bmp","fa:shasha","Down","40","1","8","6B","C1","J","8"
"","","approach-retreat","12","287699","0.0-12.0","","","1-1","4940","39","1","Training","Stims/Figures/44-J-10-3.bmp","saha:ha","Left","39","1","9","6B","C2","J","9"
"","","approach-retreat","13","294347","0.0-13.0","","","1-1","5115","38","0","Training","Stims/Figures/74-C-20-4.bmp","va:fa:va","Down","40","1","10","6B","C1","J","10"
"","","approach-retreat","14","300998","0.0-14.0","","","1-1","5115","39","1","Training","Stims/Figures/57-J-0-1.bmp","zasa:ha","Left","39","1","11","6B","C2","J","11"
"","","approach-retreat","15","307997","0.0-15.0","","","1-1","5462","37","1","Training","Stims/Figures/128-J-10-3.bmp","sa:ha:ha","Right","37","1","12","6B","C2","J","12"
"","","approach-retreat","16","313882","0.0-16.0","","","1-1","4355","37","1","Training","Stims/Figures/19-J-10-4.bmp","saha:za","Right","37","1","13","6B","C2","J","13"
"","","approach-retreat","17","319748","0.0-17.0","","","1-1","4330","40","1","Training","Stims/Figures/57-C-30-1.bmp","fa:sha:va","Down","40","1","14","6B","C1","J","14"
"","","approach-retreat","18","326137","0.0-18.0","","","1-1","4853","40","1","Training","Stims/Figures/118-J-0-2.bmp","za:ha:ha","Up","40","1","15","6B","C2","J","15"
"","","approach-retreat","19","332515","0.0-19.0","","","1-1","4830","40","1","Training","Stims/Figures/27-J-0-1.bmp","sa:ha:za","Up","40","1","16","6B","C2","J","16"
"","","approach-retreat","20","338548","0.0-20.0","","","1-1","4499","37","1","Training","Stims/Figures/19-C-20-4.bmp","va:sha:sha","Left","37","2","1","6B","C1","J","17"
"","","approach-retreat","21","344588","0.0-21.0","","","1-1","4506","39","1","Training","Stims/Figures/84-J-0-2.bmp","zasa:za","Left","39","2","2","6B","C2","J","18"
"","","approach-retreat","22","350853","0.0-22.0","","","1-1","4738","38","1","Training","Stims/Figures/128-C-30-3.bmp","fa:shasha","Up","38","2","3","6B","C1","J","19"
"","","approach-retreat","23","356961","0.0-23.0","","","1-1","4577","39","1","Training","Stims/Figures/118-J-0-2.bmp","za:ha:ha","Left","39","2","4","6B","C2","J","20"
"","","approach-retreat","24","363202","0.0-24.0","","","1-1","4710","37","1","Training","Stims/Figures/27-J-0-1.bmp","sa:ha:za","Right","37","2","5","6B","C2","J","21"
"","","approach-retreat","25","369195","0.0-25.0","","","1-1","4478","39","1","Training","Stims/Figures/44-C-30-3.bmp","fafa:va","Right","39","2","6","6B","C1","J","22"
"","","approach-retreat","26","374959","0.0-26.0","","","1-1","4229","38","1","Training","Stims/Figures/44-J-10-3.bmp","saha:ha","Down","38","2","7","6B","C2","J","23"
"","","approach-retreat","27","381157","0.0-27.0","","","1-1","4667","38","1","Training","Stims/Figures/84-C-20-2.bmp","vafa:sha","Up","38","2","8","6B","C1","J","24"
"","","approach-retreat","28","387355","0.0-28.0","","","1-1","4659","40","1","Training","Stims/Figures/128-J-10-3.bmp","sa:ha:ha","Up","40","2","9","6B","C2","J","25"
"","","approach-retreat","29","393064","0.0-29.0","","","1-1","4174","38","1","Training","Stims/Figures/27-C-30-1.bmp","vafa:va","Up","38","2","10","6B","C1","J","26"
"","","approach-retreat","30","400500","0.0-30.0","","","1-1","5906","38","1","Training","Stims/Figures/74-J-10-4.bmp","zahaha","Down","38","2","11","6B","C2","J","27"
"","","approach-retreat","31","406990","0.0-31.0","","","1-1","4961","37","1","Training","Stims/Figures/74-C-20-4.bmp","va:fa:va","Left","37","2","12","6B","C1","J","28"
"","","approach-retreat","32","412766","0.0-32.0","","","1-1","4246","37","1","Training","Stims/Figures/57-J-0-1.bmp","zasa:ha","Right","37","2","13","6B","C2","J","29"
"","","approach-retreat","33","420128","0.0-33.0","","","1-1","5827","40","1","Training","Stims/Figures/118-C-20-2.bmp","fa:fa:va","Down","40","2","14","6B","C1","J","30"
"","","approach-retreat","34","425680","0.0-34.0","","","1-1","4018","40","1","Training","Stims/Figures/57-C-30-1.bmp","fa:sha:va","Down","40","2","15","6B","C1","J","31"
"","","approach-retreat","35","431585","0.0-35.0","","","1-1","4387","37","1","Training","Stims/Figures/19-J-10-4.bmp","saha:za","Right","37","2","16","6B","C2","J","32"
"","","approach-retreat","36","437418","0.0-36.0","","","1-1","4300","37","1","Training","Stims/Figures/44-J-10-3.bmp","saha:ha","Right","37","3","1","6B","C2","J","33"
"","","approach-retreat","37","443196","0.0-37.0","","","1-1","4240","40","1","Training","Stims/Figures/57-J-0-1.bmp","zasa:ha","Up","40","3","2","6B","C2","J","34"
"","","approach-retreat","38","449910","0.0-38.0","","","1-1","5169","37","1","Training","Stims/Figures/74-C-20-4.bmp","va:fa:va","Left","37","3","3","6B","C1","J","35"
"","","approach-retreat","39","456411","0.0-39.0","","","1-1","4988","38","1","Training","Stims/Figures/118-J-0-2.bmp","za:ha:ha","Down","38","3","4","6B","C2","J","36"
"","","approach-retreat","40","462166","0.0-40.0","","","1-1","4223","39","1","Training","Stims/Figures/128-J-10-3.bmp","sa:ha:ha","Left","39","3","5","6B","C2","J","37"
"","","approach-retreat","41","467947","0.0-41.0","","","1-1","4241","40","1","Training","Stims/Figures/57-C-30-1.bmp","fa:sha:va","Down","40","3","6","6B","C1","J","38"
"","","approach-retreat","42","474276","0.0-42.0","","","1-1","4794","39","1","Training","Stims/Figures/27-J-0-1.bmp","sa:ha:za","Left","39","3","7","6B","C2","J","39"
"","","approach-retreat","43","480555","0.0-43.0","","","1-1","4742","38","1","Training","Stims/Figures/27-C-30-1.bmp","vafa:va","Up","38","3","8","6B","C1","J","40"
"","","approach-retreat","44","487142","0.0-44.0","","","1-1","5052","38","1","Training","Stims/Figures/128-C-30-3.bmp","fa:shasha","Up","38","3","9","6B","C1","J","41"
"","","approach-retreat","45","493878","0.0-45.0","","","1-1","5204","37","1","Training","Stims/Figures/84-J-0-2.bmp","zasa:za","Right","37","3","10","6B","C2","J","42"
"","","approach-retreat","46","499756","0.0-46.0","","","1-1","4341","38","1","Training","Stims/Figures/118-C-20-2.bmp","fa:fa:va","Up","38","3","11","6B","C1","J","43"
"","","approach-retreat","47","506136","0.0-47.0","","","1-1","4849","39","1","Training","Stims/Figures/44-C-30-3.bmp","fafa:va","Right","39","3","12","6B","C1","J","44"
"","","approach-retreat","48","512260","0.0-48.0","","","1-1","4593","40","1","Training","Stims/Figures/84-C-20-2.bmp","vafa:sha","Down","40","3","13","6B","C1","J","45"
"","","approach-retreat","49","518255","0.0-49.0","","","1-1","4458","39","1","Training","Stims/Figures/19-C-20-4.bmp","va:sha:sha","Right","39","3","14","6B","C1","J","46"
"","","approach-retreat","50","524256","0.0-50.0","","","1-1","4471","38","1","Training","Stims/Figures/74-J-10-4.bmp","zahaha","Down","38","3","15","6B","C2","J","47"
"","","approach-retreat","51","530116","0.0-51.0","","","1-1","4329","39","1","Training","Stims/Figures/19-J-10-4.bmp","saha:za","Left","39","3","16","6B","C2","J","48"
"","","approach-retreat","52","535802","0.0-52.0","","","1-1","4149","39","1","Training","Stims/Figures/118-C-20-2.bmp","fa:fa:va","Right","39","4","1","6B","C1","J","49"
"","","approach-retreat","53","543061","0.0-53.0","","","1-1","5730","37","1","Training","Stims/Figures/84-J-0-2.bmp","zasa:za","Right","37","4","2","6B","C2","J","50"
"","","approach-retreat","54","549167","0.0-54.0","","","1-1","4573","38","1","Training","Stims/Figures/27-C-30-1.bmp","vafa:va","Up","38","4","3","6B","C1","J","51"
"","","approach-retreat","55","556541","0.0-55.0","","","1-1","5833","39","1","Training","Stims/Figures/74-J-10-4.bmp","zahaha","Left","39","4","4","6B","C2","J","52"
"","","approach-retreat","56","563421","0.0-56.0","","","1-1","5353","37","1","Training","Stims/Figures/57-C-30-1.bmp","fa:sha:va","Left","37","4","5","6B","C1","J","53"
"","","approach-retreat","57","570010","0.0-57.0","","","1-1","5058","40","1","Training","Stims/Figures/19-J-10-4.bmp","saha:za","Up","40","4","6","6B","C2","J","54"
"","","approach-retreat","58","575997","0.0-58.0","","","1-1","4459","39","1","Training","Stims/Figures/57-J-0-1.bmp","zasa:ha","Left","39","4","7","6B","C2","J","55"
"","","approach-retreat","59","582143","0.0-59.0","","","1-1","4606","39","1","Training","Stims/Figures/19-C-20-4.bmp","va:sha:sha","Right","39","4","8","6B","C1","J","56"
"","","approach-retreat","60","587904","0.0-60.0","","","1-1","4223","38","1","Training","Stims/Figures/44-J-10-3.bmp","saha:ha","Down","38","4","9","6B","C2","J","57"
"","","approach-retreat","61","593713","0.0-61.0","","","1-1","4273","37","1","Training","Stims/Figures/74-C-20-4.bmp","va:fa:va","Left","37","4","10","6B","C1","J","58"
"","","approach-retreat","62","599563","0.0-62.0","","","1-1","4313","40","1","Training","Stims/Figures/27-J-0-1.bmp","sa:ha:za","Up","40","4","11","6B","C2","J","59"
"","","approach-retreat","63","605463","0.0-63.0","","","1-1","4366","40","1","Training","Stims/Figures/128-J-10-3.bmp","sa:ha:ha","Up","40","4","12","6B","C2","J","60"
"","","approach-retreat","64","611552","0.0-64.0","","","1-1","4556","38","1","Training","Stims/Figures/118-J-0-2.bmp","za:ha:ha","Down","38","4","13","6B","C2","J","61"
"","","approach-retreat","65","617560","0.0-65.0","","","1-1","4479","40","1","Training","Stims/Figures/44-C-30-3.bmp","fafa:va","Down","40","4","14","6B","C1","J","62"
"","","approach-retreat","66","623930","0.0-66.0","","","1-1","4832","39","1","Training","Stims/Figures/84-C-20-2.bmp","vafa:sha","Right","39","4","15","6B","C1","J","63"
"","","approach-retreat","67","630673","0.0-67.0","","","1-1","5217","40","1","Training","Stims/Figures/128-C-30-3.bmp","fa:shasha","Down","40","4","16","6B","C1","J","64"
"","","approach-retreat","68","637016","0.0-68.0","","","1-1","4811","39","1","Training","Stims/Figures/118-C-20-2.bmp","fa:fa:va","Right","39","5","1","6B","C1","J","65"
"","","approach-retreat","69","642820","0.0-69.0","","","1-1","4270","38","1","Training","Stims/Figures/84-C-20-2.bmp","vafa:sha","Up","38","5","2","6B","C1","J","66"
"","","approach-retreat","70","648734","0.0-70.0","","","1-1","4378","38","1","Training","Stims/Figures/74-J-10-4.bmp","zahaha","Down","38","5","3","6B","C2","J","67"
"","","approach-retreat","71","655776","0.0-71.0","","","1-1","5508","40","1","Training","Stims/Figures/27-C-30-1.bmp","vafa:va","Down","40","5","4","6B","C1","J","68"
"","","approach-retreat","72","662349","0.0-72.0","","","1-1","5040","39","1","Training","Stims/Figures/128-J-10-3.bmp","sa:ha:ha","Left","39","5","5","6B","C2","J","69"
"","","approach-retreat","73","667994","0.0-73.0","","","1-1","4117","39","1","Training","Stims/Figures/44-J-10-3.bmp","saha:ha","Left","39","5","6","6B","C2","J","70"
"","","approach-retreat","74","674513","0.0-74.0","","","1-1","4979","38","1","Training","Stims/Figures/27-J-0-1.bmp","sa:ha:za","Down","38","5","7","6B","C2","J","71"
"","","approach-retreat","75","680259","0.0-75.0","","","1-1","4228","39","1","Training","Stims/Figures/57-C-30-1.bmp","fa:sha:va","Right","39","5","8","6B","C1","J","72"
"","","approach-retreat","76","686757","0.0-76.0","","","1-1","4970","40","1","Training","Stims/Figures/57-J-0-1.bmp","zasa:ha","Up","40","5","9","6B","C2","J","73"
"","","approach-retreat","77","694029","0.0-77.0","","","1-1","5755","40","1","Training","Stims/Figures/118-J-0-2.bmp","za:ha:ha","Up","40","5","10","6B","C2","J","74"
"","","approach-retreat","78","701312","0.0-78.0","","","1-1","5743","37","1","Training","Stims/Figures/19-C-20-4.bmp","va:sha:sha","Left","37","5","11","6B","C1","J","75"
"","","approach-retreat","79","707479","0.0-79.0","","","1-1","4637","39","1","Training","Stims/Figures/84-J-0-2.bmp","zasa:za","Left","39","5","12","6B","C2","J","76"
"","","approach-retreat","80","715454","0.0-80.0","","","1-1","6454","39","1","Training","Stims/Figures/44-C-30-3.bmp","fafa:va","Right","39","5","13","6B","C1","J","77"
"","","approach-retreat","81","724710","0.0-81.0","","","1-1","7717","38","1","Training","Stims/Figures/74-C-20-4.bmp","va:fa:va","Up","38","5","14","6B","C1","J","78"
"","","approach-retreat","82","730931","0.0-82.0","","","1-1","4689","39","1","Training","Stims/Figures/128-C-30-3.bmp","fa:shasha","Right","39","5","15","6B","C1","J","79"
"","","approach-retreat","83","737535","0.0-83.0","","","1-1","5068","38","1","Training","Stims/Figures/19-J-10-4.bmp","saha:za","Down","38","5","16","6B","C2","J","80"
"","","approach-retreat","84","743259","0.0-84.0","","","1-1","4186","39","1","Training","Stims/Figures/84-J-0-2.bmp","zasa:za","Left","39","6","1","6B","C2","J","81"
"","","approach-retreat","85","748845","0.0-85.0","","","1-1","4052","37","1","Training","Stims/Figures/57-J-0-1.bmp","zasa:ha","Right","37","6","2","6B","C2","J","82"
"","","approach-retreat","86","754709","0.0-86.0","","","1-1","4327","38","1","Training","Stims/Figures/44-J-10-3.bmp","saha:ha","Down","38","6","3","6B","C2","J","83"
"","","approach-retreat","87","761771","0.0-87.0","","","1-1","5530","40","1","Training","Stims/Figures/118-J-0-2.bmp","za:ha:ha","Up","40","6","4","6B","C2","J","84"
"","","approach-retreat","88","767512","0.0-88.0","","","1-1","4201","37","1","Training","Stims/Figures/27-J-0-1.bmp","sa:ha:za","Right","37","6","5","6B","C2","J","85"
"","","approach-retreat","89","775090","0.0-89.0","","","1-1","6044","40","1","Training","Stims/Figures/19-J-10-4.bmp","saha:za","Up","40","6","6","6B","C2","J","86"
"","","approach-retreat","90","780692","0.0-90.0","","","1-1","4057","40","0","Training","Stims/Figures/84-C-20-2.bmp","vafa:sha","Up","38","6","7","6B","C1","J","87"
"","","approach-retreat","91","786685","0.0-91.0","","","1-1","4478","37","1","Training","Stims/Figures/74-J-10-4.bmp","zahaha","Right","37","6","8","6B","C2","J","88"
"","","approach-retreat","92","792547","0.0-92.0","","","1-1","4334","39","0","Training","Stims/Figures/74-C-20-4.bmp","va:fa:va","Left","37","6","9","6B","C1","J","89"
"","","approach-retreat","93","799048","0.0-93.0","","","1-1","4963","40","1","Training","Stims/Figures/118-C-20-2.bmp","fa:fa:va","Down","40","6","10","6B","C1","J","90"
"","","approach-retreat","94","805185","0.0-94.0","","","1-1","4605","39","1","Training","Stims/Figures/128-C-30-3.bmp","fa:shasha","Right","39","6","11","6B","C1","J","91"
"","","approach-retreat","95","811230","0.0-95.0","","","1-1","4521","37","1","Training","Stims/Figures/27-C-30-1.bmp","vafa:va","Left","37","6","12","6B","C1","J","92"
"","","approach-retreat","96","817865","0.0-96.0","","","1-1","5105","39","1","Training","Stims/Figures/128-J-10-3.bmp","sa:ha:ha","Left","39","6","13","6B","C2","J","93"
"","","approach-retreat","97","825340","0.0-97.0","","","1-1","5945","38","1","Training","Stims/Figures/19-C-20-4.bmp","va:sha:sha","Up","38","6","14","6B","C1","J","94"
"","","approach-retreat","98","831499","0.0-98.0","","","1-1","4627","40","1","Training","Stims/Figures/44-C-30-3.bmp","fafa:va","Down","40","6","15","6B","C1","J","95"
"","","approach-retreat","99","838507","0.0-99.0","","","1-1","5471","40","1","Training","Stims/Figures/57-C-30-1.bmp","fa:sha:va","Down","40","6","16","6B","C1","J","96"
"","","approach-retreat","100","845127","0.0-100.0","","","1-1","5088","40","1","Training","Stims/Figures/118-J-0-2.bmp","za:ha:ha","Up","40","7","1","6B","C2","J","97"
"","","approach-retreat","101","851077","0.0-101.0","","","1-1","4418","39","1","Training","Stims/Figures/84-C-20-2.bmp","vafa:sha","Right","39","7","2","6B","C1","J","98"
"","","approach-retreat","102","857207","0.0-102.0","","","1-1","4587","38","1","Training","Stims/Figures/84-J-0-2.bmp","zasa:za","Down","38","7","3","6B","C2","J","99"
"","","approach-retreat","103","867098","0.0-103.0","","","1-1","8352","38","1","Training","Stims/Figures/74-C-20-4.bmp","va:fa:va","Up","38","7","4","6B","C1","J","100"
"","","approach-retreat","104","873272","0.0-104.0","","","1-1","4644","39","1","Training","Stims/Figures/57-J-0-1.bmp","zasa:ha","Left","39","7","5","6B","C2","J","101"
"","","approach-retreat","105","879428","0.0-105.0","","","1-1","4624","38","1","Training","Stims/Figures/128-J-10-3.bmp","sa:ha:ha","Down","38","7","6","6B","C2","J","102"
"","","approach-retreat","106","885417","0.0-106.0","","","1-1","4453","38","1","Training","Stims/Figures/27-C-30-1.bmp","vafa:va","Up","38","7","7","6B","C1","J","103"
"","","approach-retreat","107","891942","0.0-107.0","","","1-1","4991","37","1","Training","Stims/Figures/118-C-20-2.bmp","fa:fa:va","Left","37","7","8","6B","C1","J","104"
"","","approach-retreat","108","901456","0.0-108.0","","","1-1","7974","39","1","Training","Stims/Figures/19-C-20-4.bmp","va:sha:sha","Right","39","7","9","6B","C1","J","105"
"","","approach-retreat","109","908438","0.0-109.0","","","1-1","5447","38","1","Training","Stims/Figures/57-C-30-1.bmp","fa:sha:va","Up","38","7","10","6B","C1","J","106"
"","","approach-retreat","110","914920","0.0-110.0","","","1-1","4953","37","1","Training","Stims/Figures/44-C-30-3.bmp","fafa:va","Left","37","7","11","6B","C1","J","107"
"","","approach-retreat","111","922603","0.0-111.0","","","1-1","6154","38","1","Training","Stims/Figures/44-J-10-3.bmp","saha:ha","Down","38","7","12","6B","C2","J","108"
"","","approach-retreat","112","928943","0.0-112.0","","","1-1","4796","39","1","Training","Stims/Figures/128-C-30-3.bmp","fa:shasha","Right","39","7","13","6B","C1","J","109"
"","","approach-retreat","113","937301","0.0-113.0","","","1-1","6820","38","1","Training","Stims/Figures/74-J-10-4.bmp","zahaha","Down","38","7","14","6B","C2","J","110"
"","","approach-retreat","114","945268","0.0-114.0","","","1-1","6423","37","1","Training","Stims/Figures/27-J-0-1.bmp","sa:ha:za","Right","37","7","15","6B","C2","J","111"
"","","approach-retreat","115","951726","0.0-115.0","","","1-1","4923","39","1","Training","Stims/Figures/19-J-10-4.bmp","saha:za","Left","39","7","16","6B","C2","J","112"
"","","approach-retreat","116","957668","0.0-116.0","","","1-1","4414","38","1","Training","Stims/Figures/128-J-10-3.bmp","sa:ha:ha","Down","38","8","1","6B","C2","J","113"
"","","approach-retreat","117","964336","0.0-117.0","","","1-1","5139","37","1","Training","Stims/Figures/128-C-30-3.bmp","fa:shasha","Left","37","8","2","6B","C1","J","114"
"","","approach-retreat","118","970084","0.0-118.0","","","1-1","4210","37","1","Training","Stims/Figures/44-J-10-3.bmp","saha:ha","Right","37","8","3","6B","C2","J","115"
"","","approach-retreat","119","976063","0.0-119.0","","","1-1","4452","37","1","Training","Stims/Figures/84-C-20-2.bmp","vafa:sha","Left","37","8","4","6B","C1","J","116"
"","","approach-retreat","120","982758","0.0-120.0","","","1-1","5158","40","1","Training","Stims/Figures/74-C-20-4.bmp","va:fa:va","Down","40","8","5","6B","C1","J","117"
"","","approach-retreat","121","989938","0.0-121.0","","","1-1","5641","38","1","Training","Stims/Figures/84-J-0-2.bmp","zasa:za","Down","38","8","6","6B","C2","J","118"
"","","approach-retreat","122","996599","0.0-122.0","","","1-1","5129","38","1","Training","Stims/Figures/44-C-30-3.bmp","fafa:va","Up","38","8","7","6B","C1","J","119"
"","","approach-retreat","123","1003186","0.0-123.0","","","1-1","5052","38","1","Training","Stims/Figures/118-C-20-2.bmp","fa:fa:va","Up","38","8","8","6B","C1","J","120"
"","","approach-retreat","124","1009619","0.0-124.0","","","1-1","4891","37","1","Training","Stims/Figures/27-J-0-1.bmp","sa:ha:za","Right","37","8","9","6B","C2","J","121"
"","","approach-retreat","125","1016359","0.0-125.0","","","1-1","5207","39","1","Training","Stims/Figures/27-C-30-1.bmp","vafa:va","Right","39","8","10","6B","C1","J","122"
"","","approach-retreat","126","1024701","0.0-126.0","","","1-1","6801","37","1","Training","Stims/Figures/57-C-30-1.bmp","fa:sha:va","Left","37","8","11","6B","C1","J","123"
"","","approach-retreat","127","1032546","0.0-127.0","","","1-1","6306","40","1","Training","Stims/Figures/19-C-20-4.bmp","va:sha:sha","Down","40","8","12","6B","C1","J","124"
"","","approach-retreat","128","1038127","0.0-128.0","","","1-1","4043","37","1","Training","Stims/Figures/57-J-0-1.bmp","zasa:ha","Right","37","8","13","6B","C2","J","125"
"","","approach-retreat","129","1043897","0.0-129.0","","","1-1","4228","40","1","Training","Stims/Figures/118-J-0-2.bmp","za:ha:ha","Up","40","8","14","6B","C2","J","126"
"","","approach-retreat","130","1051669","0.0-130.0","","","1-1","6239","39","1","Training","Stims/Figures/19-J-10-4.bmp","saha:za","Left","39","8","15","6B","C2","J","127"
"","","approach-retreat","131","1059189","0.0-131.0","","","1-1","5995","40","1","Training","Stims/Figures/74-J-10-4.bmp","zahaha","Up","40","8","16","6B","C2","J","128"
"","","approach-retreat","132","1065336","0.0-132.0","","","1-1","4616","40","1","Training","Stims/Figures/44-J-10-3.bmp","saha:ha","Up","40","9","1","6B","C2","J","129"
"","","approach-retreat","133","1071968","0.0-133.0","","","1-1","5101","39","1","Training","Stims/Figures/84-J-0-2.bmp","zasa:za","Left","39","9","2","6B","C2","J","130"
"","","approach-retreat","134","1078528","0.0-134.0","","","1-1","5035","39","1","Training","Stims/Figures/57-C-30-1.bmp","fa:sha:va","Right","39","9","3","6B","C1","J","131"
"","","approach-retreat","135","1086009","0.0-135.0","","","1-1","5950","39","1","Training","Stims/Figures/19-J-10-4.bmp","saha:za","Left","39","9","4","6B","C2","J","132"
"","","approach-retreat","136","1093086","0.0-136.0","","","1-1","5541","37","1","Training","Stims/Figures/27-J-0-1.bmp","sa:ha:za","Right","37","9","5","6B","C2","J","133"
"","","approach-retreat","137","1099782","0.0-137.0","","","1-1","5156","38","1","Training","Stims/Figures/128-J-10-3.bmp","sa:ha:ha","Down","38","9","6","6B","C2","J","134"
"","","approach-retreat","138","1106518","0.0-138.0","","","1-1","5198","40","1","Training","Stims/Figures/57-J-0-1.bmp","zasa:ha","Up","40","9","7","6B","C2","J","135"
"","","approach-retreat","139","1113436","0.0-139.0","","","1-1","5382","40","1","Training","Stims/Figures/118-J-0-2.bmp","za:ha:ha","Up","40","9","8","6B","C2","J","136"
"","","approach-retreat","140","1121088","0.0-140.0","","","1-1","6124","37","1","Training","Stims/Figures/74-J-10-4.bmp","zahaha","Right","37","9","9","6B","C2","J","137"
"","","approach-retreat","141","1127173","0.0-141.0","","","1-1","4557","40","1","Training","Stims/Figures/27-C-30-1.bmp","vafa:va","Down","40","9","10","6B","C1","J","138"
"","","approach-retreat","142","1135425","0.0-142.0","","","1-1","6707","38","1","Training","Stims/Figures/44-C-30-3.bmp","fafa:va","Up","38","9","11","6B","C1","J","139"
"","","approach-retreat","143","1142713","0.0-143.0","","","1-1","5753","39","1","Training","Stims/Figures/84-C-20-2.bmp","vafa:sha","Right","39","9","12","6B","C1","J","140"
"","","approach-retreat","144","1151708","0.0-144.0","","","1-1","7453","37","1","Training","Stims/Figures/118-C-20-2.bmp","fa:fa:va","Left","37","9","13","6B","C1","J","141"
"","","approach-retreat","145","1159116","0.0-145.0","","","1-1","5890","37","1","Training","Stims/Figures/128-C-30-3.bmp","fa:shasha","Left","37","9","14","6B","C1","J","142"
"","","approach-retreat","146","1165423","0.0-146.0","","","1-1","4760","40","1","Training","Stims/Figures/19-C-20-4.bmp","va:sha:sha","Down","40","9","15","6B","C1","J","143"
"","","approach-retreat","147","1172198","0.0-147.0","","","1-1","5232","40","1","Training","Stims/Figures/74-C-20-4.bmp","va:fa:va","Down","40","9","16","6B","C1","J","144"
"55652","","instructions","148","1227852","0.0-148.0","[{""page_index"":0,""viewing_time"":55651}]","","","","","","","","","","","","","","","",""
"","","approach-retreat","149","1233945","0.0-149.0","","","1-1","4578","37","1","Testing","Stims/Figures/118-J-0-2.bmp","za:ha:ha","Right","37","1","1","6B","C2","J","1"
"","","approach-retreat","150","1241859","0.0-150.0","","","1-1","6387","40","1","Testing","Stims/Figures/7-C-20-4.bmp","fafava","Down","40","1","2","6B","C1","J","2"
"","","approach-retreat","151","1248114","0.0-151.0","","","1-1","4723","40","0","Testing","Stims/Figures/7-J-10-4.bmp","zasaza","Down","38","1","3","6B","C2","J","3"
"","","approach-retreat","152","1254636","0.0-152.0","","","1-1","4988","38","1","Testing","Stims/Figures/128-C-30-3.bmp","fa:shasha","Up","38","1","4","6B","C1","J","4"
"","","approach-retreat","153","1261283","0.0-153.0","","","1-1","5122","38","0","Testing","Stims/Figures/86-J-0-1.bmp","zaha:ha","Up","40","1","5","6B","C2","J","5"
"","","approach-retreat","154","1270145","0.0-154.0","","","1-1","7334","38","1","Testing","Stims/Figures/139-C-20-2.bmp","va:fa:sha","Up","38","1","6","6B","C1","J","6"
"","","approach-retreat","155","1276362","0.0-155.0","","","1-1","4688","39","0","Testing","Stims/Figures/111-J-10-3.bmp","zahaza","Right","37","1","7","6B","C2","J","7"
"","","approach-retreat","156","1282560","0.0-156.0","","","1-1","4659","39","1","Testing","Stims/Figures/57-J-0-1.bmp","zasa:ha","Left","39","1","8","6B","C2","J","8"
"","","approach-retreat","157","1288729","0.0-157.0","","","1-1","4634","37","0","Testing","Stims/Figures/118-C-20-2.bmp","fa:fa:va","Right","39","1","9","6B","C1","J","9"
"","","approach-retreat","158","1295992","0.0-158.0","","","1-1","5740","39","1","Testing","Stims/Figures/111-C-30-3.bmp","fa:fasha","Right","39","1","10","6B","C1","J","10"
"","","approach-retreat","159","1303426","0.0-159.0","","","1-1","5903","40","1","Testing","Stims/Figures/57-C-30-1.bmp","fa:sha:va","Down","40","1","11","6B","C1","J","11"
"","","approach-retreat","160","1312654","0.0-160.0","","","1-1","7693","39","1","Testing","Stims/Figures/27-C-30-1.bmp","vafa:va","Right","39","1","12","6B","C1","J","12"
"","","approach-retreat","161","1319075","0.0-161.0","","","1-1","4882","40","1","Testing","Stims/Figures/84-J-0-2.bmp","zasa:za","Up","40","1","13","6B","C2","J","13"
"","","approach-retreat","162","1326395","0.0-162.0","","","1-1","5789","38","1","Testing","Stims/Figures/44-J-10-3.bmp","saha:ha","Down","38","1","14","6B","C2","J","14"
"","","approach-retreat","163","1332258","0.0-163.0","","","1-1","4338","39","0","Testing","Stims/Figures/128-J-10-3.bmp","sa:ha:ha","Right","37","1","15","6B","C2","J","15"
"","","approach-retreat","164","1338169","0.0-164.0","","","1-1","4387","39","1","Testing","Stims/Figures/74-J-10-4.bmp","zahaha","Left","39","1","16","6B","C2","J","16"
"","","approach-retreat","165","1344136","0.0-165.0","","","1-1","4429","39","1","Testing","Stims/Figures/27-J-0-1.bmp","sa:ha:za","Left","39","1","17","6B","C2","J","17"
"","","approach-retreat","166","1351117","0.0-166.0","","","1-1","5445","37","0","Testing","Stims/Figures/19-J-10-4.bmp","saha:za","Left","39","1","18","6B","C2","J","18"
"","","approach-retreat","167","1357037","0.0-167.0","","","1-1","4399","37","1","Testing","Stims/Figures/86-C-30-1.bmp","vashasha","Left","37","1","19","6B","C1","J","19"
"","","approach-retreat","168","1364828","0.0-168.0","","","1-1","6259","38","0","Testing","Stims/Figures/44-C-30-3.bmp","fafa:va","Down","40","1","20","6B","C1","J","20"
"","","approach-retreat","169","1370817","0.0-169.0","","","1-1","4455","40","1","Testing","Stims/Figures/19-C-20-4.bmp","va:sha:sha","Down","40","1","21","6B","C1","J","21"
"","","approach-retreat","170","1377031","0.0-170.0","","","1-1","4691","40","1","Testing","Stims/Figures/139-J-0-2.bmp","sa:saha","Up","40","1","22","6B","C2","J","22"
"","","approach-retreat","171","1383275","0.0-171.0","","","1-1","4714","38","1","Testing","Stims/Figures/84-C-20-2.bmp","vafa:sha","Up","38","1","23","6B","C1","J","23"
"","","approach-retreat","172","1390358","0.0-172.0","","","1-1","5557","37","1","Testing","Stims/Figures/74-C-20-4.bmp","va:fa:va","Left","37","1","24","6B","C1","J","24"
"","","approach-retreat","173","1396258","0.0-173.0","","","1-1","4375","40","0","Testing","Stims/Figures/111-J-10-3.bmp","zahaza","Down","38","2","1","6B","C2","J","25"
"","","approach-retreat","174","1402177","0.0-174.0","","","1-1","4381","40","1","Testing","Stims/Figures/57-C-30-1.bmp","fa:sha:va","Down","40","2","2","6B","C1","J","26"
"","","approach-retreat","175","1408430","0.0-175.0","","","1-1","4721","39","1","Testing","Stims/Figures/7-C-20-4.bmp","fafava","Right","39","2","3","6B","C1","J","27"
"","","approach-retreat","176","1414225","0.0-176.0","","","1-1","4260","37","1","Testing","Stims/Figures/19-J-10-4.bmp","saha:za","Right","37","2","4","6B","C2","J","28"
"","","approach-retreat","177","1420431","0.0-177.0","","","1-1","4674","40","1","Testing","Stims/Figures/86-C-30-1.bmp","vashasha","Down","40","2","5","6B","C1","J","29"
"","","approach-retreat","178","1426357","0.0-178.0","","","1-1","4389","38","1","Testing","Stims/Figures/128-J-10-3.bmp","sa:ha:ha","Down","38","2","6","6B","C2","J","30"
"","","approach-retreat","179","1431972","0.0-179.0","","","1-1","4090","39","1","Testing","Stims/Figures/84-C-20-2.bmp","vafa:sha","Right","39","2","7","6B","C1","J","31"
"","","approach-retreat","180","1438236","0.0-180.0","","","1-1","4732","40","1","Testing","Stims/Figures/7-J-10-4.bmp","zasaza","Up","40","2","8","6B","C2","J","32"
"","","approach-retreat","181","1445086","0.0-181.0","","","1-1","5318","38","1","Testing","Stims/Figures/19-C-20-4.bmp","va:sha:sha","Up","38","2","9","6B","C1","J","33"
"","","approach-retreat","182","1451017","0.0-182.0","","","1-1","4401","38","1","Testing","Stims/Figures/57-J-0-1.bmp","zasa:ha","Down","38","2","10","6B","C2","J","34"
"","","approach-retreat","183","1457179","0.0-183.0","","","1-1","4650","40","0","Testing","Stims/Figures/44-C-30-3.bmp","fafa:va","Up","38","2","11","6B","C1","J","35"
"","","approach-retreat","184","1463411","0.0-184.0","","","1-1","4702","39","1","Testing","Stims/Figures/139-C-20-2.bmp","va:fa:sha","Right","39","2","12","6B","C1","J","36"
"","","approach-retreat","185","1468976","0.0-185.0","","","1-1","4039","37","1","Testing","Stims/Figures/27-J-0-1.bmp","sa:ha:za","Right","37","2","13","6B","C2","J","37"
"","","approach-retreat","186","1474711","0.0-186.0","","","1-1","4205","39","1","Testing","Stims/Figures/86-J-0-1.bmp","zaha:ha","Left","39","2","14","6B","C2","J","38"
"","","approach-retreat","187","1480787","0.0-187.0","","","1-1","4547","38","1","Testing","Stims/Figures/118-J-0-2.bmp","za:ha:ha","Down","38","2","15","6B","C2","J","39"
"","","approach-retreat","188","1486774","0.0-188.0","","","1-1","4455","39","1","Testing","Stims/Figures/44-J-10-3.bmp","saha:ha","Left","39","2","16","6B","C2","J","40"
"","","approach-retreat","189","1492887","0.0-189.0","","","1-1","4583","37","1","Testing","Stims/Figures/111-C-30-3.bmp","fa:fasha","Left","37","2","17","6B","C1","J","41"
"","","approach-retreat","190","1499196","0.0-190.0","","","1-1","4778","38","1","Testing","Stims/Figures/74-C-20-4.bmp","va:fa:va","Up","38","2","18","6B","C1","J","42"
"","","approach-retreat","191","1506118","0.0-191.0","","","1-1","5395","38","1","Testing","Stims/Figures/118-C-20-2.bmp","fa:fa:va","Up","38","2","19","6B","C1","J","43"
"","","approach-retreat","192","1511997","0.0-192.0","","","1-1","4344","37","1","Testing","Stims/Figures/27-C-30-1.bmp","vafa:va","Left","37","2","20","6B","C1","J","44"
"","","approach-retreat","193","1518997","0.0-193.0","","","1-1","5470","40","1","Testing","Stims/Figures/139-J-0-2.bmp","sa:saha","Up","40","2","21","6B","C2","J","45"
"","","approach-retreat","194","1525417","0.0-194.0","","","1-1","4886","37","1","Testing","Stims/Figures/84-J-0-2.bmp","zasa:za","Right","37","2","22","6B","C2","J","46"
"","","approach-retreat","195","1531199","0.0-195.0","","","1-1","4244","39","1","Testing","Stims/Figures/74-J-10-4.bmp","zahaha","Left","39","2","23","6B","C2","J","47"
"","","approach-retreat","196","1537183","0.0-196.0","","","1-1","4455","37","1","Testing","Stims/Figures/128-C-30-3.bmp","fa:shasha","Left","37","2","24","6B","C1","J","48"
"","","approach-retreat","197","1543424","0.0-197.0","","","1-1","4710","38","1","Testing","Stims/Figures/111-C-30-3.bmp","fa:fasha","Up","38","3","1","6B","C1","J","49"
"","","approach-retreat","198","1549524","0.0-198.0","","","1-1","4568","37","1","Testing","Stims/Figures/139-J-0-2.bmp","sa:saha","Right","37","3","2","6B","C2","J","50"
"","","approach-retreat","199","1555649","0.0-199.0","","","1-1","4594","40","0","Testing","Stims/Figures/7-J-10-4.bmp","zasaza","Down","38","3","3","6B","C2","J","51"
"","","approach-retreat","200","1562045","0.0-200.0","","","1-1","4865","38","1","Testing","Stims/Figures/139-C-20-2.bmp","va:fa:sha","Up","38","3","4","6B","C1","J","52"
"","","approach-retreat","201","1567639","0.0-201.0","","","1-1","4070","39","1","Testing","Stims/Figures/27-J-0-1.bmp","sa:ha:za","Left","39","3","5","6B","C2","J","53"
"","","approach-retreat","202","1576981","0.0-202.0","","","1-1","7831","37","0","Testing","Stims/Figures/74-J-10-4.bmp","zahaha","Left","39","3","6","6B","C2","J","54"
"","","approach-retreat","203","1582533","0.0-203.0","","","1-1","4031","39","1","Testing","Stims/Figures/86-J-0-1.bmp","zaha:ha","Left","39","3","7","6B","C2","J","55"
"","","approach-retreat","204","1588465","0.0-204.0","","","1-1","4417","40","1","Testing","Stims/Figures/118-C-20-2.bmp","fa:fa:va","Down","40","3","8","6B","C1","J","56"
"","","approach-retreat","205","1594665","0.0-205.0","","","1-1","4661","40","0","Testing","Stims/Figures/19-J-10-4.bmp","saha:za","Down","38","3","9","6B","C2","J","57"
"","","approach-retreat","206","1601357","0.0-206.0","","","1-1","5179","40","1","Testing","Stims/Figures/86-C-30-1.bmp","vashasha","Down","40","3","10","6B","C1","J","58"
"","","approach-retreat","207","1608402","0.0-207.0","","","1-1","5528","39","1","Testing","Stims/Figures/74-C-20-4.bmp","va:fa:va","Right","39","3","11","6B","C1","J","59"
"","","approach-retreat","208","1614393","0.0-208.0","","","1-1","4456","39","1","Testing","Stims/Figures/57-J-0-1.bmp","zasa:ha","Left","39","3","12","6B","C2","J","60"
"","","approach-retreat","209","1620601","0.0-209.0","","","1-1","4680","38","1","Testing","Stims/Figures/27-C-30-1.bmp","vafa:va","Up","38","3","13","6B","C1","J","61"
"","","approach-retreat","210","1627294","0.0-210.0","","","1-1","5162","39","1","Testing","Stims/Figures/57-C-30-1.bmp","fa:sha:va","Right","39","3","14","6B","C1","J","62"
"","","approach-retreat","211","1633161","0.0-211.0","","","1-1","4342","39","1","Testing","Stims/Figures/118-J-0-2.bmp","za:ha:ha","Left","39","3","15","6B","C2","J","63"
"","","approach-retreat","212","1639324","0.0-212.0","","","1-1","4631","40","1","Testing","Stims/Figures/84-J-0-2.bmp","zasa:za","Up","40","3","16","6B","C2","J","64"
"","","approach-retreat","213","1645481","0.0-213.0","","","1-1","4629","39","0","Testing","Stims/Figures/128-J-10-3.bmp","sa:ha:ha","Right","37","3","17","6B","C2","J","65"
"","","approach-retreat","214","1651133","0.0-214.0","","","1-1","4118","37","0","Testing","Stims/Figures/44-C-30-3.bmp","fafa:va","Right","39","3","18","6B","C1","J","66"
"","","approach-retreat","215","1657171","0.0-215.0","","","1-1","4522","38","1","Testing","Stims/Figures/44-J-10-3.bmp","saha:ha","Down","38","3","19","6B","C2","J","67"
"","","approach-retreat","216","1663063","0.0-216.0","","","1-1","4365","38","1","Testing","Stims/Figures/7-C-20-4.bmp","fafava","Up","38","3","20","6B","C1","J","68"
"","","approach-retreat","217","1668793","0.0-217.0","","","1-1","4201","39","1","Testing","Stims/Figures/84-C-20-2.bmp","vafa:sha","Right","39","3","21","6B","C1","J","69"
"","","approach-retreat","218","1674849","0.0-218.0","","","1-1","4527","37","1","Testing","Stims/Figures/128-C-30-3.bmp","fa:shasha","Left","37","3","22","6B","C1","J","70"
"","","approach-retreat","219","1682473","0.0-219.0","","","1-1","6094","40","1","Testing","Stims/Figures/19-C-20-4.bmp","va:sha:sha","Down","40","3","23","6B","C1","J","71"
"","","approach-retreat","220","1688341","0.0-220.0","","","1-1","4338","38","0","Testing","Stims/Figures/111-J-10-3.bmp","zahaza","Up","40","3","24","6B","C2","J","72"
"","","approach-retreat","221","1694312","0.0-221.0","","","1-1","4442","37","0","Testing","Stims/Figures/139-J-0-2.bmp","sa:saha","Left","39","4","1","6B","C2","J","73"
"","","approach-retreat","222","1700676","0.0-222.0","","","1-1","4837","38","1","Testing","Stims/Figures/86-C-30-1.bmp","vashasha","Up","38","4","2","6B","C1","J","74"
"","","approach-retreat","223","1706506","0.0-223.0","","","1-1","4306","40","1","Testing","Stims/Figures/84-C-20-2.bmp","vafa:sha","Down","40","4","3","6B","C1","J","75"
"","","approach-retreat","224","1712672","0.0-224.0","","","1-1","4635","38","1","Testing","Stims/Figures/84-J-0-2.bmp","zasa:za","Down","38","4","4","6B","C2","J","76"
"","","approach-retreat","225","1719000","0.0-225.0","","","1-1","4802","39","1","Testing","Stims/Figures/27-J-0-1.bmp","sa:ha:za","Left","39","4","5","6B","C2","J","77"
"","","approach-retreat","226","1725014","0.0-226.0","","","1-1","4484","40","1","Testing","Stims/Figures/74-C-20-4.bmp","va:fa:va","Down","40","4","6","6B","C1","J","78"
"","","approach-retreat","227","1731128","0.0-227.0","","","1-1","4587","37","0","Testing","Stims/Figures/7-J-10-4.bmp","zasaza","Left","39","4","7","6B","C2","J","79"
"","","approach-retreat","228","1737424","0.0-228.0","","","1-1","4765","38","1","Testing","Stims/Figures/19-C-20-4.bmp","va:sha:sha","Up","38","4","8","6B","C1","J","80"
"","","approach-retreat","229","1743259","0.0-229.0","","","1-1","4309","38","1","Testing","Stims/Figures/57-C-30-1.bmp","fa:sha:va","Up","38","4","9","6B","C1","J","81"
"","","approach-retreat","230","1749047","0.0-230.0","","","1-1","4277","40","1","Testing","Stims/Figures/128-C-30-3.bmp","fa:shasha","Down","40","4","10","6B","C1","J","82"
"","","approach-retreat","231","1754914","0.0-231.0","","","1-1","4337","38","1","Testing","Stims/Figures/111-C-30-3.bmp","fa:fasha","Up","38","4","11","6B","C1","J","83"
"","","approach-retreat","232","1760766","0.0-232.0","","","1-1","4319","40","1","Testing","Stims/Figures/128-J-10-3.bmp","sa:ha:ha","Up","40","4","12","6B","C2","J","84"
"","","approach-retreat","233","1766653","0.0-233.0","","","1-1","4356","37","1","Testing","Stims/Figures/118-C-20-2.bmp","fa:fa:va","Left","37","4","13","6B","C1","J","85"
"","","approach-retreat","234","1772474","0.0-234.0","","","1-1","4294","39","1","Testing","Stims/Figures/139-C-20-2.bmp","va:fa:sha","Right","39","4","14","6B","C1","J","86"
"","","approach-retreat","235","1778435","0.0-235.0","","","1-1","4429","37","1","Testing","Stims/Figures/74-J-10-4.bmp","zahaha","Right","37","4","15","6B","C2","J","87"
"","","approach-retreat","236","1784319","0.0-236.0","","","1-1","4355","40","0","Testing","Stims/Figures/44-C-30-3.bmp","fafa:va","Up","38","4","16","6B","C1","J","88"
"","","approach-retreat","237","1790031","0.0-237.0","","","1-1","4183","39","0","Testing","Stims/Figures/111-J-10-3.bmp","zahaza","Right","37","4","17","6B","C2","J","89"
"","","approach-retreat","238","1796199","0.0-238.0","","","1-1","4643","37","1","Testing","Stims/Figures/19-J-10-4.bmp","saha:za","Right","37","4","18","6B","C2","J","90"
"","","approach-retreat","239","1802294","0.0-239.0","","","1-1","4563","37","0","Testing","Stims/Figures/118-J-0-2.bmp","za:ha:ha","Left","39","4","19","6B","C2","J","91"
"","","approach-retreat","240","1808438","0.0-240.0","","","1-1","4612","38","1","Testing","Stims/Figures/57-J-0-1.bmp","zasa:ha","Down","38","4","20","6B","C2","J","92"
"","","approach-retreat","241","1814724","0.0-241.0","","","1-1","4757","40","1","Testing","Stims/Figures/27-C-30-1.bmp","vafa:va","Down","40","4","21","6B","C1","J","93"
"","","approach-retreat","242","1821079","0.0-242.0","","","1-1","4826","37","1","Testing","Stims/Figures/44-J-10-3.bmp","saha:ha","Right","37","4","22","6B","C2","J","94"
"","","approach-retreat","243","1836853","0.0-243.0","","","1-1","14241","39","1","Testing","Stims/Figures/7-C-20-4.bmp","fafava","Right","39","4","23","6B","C1","J","95"
"","","approach-retreat","244","1842697","0.0-244.0","","","1-1","4314","39","1","Testing","Stims/Figures/86-J-0-1.bmp","zaha:ha","Left","39","4","24","6B","C2","J","96"
"","","survey-text","245","2034942","0.0-245.0","","","1-1","196560","39","1","Testing","Stims/Figures/86-J-0-1.bmp","zaha:ha","Left","39","4","24","6B","C2","J",""
