\"rt\",\"key_press\",\"trial_type\",\"trial_index\",\"time_elapsed\",\"internal_node_id\",\"view_history\",\"responses\",\"Id\",\"Rt\",\"ResKeyCode\",\"ResCorr\",\"TrialType2\",\"Image\",\"Label\",\"Location\",\"CorrectResponse\",\"Block\",\"BlockTrial\",\"Condition\",\"LabelType\",\"Subcondition\",\"trialNum\"
\"30348\",\"32\",\"text\",\"0\",\"30354\",\"0.0-0.0-0.0\",\"\",\"\",\"\",\"\",\"\",\"\",\"\",\"\",\"\",\"\",\"\",\"\",\"\",\"\",\"\",\"\",\"\"
\"51158\",\"\",\"instructions\",\"1\",\"81517\",\"0.0-1.0\",\"[{\"\"page_index\"\":0,\"\"viewing_time\"\":51156}]\",\"\",\"\",\"\",\"\",\"\",\"\",\"\",\"\",\"\",\"\",\"\",\"\",\"\",\"\",\"\",\"\"
\"18880\",\"\",\"survey-multi-choice\",\"2\",\"100459\",\"0.0-2.0\",\"\",\"{\"\"Q0\"\":\"\"Da\"\",\"\"Q1\"\":\"\"Da\"\",\"\"Q2\"\":\"\"Da\"\",\"\"Q3\"\":\"\"Da\"\",\"\"Q4\"\":\"\"Da\"\",\"\"Q5\"\":\"\"Da\"\"}\",\"\",\"\",\"\",\"\",\"\",\"\",\"\",\"\",\"\",\"\",\"\",\"\",\"\",\"\",\"\"
\"\",\"\",\"bio\",\"3\",\"109169\",\"0.0-3.0\",\"\",\"{\"\"age\"\":\"\"22\"\",\"\"gender\"\":\"\"f\"\",\"\"specify\"\":\"\"\"\"}\",\"\",\"\",\"\",\"\",\"\",\"\",\"\",\"\",\"\",\"\",\"\",\"\",\"\",\"\",\"\"
\"\",\"\",\"approach-retreat\",\"4\",\"115893\",\"0.0-4.0\",\"\",\"\",\"1-3\",\"5152\",\"37\",\"1\",\"Training\",\"Stims/Figures/7-C-20-4.bmp\",\"tapata\",\"Left\",\"37\",\"1\",\"1\",\"5\",\"P\",\"J\",\"1\"
\"\",\"\",\"approach-retreat\",\"5\",\"122489\",\"0.0-5.0\",\"\",\"\",\"1-3\",\"5015\",\"39\",\"0\",\"Training\",\"Stims/Figures/111-C-30-3.bmp\",\"pa:ka:ta\",\"Left\",\"37\",\"1\",\"2\",\"5\",\"P\",\"J\",\"2\"
\"\",\"\",\"approach-retreat\",\"6\",\"128996\",\"0.0-6.0\",\"\",\"\",\"1-3\",\"4969\",\"38\",\"0\",\"Training\",\"Stims/Figures/86-C-30-1.bmp\",\"pakata\",\"Down\",\"40\",\"1\",\"3\",\"5\",\"P\",\"J\",\"3\"
\"\",\"\",\"approach-retreat\",\"7\",\"134874\",\"0.0-7.0\",\"\",\"\",\"1-3\",\"4352\",\"37\",\"0\",\"Training\",\"Stims/Figures/44-C-30-3.bmp\",\"pa:ka:ka\",\"Right\",\"39\",\"1\",\"4\",\"5\",\"P\",\"J\",\"4\"
\"\",\"\",\"approach-retreat\",\"8\",\"140947\",\"0.0-8.0\",\"\",\"\",\"1-3\",\"4534\",\"37\",\"1\",\"Training\",\"Stims/Figures/84-C-20-2.bmp\",\"tapaka\",\"Left\",\"37\",\"1\",\"5\",\"5\",\"P\",\"J\",\"5\"
\"\",\"\",\"approach-retreat\",\"9\",\"147014\",\"0.0-9.0\",\"\",\"\",\"1-3\",\"4508\",\"38\",\"0\",\"Training\",\"Stims/Figures/19-J-10-4.bmp\",\"malana\",\"Up\",\"40\",\"1\",\"6\",\"5\",\"S\",\"J\",\"6\"
\"\",\"\",\"approach-retreat\",\"10\",\"152969\",\"0.0-10.0\",\"\",\"\",\"1-3\",\"4400\",\"40\",\"1\",\"Training\",\"Stims/Figures/7-J-10-4.bmp\",\"na:mala\",\"Up\",\"40\",\"1\",\"7\",\"5\",\"S\",\"J\",\"7\"
\"\",\"\",\"approach-retreat\",\"11\",\"158672\",\"0.0-11.0\",\"\",\"\",\"1-3\",\"4152\",\"37\",\"1\",\"Training\",\"Stims/Figures/139-J-0-2.bmp\",\"namala\",\"Right\",\"37\",\"1\",\"8\",\"5\",\"S\",\"J\",\"8\"
\"\",\"\",\"approach-retreat\",\"12\",\"164325\",\"0.0-12.0\",\"\",\"\",\"1-3\",\"4099\",\"39\",\"0\",\"Training\",\"Stims/Figures/139-C-20-2.bmp\",\"ta:pa:ta\",\"Left\",\"37\",\"1\",\"9\",\"5\",\"P\",\"J\",\"9\"
\"\",\"\",\"approach-retreat\",\"13\",\"170432\",\"0.0-13.0\",\"\",\"\",\"1-3\",\"4561\",\"38\",\"1\",\"Training\",\"Stims/Figures/44-J-10-3.bmp\",\"nama:la\",\"Down\",\"38\",\"1\",\"10\",\"5\",\"S\",\"J\",\"10\"
\"\",\"\",\"approach-retreat\",\"14\",\"176417\",\"0.0-14.0\",\"\",\"\",\"1-3\",\"4428\",\"39\",\"1\",\"Training\",\"Stims/Figures/71-C-30-1.bmp\",\"ta:pata\",\"Right\",\"39\",\"1\",\"11\",\"5\",\"P\",\"J\",\"11\"
\"\",\"\",\"approach-retreat\",\"15\",\"182871\",\"0.0-15.0\",\"\",\"\",\"1-3\",\"4916\",\"40\",\"0\",\"Training\",\"Stims/Figures/84-J-0-2.bmp\",\"na:lana\",\"Down\",\"38\",\"1\",\"12\",\"5\",\"S\",\"J\",\"12\"
\"\",\"\",\"approach-retreat\",\"16\",\"188867\",\"0.0-16.0\",\"\",\"\",\"1-3\",\"4449\",\"40\",\"1\",\"Training\",\"Stims/Figures/111-J-10-3.bmp\",\"nalana\",\"Up\",\"40\",\"1\",\"13\",\"5\",\"S\",\"J\",\"13\"
\"\",\"\",\"approach-retreat\",\"17\",\"194791\",\"0.0-17.0\",\"\",\"\",\"1-3\",\"4395\",\"39\",\"1\",\"Training\",\"Stims/Figures/19-C-20-4.bmp\",\"ta:ka:ka\",\"Right\",\"39\",\"1\",\"14\",\"5\",\"P\",\"J\",\"14\"
\"\",\"\",\"approach-retreat\",\"18\",\"200565\",\"0.0-18.0\",\"\",\"\",\"1-3\",\"4231\",\"40\",\"0\",\"Training\",\"Stims/Figures/86-J-0-1.bmp\",\"ma:lala\",\"Down\",\"38\",\"1\",\"15\",\"5\",\"S\",\"J\",\"15\"
\"\",\"\",\"approach-retreat\",\"19\",\"206516\",\"0.0-19.0\",\"\",\"\",\"1-3\",\"4400\",\"38\",\"0\",\"Training\",\"Stims/Figures/71-J-0-1.bmp\",\"nalala\",\"Up\",\"40\",\"1\",\"16\",\"5\",\"S\",\"J\",\"16\"
\"\",\"\",\"approach-retreat\",\"20\",\"212343\",\"0.0-20.0\",\"\",\"\",\"1-3\",\"4275\",\"40\",\"1\",\"Training\",\"Stims/Figures/86-C-30-1.bmp\",\"pakata\",\"Down\",\"40\",\"2\",\"1\",\"5\",\"P\",\"J\",\"17\"
\"\",\"\",\"approach-retreat\",\"21\",\"218010\",\"0.0-21.0\",\"\",\"\",\"1-3\",\"4126\",\"39\",\"1\",\"Training\",\"Stims/Figures/139-J-0-2.bmp\",\"namala\",\"Left\",\"39\",\"2\",\"2\",\"5\",\"S\",\"J\",\"18\"
\"\",\"\",\"approach-retreat\",\"22\",\"223906\",\"0.0-22.0\",\"\",\"\",\"1-3\",\"4333\",\"38\",\"0\",\"Training\",\"Stims/Figures/84-J-0-2.bmp\",\"na:lana\",\"Up\",\"40\",\"2\",\"3\",\"5\",\"S\",\"J\",\"19\"
\"\",\"\",\"approach-retreat\",\"23\",\"229759\",\"0.0-23.0\",\"\",\"\",\"1-3\",\"4308\",\"37\",\"1\",\"Training\",\"Stims/Figures/111-J-10-3.bmp\",\"nalana\",\"Right\",\"37\",\"2\",\"4\",\"5\",\"S\",\"J\",\"20\"
\"\",\"\",\"approach-retreat\",\"24\",\"235610\",\"0.0-24.0\",\"\",\"\",\"1-3\",\"4304\",\"38\",\"1\",\"Training\",\"Stims/Figures/139-C-20-2.bmp\",\"ta:pa:ta\",\"Up\",\"38\",\"2\",\"5\",\"5\",\"P\",\"J\",\"21\"
\"\",\"\",\"approach-retreat\",\"25\",\"241323\",\"0.0-25.0\",\"\",\"\",\"1-3\",\"4159\",\"39\",\"1\",\"Training\",\"Stims/Figures/7-C-20-4.bmp\",\"tapata\",\"Right\",\"39\",\"2\",\"6\",\"5\",\"P\",\"J\",\"22\"
\"\",\"\",\"approach-retreat\",\"26\",\"247152\",\"0.0-26.0\",\"\",\"\",\"1-3\",\"4268\",\"39\",\"1\",\"Training\",\"Stims/Figures/44-J-10-3.bmp\",\"nama:la\",\"Left\",\"39\",\"2\",\"7\",\"5\",\"S\",\"J\",\"23\"
\"\",\"\",\"approach-retreat\",\"27\",\"252813\",\"0.0-27.0\",\"\",\"\",\"1-3\",\"4097\",\"38\",\"0\",\"Training\",\"Stims/Figures/86-J-0-1.bmp\",\"ma:lala\",\"Up\",\"40\",\"2\",\"8\",\"5\",\"S\",\"J\",\"24\"
\"\",\"\",\"approach-retreat\",\"28\",\"258423\",\"0.0-28.0\",\"\",\"\",\"1-3\",\"4066\",\"37\",\"1\",\"Training\",\"Stims/Figures/111-C-30-3.bmp\",\"pa:ka:ta\",\"Left\",\"37\",\"2\",\"9\",\"5\",\"P\",\"J\",\"25\"
\"\",\"\",\"approach-retreat\",\"29\",\"264096\",\"0.0-29.0\",\"\",\"\",\"1-3\",\"4117\",\"39\",\"1\",\"Training\",\"Stims/Figures/71-C-30-1.bmp\",\"ta:pata\",\"Right\",\"39\",\"2\",\"10\",\"5\",\"P\",\"J\",\"26\"
\"\",\"\",\"approach-retreat\",\"30\",\"269833\",\"0.0-30.0\",\"\",\"\",\"1-3\",\"4186\",\"38\",\"1\",\"Training\",\"Stims/Figures/7-J-10-4.bmp\",\"na:mala\",\"Down\",\"38\",\"2\",\"11\",\"5\",\"S\",\"J\",\"27\"
\"\",\"\",\"approach-retreat\",\"31\",\"275614\",\"0.0-31.0\",\"\",\"\",\"1-3\",\"4221\",\"39\",\"1\",\"Training\",\"Stims/Figures/19-J-10-4.bmp\",\"malana\",\"Left\",\"39\",\"2\",\"12\",\"5\",\"S\",\"J\",\"28\"
\"\",\"\",\"approach-retreat\",\"32\",\"281272\",\"0.0-32.0\",\"\",\"\",\"1-3\",\"4099\",\"38\",\"1\",\"Training\",\"Stims/Figures/19-C-20-4.bmp\",\"ta:ka:ka\",\"Up\",\"38\",\"2\",\"13\",\"5\",\"P\",\"J\",\"29\"
\"\",\"\",\"approach-retreat\",\"33\",\"287384\",\"0.0-33.0\",\"\",\"\",\"1-3\",\"4590\",\"40\",\"1\",\"Training\",\"Stims/Figures/44-C-30-3.bmp\",\"pa:ka:ka\",\"Down\",\"40\",\"2\",\"14\",\"5\",\"P\",\"J\",\"30\"
\"\",\"\",\"approach-retreat\",\"34\",\"293092\",\"0.0-34.0\",\"\",\"\",\"1-3\",\"4164\",\"40\",\"1\",\"Training\",\"Stims/Figures/84-C-20-2.bmp\",\"tapaka\",\"Down\",\"40\",\"2\",\"15\",\"5\",\"P\",\"J\",\"31\"
\"\",\"\",\"approach-retreat\",\"35\",\"298705\",\"0.0-35.0\",\"\",\"\",\"1-3\",\"4061\",\"37\",\"1\",\"Training\",\"Stims/Figures/71-J-0-1.bmp\",\"nalala\",\"Right\",\"37\",\"2\",\"16\",\"5\",\"S\",\"J\",\"32\"
\"\",\"\",\"approach-retreat\",\"36\",\"304515\",\"0.0-36.0\",\"\",\"\",\"1-3\",\"4261\",\"40\",\"1\",\"Training\",\"Stims/Figures/111-C-30-3.bmp\",\"pa:ka:ta\",\"Down\",\"40\",\"3\",\"1\",\"5\",\"P\",\"J\",\"33\"
\"\",\"\",\"approach-retreat\",\"37\",\"310121\",\"0.0-37.0\",\"\",\"\",\"1-3\",\"4064\",\"40\",\"1\",\"Training\",\"Stims/Figures/19-J-10-4.bmp\",\"malana\",\"Up\",\"40\",\"3\",\"2\",\"5\",\"S\",\"J\",\"34\"
\"\",\"\",\"approach-retreat\",\"38\",\"316345\",\"0.0-38.0\",\"\",\"\",\"1-3\",\"4687\",\"40\",\"1\",\"Training\",\"Stims/Figures/111-J-10-3.bmp\",\"nalana\",\"Up\",\"40\",\"3\",\"3\",\"5\",\"S\",\"J\",\"35\"
\"\",\"\",\"approach-retreat\",\"39\",\"322192\",\"0.0-39.0\",\"\",\"\",\"1-3\",\"4291\",\"39\",\"1\",\"Training\",\"Stims/Figures/44-C-30-3.bmp\",\"pa:ka:ka\",\"Right\",\"39\",\"3\",\"4\",\"5\",\"P\",\"J\",\"36\"
\"\",\"\",\"approach-retreat\",\"40\",\"327798\",\"0.0-40.0\",\"\",\"\",\"1-3\",\"4022\",\"40\",\"1\",\"Training\",\"Stims/Figures/86-C-30-1.bmp\",\"pakata\",\"Down\",\"40\",\"3\",\"5\",\"5\",\"P\",\"J\",\"37\"
\"\",\"\",\"approach-retreat\",\"41\",\"333569\",\"0.0-41.0\",\"\",\"\",\"1-3\",\"4216\",\"38\",\"1\",\"Training\",\"Stims/Figures/71-C-30-1.bmp\",\"ta:pata\",\"Up\",\"38\",\"3\",\"6\",\"5\",\"P\",\"J\",\"38\"
\"\",\"\",\"approach-retreat\",\"42\",\"339261\",\"0.0-42.0\",\"\",\"\",\"1-3\",\"4142\",\"37\",\"1\",\"Training\",\"Stims/Figures/139-J-0-2.bmp\",\"namala\",\"Right\",\"37\",\"3\",\"7\",\"5\",\"S\",\"J\",\"39\"
\"\",\"\",\"approach-retreat\",\"43\",\"344918\",\"0.0-43.0\",\"\",\"\",\"1-3\",\"4115\",\"37\",\"1\",\"Training\",\"Stims/Figures/19-C-20-4.bmp\",\"ta:ka:ka\",\"Left\",\"37\",\"3\",\"8\",\"5\",\"P\",\"J\",\"40\"
\"\",\"\",\"approach-retreat\",\"44\",\"350615\",\"0.0-44.0\",\"\",\"\",\"1-3\",\"4133\",\"39\",\"1\",\"Training\",\"Stims/Figures/84-C-20-2.bmp\",\"tapaka\",\"Right\",\"39\",\"3\",\"9\",\"5\",\"P\",\"J\",\"41\"
\"\",\"\",\"approach-retreat\",\"45\",\"356260\",\"0.0-45.0\",\"\",\"\",\"1-3\",\"4107\",\"37\",\"1\",\"Training\",\"Stims/Figures/139-C-20-2.bmp\",\"ta:pa:ta\",\"Left\",\"37\",\"3\",\"10\",\"5\",\"P\",\"J\",\"42\"
\"\",\"\",\"approach-retreat\",\"46\",\"361996\",\"0.0-46.0\",\"\",\"\",\"1-3\",\"4173\",\"40\",\"1\",\"Training\",\"Stims/Figures/86-J-0-1.bmp\",\"ma:lala\",\"Up\",\"40\",\"3\",\"11\",\"5\",\"S\",\"J\",\"43\"
\"\",\"\",\"approach-retreat\",\"47\",\"367614\",\"0.0-47.0\",\"\",\"\",\"1-3\",\"4051\",\"37\",\"1\",\"Training\",\"Stims/Figures/7-J-10-4.bmp\",\"na:mala\",\"Right\",\"37\",\"3\",\"12\",\"5\",\"S\",\"J\",\"44\"
\"\",\"\",\"approach-retreat\",\"48\",\"373715\",\"0.0-48.0\",\"\",\"\",\"1-3\",\"4547\",\"37\",\"1\",\"Training\",\"Stims/Figures/7-C-20-4.bmp\",\"tapata\",\"Left\",\"37\",\"3\",\"13\",\"5\",\"P\",\"J\",\"45\"
\"\",\"\",\"approach-retreat\",\"49\",\"379437\",\"0.0-49.0\",\"\",\"\",\"1-3\",\"4160\",\"38\",\"1\",\"Training\",\"Stims/Figures/71-J-0-1.bmp\",\"nalala\",\"Down\",\"38\",\"3\",\"14\",\"5\",\"S\",\"J\",\"46\"
\"\",\"\",\"approach-retreat\",\"50\",\"385188\",\"0.0-50.0\",\"\",\"\",\"1-3\",\"4219\",\"39\",\"1\",\"Training\",\"Stims/Figures/44-J-10-3.bmp\",\"nama:la\",\"Left\",\"39\",\"3\",\"15\",\"5\",\"S\",\"J\",\"47\"
\"\",\"\",\"approach-retreat\",\"51\",\"390880\",\"0.0-51.0\",\"\",\"\",\"1-3\",\"4133\",\"38\",\"1\",\"Training\",\"Stims/Figures/84-J-0-2.bmp\",\"na:lana\",\"Down\",\"38\",\"3\",\"16\",\"5\",\"S\",\"J\",\"48\"
\"\",\"\",\"approach-retreat\",\"52\",\"396542\",\"0.0-52.0\",\"\",\"\",\"1-3\",\"4088\",\"37\",\"1\",\"Training\",\"Stims/Figures/71-C-30-1.bmp\",\"ta:pata\",\"Left\",\"37\",\"4\",\"1\",\"5\",\"P\",\"J\",\"49\"
\"\",\"\",\"approach-retreat\",\"53\",\"402190\",\"0.0-53.0\",\"\",\"\",\"1-3\",\"4104\",\"37\",\"1\",\"Training\",\"Stims/Figures/111-J-10-3.bmp\",\"nalana\",\"Right\",\"37\",\"4\",\"2\",\"5\",\"S\",\"J\",\"50\"
\"\",\"\",\"approach-retreat\",\"54\",\"407830\",\"0.0-54.0\",\"\",\"\",\"1-3\",\"4069\",\"39\",\"1\",\"Training\",\"Stims/Figures/84-C-20-2.bmp\",\"tapaka\",\"Right\",\"39\",\"4\",\"3\",\"5\",\"P\",\"J\",\"51\"
\"\",\"\",\"approach-retreat\",\"55\",\"413491\",\"0.0-55.0\",\"\",\"\",\"1-3\",\"4119\",\"38\",\"1\",\"Training\",\"Stims/Figures/7-C-20-4.bmp\",\"tapata\",\"Up\",\"38\",\"4\",\"4\",\"5\",\"P\",\"J\",\"52\"
\"\",\"\",\"approach-retreat\",\"56\",\"419121\",\"0.0-56.0\",\"\",\"\",\"1-3\",\"4087\",\"38\",\"1\",\"Training\",\"Stims/Figures/44-J-10-3.bmp\",\"nama:la\",\"Down\",\"38\",\"4\",\"5\",\"5\",\"S\",\"J\",\"53\"
\"\",\"\",\"approach-retreat\",\"57\",\"424709\",\"0.0-57.0\",\"\",\"\",\"1-3\",\"4014\",\"37\",\"1\",\"Training\",\"Stims/Figures/19-C-20-4.bmp\",\"ta:ka:ka\",\"Left\",\"37\",\"4\",\"6\",\"5\",\"P\",\"J\",\"54\"
\"\",\"\",\"approach-retreat\",\"58\",\"430323\",\"0.0-58.0\",\"\",\"\",\"1-3\",\"4056\",\"40\",\"1\",\"Training\",\"Stims/Figures/84-J-0-2.bmp\",\"na:lana\",\"Up\",\"40\",\"4\",\"7\",\"5\",\"S\",\"J\",\"55\"
\"\",\"\",\"approach-retreat\",\"59\",\"435965\",\"0.0-59.0\",\"\",\"\",\"1-3\",\"4121\",\"38\",\"1\",\"Training\",\"Stims/Figures/7-J-10-4.bmp\",\"na:mala\",\"Down\",\"38\",\"4\",\"8\",\"5\",\"S\",\"J\",\"56\"
\"\",\"\",\"approach-retreat\",\"60\",\"441586\",\"0.0-60.0\",\"\",\"\",\"1-3\",\"4067\",\"39\",\"1\",\"Training\",\"Stims/Figures/71-J-0-1.bmp\",\"nalala\",\"Left\",\"39\",\"4\",\"9\",\"5\",\"S\",\"J\",\"57\"
\"\",\"\",\"approach-retreat\",\"61\",\"447262\",\"0.0-61.0\",\"\",\"\",\"1-3\",\"4119\",\"38\",\"0\",\"Training\",\"Stims/Figures/86-J-0-1.bmp\",\"ma:lala\",\"Up\",\"40\",\"4\",\"10\",\"5\",\"S\",\"J\",\"58\"
\"\",\"\",\"approach-retreat\",\"62\",\"452912\",\"0.0-62.0\",\"\",\"\",\"1-3\",\"4098\",\"38\",\"1\",\"Training\",\"Stims/Figures/111-C-30-3.bmp\",\"pa:ka:ta\",\"Up\",\"38\",\"4\",\"11\",\"5\",\"P\",\"J\",\"59\"
\"\",\"\",\"approach-retreat\",\"63\",\"458608\",\"0.0-63.0\",\"\",\"\",\"1-3\",\"4166\",\"39\",\"1\",\"Training\",\"Stims/Figures/44-C-30-3.bmp\",\"pa:ka:ka\",\"Right\",\"39\",\"4\",\"12\",\"5\",\"P\",\"J\",\"60\"
\"\",\"\",\"approach-retreat\",\"64\",\"464311\",\"0.0-64.0\",\"\",\"\",\"1-3\",\"4143\",\"37\",\"1\",\"Training\",\"Stims/Figures/139-J-0-2.bmp\",\"namala\",\"Right\",\"37\",\"4\",\"13\",\"5\",\"S\",\"J\",\"61\"
\"\",\"\",\"approach-retreat\",\"65\",\"469890\",\"0.0-65.0\",\"\",\"\",\"1-3\",\"4049\",\"39\",\"1\",\"Training\",\"Stims/Figures/19-J-10-4.bmp\",\"malana\",\"Left\",\"39\",\"4\",\"14\",\"5\",\"S\",\"J\",\"62\"
\"\",\"\",\"approach-retreat\",\"66\",\"475607\",\"0.0-66.0\",\"\",\"\",\"1-3\",\"4161\",\"40\",\"1\",\"Training\",\"Stims/Figures/139-C-20-2.bmp\",\"ta:pa:ta\",\"Down\",\"40\",\"4\",\"15\",\"5\",\"P\",\"J\",\"63\"
\"\",\"\",\"approach-retreat\",\"67\",\"481386\",\"0.0-67.0\",\"\",\"\",\"1-3\",\"4252\",\"40\",\"1\",\"Training\",\"Stims/Figures/86-C-30-1.bmp\",\"pakata\",\"Down\",\"40\",\"4\",\"16\",\"5\",\"P\",\"J\",\"64\"
\"\",\"\",\"approach-retreat\",\"68\",\"487150\",\"0.0-68.0\",\"\",\"\",\"1-3\",\"4220\",\"40\",\"1\",\"Training\",\"Stims/Figures/84-J-0-2.bmp\",\"na:lana\",\"Up\",\"40\",\"5\",\"1\",\"5\",\"S\",\"J\",\"65\"
\"\",\"\",\"approach-retreat\",\"69\",\"492757\",\"0.0-69.0\",\"\",\"\",\"1-3\",\"4049\",\"37\",\"1\",\"Training\",\"Stims/Figures/86-C-30-1.bmp\",\"pakata\",\"Left\",\"37\",\"5\",\"2\",\"5\",\"P\",\"J\",\"66\"
\"\",\"\",\"approach-retreat\",\"70\",\"498405\",\"0.0-70.0\",\"\",\"\",\"1-3\",\"4119\",\"39\",\"1\",\"Training\",\"Stims/Figures/19-C-20-4.bmp\",\"ta:ka:ka\",\"Right\",\"39\",\"5\",\"3\",\"5\",\"P\",\"J\",\"67\"
\"\",\"\",\"approach-retreat\",\"71\",\"504180\",\"0.0-71.0\",\"\",\"\",\"1-3\",\"4241\",\"40\",\"0\",\"Training\",\"Stims/Figures/44-J-10-3.bmp\",\"nama:la\",\"Down\",\"38\",\"5\",\"4\",\"5\",\"S\",\"J\",\"68\"
\"\",\"\",\"approach-retreat\",\"72\",\"509851\",\"0.0-72.0\",\"\",\"\",\"1-3\",\"4103\",\"37\",\"1\",\"Training\",\"Stims/Figures/71-J-0-1.bmp\",\"nalala\",\"Right\",\"37\",\"5\",\"5\",\"5\",\"S\",\"J\",\"69\"
\"\",\"\",\"approach-retreat\",\"73\",\"515622\",\"0.0-73.0\",\"\",\"\",\"1-3\",\"4229\",\"38\",\"1\",\"Training\",\"Stims/Figures/19-J-10-4.bmp\",\"malana\",\"Down\",\"38\",\"5\",\"6\",\"5\",\"S\",\"J\",\"70\"
\"\",\"\",\"approach-retreat\",\"74\",\"521307\",\"0.0-74.0\",\"\",\"\",\"1-3\",\"4133\",\"38\",\"1\",\"Training\",\"Stims/Figures/71-C-30-1.bmp\",\"ta:pata\",\"Up\",\"38\",\"5\",\"7\",\"5\",\"P\",\"J\",\"71\"
\"\",\"\",\"approach-retreat\",\"75\",\"526939\",\"0.0-75.0\",\"\",\"\",\"1-3\",\"4073\",\"39\",\"1\",\"Training\",\"Stims/Figures/111-C-30-3.bmp\",\"pa:ka:ta\",\"Right\",\"39\",\"5\",\"8\",\"5\",\"P\",\"J\",\"72\"
\"\",\"\",\"approach-retreat\",\"76\",\"532809\",\"0.0-76.0\",\"\",\"\",\"1-3\",\"4317\",\"37\",\"1\",\"Training\",\"Stims/Figures/84-C-20-2.bmp\",\"tapaka\",\"Left\",\"37\",\"5\",\"9\",\"5\",\"P\",\"J\",\"73\"
\"\",\"\",\"approach-retreat\",\"77\",\"538460\",\"0.0-77.0\",\"\",\"\",\"1-3\",\"4105\",\"40\",\"1\",\"Training\",\"Stims/Figures/7-C-20-4.bmp\",\"tapata\",\"Down\",\"40\",\"5\",\"10\",\"5\",\"P\",\"J\",\"74\"
\"\",\"\",\"approach-retreat\",\"78\",\"544109\",\"0.0-78.0\",\"\",\"\",\"1-3\",\"4114\",\"37\",\"1\",\"Training\",\"Stims/Figures/139-J-0-2.bmp\",\"namala\",\"Right\",\"37\",\"5\",\"11\",\"5\",\"S\",\"J\",\"75\"
\"\",\"\",\"approach-retreat\",\"79\",\"549724\",\"0.0-79.0\",\"\",\"\",\"1-3\",\"4062\",\"37\",\"1\",\"Training\",\"Stims/Figures/139-C-20-2.bmp\",\"ta:pa:ta\",\"Left\",\"37\",\"5\",\"12\",\"5\",\"P\",\"J\",\"76\"
\"\",\"\",\"approach-retreat\",\"80\",\"555423\",\"0.0-80.0\",\"\",\"\",\"1-3\",\"4148\",\"39\",\"1\",\"Training\",\"Stims/Figures/7-J-10-4.bmp\",\"na:mala\",\"Left\",\"39\",\"5\",\"13\",\"5\",\"S\",\"J\",\"77\"
\"\",\"\",\"approach-retreat\",\"81\",\"561108\",\"0.0-81.0\",\"\",\"\",\"1-3\",\"4129\",\"40\",\"1\",\"Training\",\"Stims/Figures/111-J-10-3.bmp\",\"nalana\",\"Up\",\"40\",\"5\",\"14\",\"5\",\"S\",\"J\",\"78\"
\"\",\"\",\"approach-retreat\",\"82\",\"566768\",\"0.0-82.0\",\"\",\"\",\"1-3\",\"4099\",\"38\",\"1\",\"Training\",\"Stims/Figures/86-J-0-1.bmp\",\"ma:lala\",\"Down\",\"38\",\"5\",\"15\",\"5\",\"S\",\"J\",\"79\"
\"\",\"\",\"approach-retreat\",\"83\",\"572396\",\"0.0-83.0\",\"\",\"\",\"1-3\",\"4057\",\"38\",\"1\",\"Training\",\"Stims/Figures/44-C-30-3.bmp\",\"pa:ka:ka\",\"Up\",\"38\",\"5\",\"16\",\"5\",\"P\",\"J\",\"80\"
\"\",\"\",\"approach-retreat\",\"84\",\"577951\",\"0.0-84.0\",\"\",\"\",\"1-3\",\"3989\",\"37\",\"1\",\"Training\",\"Stims/Figures/44-C-30-3.bmp\",\"pa:ka:ka\",\"Left\",\"37\",\"6\",\"1\",\"5\",\"P\",\"J\",\"81\"
\"\",\"\",\"approach-retreat\",\"85\",\"583775\",\"0.0-85.0\",\"\",\"\",\"1-3\",\"4278\",\"38\",\"1\",\"Training\",\"Stims/Figures/19-C-20-4.bmp\",\"ta:ka:ka\",\"Up\",\"38\",\"6\",\"2\",\"5\",\"P\",\"J\",\"82\"
\"\",\"\",\"approach-retreat\",\"86\",\"589362\",\"0.0-86.0\",\"\",\"\",\"1-3\",\"4037\",\"39\",\"1\",\"Training\",\"Stims/Figures/7-J-10-4.bmp\",\"na:mala\",\"Left\",\"39\",\"6\",\"3\",\"5\",\"S\",\"J\",\"83\"
\"\",\"\",\"approach-retreat\",\"87\",\"594940\",\"0.0-87.0\",\"\",\"\",\"1-3\",\"4043\",\"38\",\"1\",\"Training\",\"Stims/Figures/44-J-10-3.bmp\",\"nama:la\",\"Down\",\"38\",\"6\",\"4\",\"5\",\"S\",\"J\",\"84\"
\"\",\"\",\"approach-retreat\",\"88\",\"600643\",\"0.0-88.0\",\"\",\"\",\"1-3\",\"4148\",\"40\",\"1\",\"Training\",\"Stims/Figures/111-J-10-3.bmp\",\"nalana\",\"Up\",\"40\",\"6\",\"5\",\"5\",\"S\",\"J\",\"85\"
\"\",\"\",\"approach-retreat\",\"89\",\"606351\",\"0.0-89.0\",\"\",\"\",\"1-3\",\"4153\",\"37\",\"1\",\"Training\",\"Stims/Figures/84-C-20-2.bmp\",\"tapaka\",\"Left\",\"37\",\"6\",\"6\",\"5\",\"P\",\"J\",\"86\"
\"\",\"\",\"approach-retreat\",\"90\",\"612221\",\"0.0-90.0\",\"\",\"\",\"1-3\",\"4313\",\"38\",\"1\",\"Training\",\"Stims/Figures/111-C-30-3.bmp\",\"pa:ka:ta\",\"Up\",\"38\",\"6\",\"7\",\"5\",\"P\",\"J\",\"87\"
\"\",\"\",\"approach-retreat\",\"91\",\"617942\",\"0.0-91.0\",\"\",\"\",\"1-3\",\"4147\",\"37\",\"1\",\"Training\",\"Stims/Figures/19-J-10-4.bmp\",\"malana\",\"Right\",\"37\",\"6\",\"8\",\"5\",\"S\",\"J\",\"88\"
\"\",\"\",\"approach-retreat\",\"92\",\"623619\",\"0.0-92.0\",\"\",\"\",\"1-3\",\"4137\",\"40\",\"1\",\"Training\",\"Stims/Figures/86-J-0-1.bmp\",\"ma:lala\",\"Up\",\"40\",\"6\",\"9\",\"5\",\"S\",\"J\",\"89\"
\"\",\"\",\"approach-retreat\",\"93\",\"629405\",\"0.0-93.0\",\"\",\"\",\"1-3\",\"4245\",\"38\",\"1\",\"Training\",\"Stims/Figures/84-J-0-2.bmp\",\"na:lana\",\"Down\",\"38\",\"6\",\"10\",\"5\",\"S\",\"J\",\"90\"
\"\",\"\",\"approach-retreat\",\"94\",\"635000\",\"0.0-94.0\",\"\",\"\",\"1-3\",\"4044\",\"39\",\"1\",\"Training\",\"Stims/Figures/139-C-20-2.bmp\",\"ta:pa:ta\",\"Right\",\"39\",\"6\",\"11\",\"5\",\"P\",\"J\",\"91\"
\"\",\"\",\"approach-retreat\",\"95\",\"640679\",\"0.0-95.0\",\"\",\"\",\"1-3\",\"4113\",\"40\",\"1\",\"Training\",\"Stims/Figures/71-C-30-1.bmp\",\"ta:pata\",\"Down\",\"40\",\"6\",\"12\",\"5\",\"P\",\"J\",\"92\"
\"\",\"\",\"approach-retreat\",\"96\",\"646263\",\"0.0-96.0\",\"\",\"\",\"1-3\",\"4039\",\"37\",\"1\",\"Training\",\"Stims/Figures/71-J-0-1.bmp\",\"nalala\",\"Right\",\"37\",\"6\",\"13\",\"5\",\"S\",\"J\",\"93\"
\"\",\"\",\"approach-retreat\",\"97\",\"651876\",\"0.0-97.0\",\"\",\"\",\"1-3\",\"4060\",\"39\",\"1\",\"Training\",\"Stims/Figures/86-C-30-1.bmp\",\"pakata\",\"Right\",\"39\",\"6\",\"14\",\"5\",\"P\",\"J\",\"94\"
\"\",\"\",\"approach-retreat\",\"98\",\"657464\",\"0.0-98.0\",\"\",\"\",\"1-3\",\"4043\",\"37\",\"1\",\"Training\",\"Stims/Figures/7-C-20-4.bmp\",\"tapata\",\"Left\",\"37\",\"6\",\"15\",\"5\",\"P\",\"J\",\"95\"
\"\",\"\",\"approach-retreat\",\"99\",\"663069\",\"0.0-99.0\",\"\",\"\",\"1-3\",\"4070\",\"38\",\"1\",\"Training\",\"Stims/Figures/139-J-0-2.bmp\",\"namala\",\"Down\",\"38\",\"6\",\"16\",\"5\",\"S\",\"J\",\"96\"
\"\",\"\",\"approach-retreat\",\"100\",\"668693\",\"0.0-100.0\",\"\",\"\",\"1-3\",\"4068\",\"37\",\"1\",\"Training\",\"Stims/Figures/84-J-0-2.bmp\",\"na:lana\",\"Right\",\"37\",\"7\",\"1\",\"5\",\"S\",\"J\",\"97\"
\"\",\"\",\"approach-retreat\",\"101\",\"674483\",\"0.0-101.0\",\"\",\"\",\"1-3\",\"4230\",\"38\",\"1\",\"Training\",\"Stims/Figures/44-J-10-3.bmp\",\"nama:la\",\"Down\",\"38\",\"7\",\"2\",\"5\",\"S\",\"J\",\"98\"
\"\",\"\",\"approach-retreat\",\"102\",\"680138\",\"0.0-102.0\",\"\",\"\",\"1-3\",\"4102\",\"37\",\"1\",\"Training\",\"Stims/Figures/111-C-30-3.bmp\",\"pa:ka:ta\",\"Left\",\"37\",\"7\",\"3\",\"5\",\"P\",\"J\",\"99\"
\"\",\"\",\"approach-retreat\",\"103\",\"685888\",\"0.0-103.0\",\"\",\"\",\"1-3\",\"4203\",\"40\",\"1\",\"Training\",\"Stims/Figures/111-J-10-3.bmp\",\"nalana\",\"Up\",\"40\",\"7\",\"4\",\"5\",\"S\",\"J\",\"100\"
\"\",\"\",\"approach-retreat\",\"104\",\"691461\",\"0.0-104.0\",\"\",\"\",\"1-3\",\"4036\",\"37\",\"1\",\"Training\",\"Stims/Figures/71-J-0-1.bmp\",\"nalala\",\"Right\",\"37\",\"7\",\"5\",\"5\",\"S\",\"J\",\"101\"
\"\",\"\",\"approach-retreat\",\"105\",\"697289\",\"0.0-105.0\",\"\",\"\",\"1-3\",\"4293\",\"38\",\"1\",\"Training\",\"Stims/Figures/139-C-20-2.bmp\",\"ta:pa:ta\",\"Up\",\"38\",\"7\",\"6\",\"5\",\"P\",\"J\",\"102\"
\"\",\"\",\"approach-retreat\",\"106\",\"702959\",\"0.0-106.0\",\"\",\"\",\"1-3\",\"4108\",\"40\",\"1\",\"Training\",\"Stims/Figures/19-C-20-4.bmp\",\"ta:ka:ka\",\"Down\",\"40\",\"7\",\"7\",\"5\",\"P\",\"J\",\"103\"
\"\",\"\",\"approach-retreat\",\"107\",\"708631\",\"0.0-107.0\",\"\",\"\",\"1-3\",\"4138\",\"40\",\"1\",\"Training\",\"Stims/Figures/86-C-30-1.bmp\",\"pakata\",\"Down\",\"40\",\"7\",\"8\",\"5\",\"P\",\"J\",\"104\"
\"\",\"\",\"approach-retreat\",\"108\",\"714463\",\"0.0-108.0\",\"\",\"\",\"1-3\",\"4296\",\"38\",\"1\",\"Training\",\"Stims/Figures/71-C-30-1.bmp\",\"ta:pata\",\"Up\",\"38\",\"7\",\"9\",\"5\",\"P\",\"J\",\"105\"
\"\",\"\",\"approach-retreat\",\"109\",\"720032\",\"0.0-109.0\",\"\",\"\",\"1-3\",\"4025\",\"37\",\"1\",\"Training\",\"Stims/Figures/7-C-20-4.bmp\",\"tapata\",\"Left\",\"37\",\"7\",\"10\",\"5\",\"P\",\"J\",\"106\"
\"\",\"\",\"approach-retreat\",\"110\",\"725600\",\"0.0-110.0\",\"\",\"\",\"1-3\",\"4013\",\"37\",\"1\",\"Training\",\"Stims/Figures/44-C-30-3.bmp\",\"pa:ka:ka\",\"Left\",\"37\",\"7\",\"11\",\"5\",\"P\",\"J\",\"107\"
\"\",\"\",\"approach-retreat\",\"111\",\"731192\",\"0.0-111.0\",\"\",\"\",\"1-3\",\"4055\",\"37\",\"1\",\"Training\",\"Stims/Figures/19-J-10-4.bmp\",\"malana\",\"Right\",\"37\",\"7\",\"12\",\"5\",\"S\",\"J\",\"108\"
\"\",\"\",\"approach-retreat\",\"112\",\"736852\",\"0.0-112.0\",\"\",\"\",\"1-3\",\"4114\",\"39\",\"1\",\"Training\",\"Stims/Figures/7-J-10-4.bmp\",\"na:mala\",\"Left\",\"39\",\"7\",\"13\",\"5\",\"S\",\"J\",\"109\"
\"\",\"\",\"approach-retreat\",\"113\",\"742412\",\"0.0-113.0\",\"\",\"\",\"1-3\",\"4026\",\"38\",\"1\",\"Training\",\"Stims/Figures/86-J-0-1.bmp\",\"ma:lala\",\"Down\",\"38\",\"7\",\"14\",\"5\",\"S\",\"J\",\"110\"
\"\",\"\",\"approach-retreat\",\"114\",\"748132\",\"0.0-114.0\",\"\",\"\",\"1-3\",\"4201\",\"37\",\"1\",\"Training\",\"Stims/Figures/139-J-0-2.bmp\",\"namala\",\"Right\",\"37\",\"7\",\"15\",\"5\",\"S\",\"J\",\"111\"
\"\",\"\",\"approach-retreat\",\"115\",\"753866\",\"0.0-115.0\",\"\",\"\",\"1-3\",\"4166\",\"38\",\"1\",\"Training\",\"Stims/Figures/84-C-20-2.bmp\",\"tapaka\",\"Up\",\"38\",\"7\",\"16\",\"5\",\"P\",\"J\",\"112\"
\"\",\"\",\"approach-retreat\",\"116\",\"759370\",\"0.0-116.0\",\"\",\"\",\"1-3\",\"3977\",\"37\",\"1\",\"Training\",\"Stims/Figures/111-J-10-3.bmp\",\"nalana\",\"Right\",\"37\",\"8\",\"1\",\"5\",\"S\",\"J\",\"113\"
\"\",\"\",\"approach-retreat\",\"117\",\"764995\",\"0.0-117.0\",\"\",\"\",\"1-3\",\"4081\",\"37\",\"1\",\"Training\",\"Stims/Figures/19-C-20-4.bmp\",\"ta:ka:ka\",\"Left\",\"37\",\"8\",\"2\",\"5\",\"P\",\"J\",\"114\"
\"\",\"\",\"approach-retreat\",\"118\",\"770633\",\"0.0-118.0\",\"\",\"\",\"1-3\",\"4084\",\"37\",\"1\",\"Training\",\"Stims/Figures/111-C-30-3.bmp\",\"pa:ka:ta\",\"Left\",\"37\",\"8\",\"3\",\"5\",\"P\",\"J\",\"115\"
\"\",\"\",\"approach-retreat\",\"119\",\"776312\",\"0.0-119.0\",\"\",\"\",\"1-3\",\"4123\",\"40\",\"1\",\"Training\",\"Stims/Figures/7-J-10-4.bmp\",\"na:mala\",\"Up\",\"40\",\"8\",\"4\",\"5\",\"S\",\"J\",\"116\"
\"\",\"\",\"approach-retreat\",\"120\",\"781984\",\"0.0-120.0\",\"\",\"\",\"1-3\",\"4094\",\"40\",\"1\",\"Training\",\"Stims/Figures/86-C-30-1.bmp\",\"pakata\",\"Down\",\"40\",\"8\",\"5\",\"5\",\"P\",\"J\",\"117\"
\"\",\"\",\"approach-retreat\",\"121\",\"787611\",\"0.0-121.0\",\"\",\"\",\"1-3\",\"4092\",\"38\",\"1\",\"Training\",\"Stims/Figures/71-C-30-1.bmp\",\"ta:pata\",\"Up\",\"38\",\"8\",\"6\",\"5\",\"P\",\"J\",\"118\"
\"\",\"\",\"approach-retreat\",\"122\",\"793181\",\"0.0-122.0\",\"\",\"\",\"1-3\",\"4040\",\"38\",\"1\",\"Training\",\"Stims/Figures/84-J-0-2.bmp\",\"na:lana\",\"Down\",\"38\",\"8\",\"7\",\"5\",\"S\",\"J\",\"119\"
\"\",\"\",\"approach-retreat\",\"123\",\"798805\",\"0.0-123.0\",\"\",\"\",\"1-3\",\"4078\",\"38\",\"1\",\"Training\",\"Stims/Figures/7-C-20-4.bmp\",\"tapata\",\"Up\",\"38\",\"8\",\"8\",\"5\",\"P\",\"J\",\"120\"
\"\",\"\",\"approach-retreat\",\"124\",\"804283\",\"0.0-124.0\",\"\",\"\",\"1-3\",\"3933\",\"38\",\"1\",\"Training\",\"Stims/Figures/44-C-30-3.bmp\",\"pa:ka:ka\",\"Up\",\"38\",\"8\",\"9\",\"5\",\"P\",\"J\",\"121\"
\"\",\"\",\"approach-retreat\",\"125\",\"809993\",\"0.0-125.0\",\"\",\"\",\"1-3\",\"4143\",\"37\",\"1\",\"Training\",\"Stims/Figures/71-J-0-1.bmp\",\"nalala\",\"Right\",\"37\",\"8\",\"10\",\"5\",\"S\",\"J\",\"122\"
\"\",\"\",\"approach-retreat\",\"126\",\"815565\",\"0.0-126.0\",\"\",\"\",\"1-3\",\"4020\",\"40\",\"1\",\"Training\",\"Stims/Figures/84-C-20-2.bmp\",\"tapaka\",\"Down\",\"40\",\"8\",\"11\",\"5\",\"P\",\"J\",\"123\"
\"\",\"\",\"approach-retreat\",\"127\",\"821119\",\"0.0-127.0\",\"\",\"\",\"1-3\",\"4000\",\"37\",\"1\",\"Training\",\"Stims/Figures/44-J-10-3.bmp\",\"nama:la\",\"Right\",\"37\",\"8\",\"12\",\"5\",\"S\",\"J\",\"124\"
\"\",\"\",\"approach-retreat\",\"128\",\"826845\",\"0.0-128.0\",\"\",\"\",\"1-3\",\"4165\",\"39\",\"1\",\"Training\",\"Stims/Figures/86-J-0-1.bmp\",\"ma:lala\",\"Left\",\"39\",\"8\",\"13\",\"5\",\"S\",\"J\",\"125\"
\"\",\"\",\"approach-retreat\",\"129\",\"832540\",\"0.0-129.0\",\"\",\"\",\"1-3\",\"4132\",\"38\",\"1\",\"Training\",\"Stims/Figures/139-J-0-2.bmp\",\"namala\",\"Down\",\"38\",\"8\",\"14\",\"5\",\"S\",\"J\",\"126\"
\"\",\"\",\"approach-retreat\",\"130\",\"838041\",\"0.0-130.0\",\"\",\"\",\"1-3\",\"3962\",\"37\",\"1\",\"Training\",\"Stims/Figures/139-C-20-2.bmp\",\"ta:pa:ta\",\"Left\",\"37\",\"8\",\"15\",\"5\",\"P\",\"J\",\"127\"
\"\",\"\",\"approach-retreat\",\"131\",\"843577\",\"0.0-131.0\",\"\",\"\",\"1-3\",\"3984\",\"37\",\"1\",\"Training\",\"Stims/Figures/19-J-10-4.bmp\",\"malana\",\"Right\",\"37\",\"8\",\"16\",\"5\",\"S\",\"J\",\"128\"
\"\",\"\",\"approach-retreat\",\"132\",\"849146\",\"0.0-132.0\",\"\",\"\",\"1-3\",\"4018\",\"40\",\"1\",\"Training\",\"Stims/Figures/84-J-0-2.bmp\",\"na:lana\",\"Up\",\"40\",\"9\",\"1\",\"5\",\"S\",\"J\",\"129\"
\"\",\"\",\"approach-retreat\",\"133\",\"854661\",\"0.0-133.0\",\"\",\"\",\"1-3\",\"3953\",\"37\",\"1\",\"Training\",\"Stims/Figures/111-C-30-3.bmp\",\"pa:ka:ta\",\"Left\",\"37\",\"9\",\"2\",\"5\",\"P\",\"J\",\"130\"
\"\",\"\",\"approach-retreat\",\"134\",\"860297\",\"0.0-134.0\",\"\",\"\",\"1-3\",\"4091\",\"40\",\"1\",\"Training\",\"Stims/Figures/86-C-30-1.bmp\",\"pakata\",\"Down\",\"40\",\"9\",\"3\",\"5\",\"P\",\"J\",\"131\"
\"\",\"\",\"approach-retreat\",\"135\",\"865932\",\"0.0-135.0\",\"\",\"\",\"1-3\",\"4112\",\"38\",\"1\",\"Training\",\"Stims/Figures/111-J-10-3.bmp\",\"nalana\",\"Down\",\"38\",\"9\",\"4\",\"5\",\"S\",\"J\",\"132\"
\"\",\"\",\"approach-retreat\",\"136\",\"872093\",\"0.0-136.0\",\"\",\"\",\"1-3\",\"4623\",\"40\",\"1\",\"Training\",\"Stims/Figures/44-J-10-3.bmp\",\"nama:la\",\"Up\",\"40\",\"9\",\"5\",\"5\",\"S\",\"J\",\"133\"
\"\",\"\",\"approach-retreat\",\"137\",\"877636\",\"0.0-137.0\",\"\",\"\",\"1-3\",\"4013\",\"37\",\"1\",\"Training\",\"Stims/Figures/71-C-30-1.bmp\",\"ta:pata\",\"Left\",\"37\",\"9\",\"6\",\"5\",\"P\",\"J\",\"134\"
\"\",\"\",\"approach-retreat\",\"138\",\"883222\",\"0.0-138.0\",\"\",\"\",\"1-3\",\"4046\",\"40\",\"1\",\"Training\",\"Stims/Figures/7-C-20-4.bmp\",\"tapata\",\"Down\",\"40\",\"9\",\"7\",\"5\",\"P\",\"J\",\"135\"
\"\",\"\",\"approach-retreat\",\"139\",\"888793\",\"0.0-139.0\",\"\",\"\",\"1-3\",\"4011\",\"37\",\"1\",\"Training\",\"Stims/Figures/86-J-0-1.bmp\",\"ma:lala\",\"Right\",\"37\",\"9\",\"8\",\"5\",\"S\",\"J\",\"136\"
\"\",\"\",\"approach-retreat\",\"140\",\"894368\",\"0.0-140.0\",\"\",\"\",\"1-3\",\"4003\",\"38\",\"1\",\"Training\",\"Stims/Figures/139-C-20-2.bmp\",\"ta:pa:ta\",\"Up\",\"38\",\"9\",\"9\",\"5\",\"P\",\"J\",\"137\"
\"\",\"\",\"approach-retreat\",\"141\",\"900040\",\"0.0-141.0\",\"\",\"\",\"1-3\",\"4103\",\"39\",\"1\",\"Training\",\"Stims/Figures/19-C-20-4.bmp\",\"ta:ka:ka\",\"Right\",\"39\",\"9\",\"10\",\"5\",\"P\",\"J\",\"138\"
\"\",\"\",\"approach-retreat\",\"142\",\"905656\",\"0.0-142.0\",\"\",\"\",\"1-3\",\"4076\",\"39\",\"1\",\"Training\",\"Stims/Figures/71-J-0-1.bmp\",\"nalala\",\"Left\",\"39\",\"9\",\"11\",\"5\",\"S\",\"J\",\"139\"
\"\",\"\",\"approach-retreat\",\"143\",\"911198\",\"0.0-143.0\",\"\",\"\",\"1-3\",\"4013\",\"37\",\"1\",\"Training\",\"Stims/Figures/84-C-20-2.bmp\",\"tapaka\",\"Left\",\"37\",\"9\",\"12\",\"5\",\"P\",\"J\",\"140\"
\"\",\"\",\"approach-retreat\",\"144\",\"916763\",\"0.0-144.0\",\"\",\"\",\"1-3\",\"3998\",\"37\",\"1\",\"Training\",\"Stims/Figures/139-J-0-2.bmp\",\"namala\",\"Right\",\"37\",\"9\",\"13\",\"5\",\"S\",\"J\",\"141\"
\"\",\"\",\"approach-retreat\",\"145\",\"922380\",\"0.0-145.0\",\"\",\"\",\"1-3\",\"4082\",\"38\",\"1\",\"Training\",\"Stims/Figures/7-J-10-4.bmp\",\"na:mala\",\"Down\",\"38\",\"9\",\"14\",\"5\",\"S\",\"J\",\"142\"
\"\",\"\",\"approach-retreat\",\"146\",\"927978\",\"0.0-146.0\",\"\",\"\",\"1-3\",\"4032\",\"40\",\"1\",\"Training\",\"Stims/Figures/19-J-10-4.bmp\",\"malana\",\"Up\",\"40\",\"9\",\"15\",\"5\",\"S\",\"J\",\"143\"
\"\",\"\",\"approach-retreat\",\"147\",\"933904\",\"0.0-147.0\",\"\",\"\",\"1-3\",\"4360\",\"39\",\"1\",\"Training\",\"Stims/Figures/44-C-30-3.bmp\",\"pa:ka:ka\",\"Right\",\"39\",\"9\",\"16\",\"5\",\"P\",\"J\",\"144\"
\"23896\",\"\",\"instructions\",\"148\",\"957801\",\"0.0-148.0\",\"[{\"\"page_index\"\":0,\"\"viewing_time\"\":23894}]\",\"\",\"\",\"\",\"\",\"\",\"\",\"\",\"\",\"\",\"\",\"\",\"\",\"\",\"\",\"\",\"\"
\"\",\"\",\"approach-retreat\",\"149\",\"965152\",\"0.0-149.0\",\"\",\"\",\"1-3\",\"5806\",\"38\",\"1\",\"Testing\",\"Stims/Figures/27-C-30-1.bmp\",\"taka:ta\",\"Up\",\"38\",\"1\",\"1\",\"5\",\"P\",\"J\",\"1\"
\"\",\"\",\"approach-retreat\",\"150\",\"970840\",\"0.0-150.0\",\"\",\"\",\"1-3\",\"4153\",\"40\",\"1\",\"Testing\",\"Stims/Figures/71-J-0-1.bmp\",\"nalala\",\"Up\",\"40\",\"1\",\"2\",\"5\",\"S\",\"J\",\"2\"
\"\",\"\",\"approach-retreat\",\"151\",\"976573\",\"0.0-151.0\",\"\",\"\",\"1-3\",\"4171\",\"40\",\"1\",\"Testing\",\"Stims/Figures/7-J-10-4.bmp\",\"na:mala\",\"Up\",\"40\",\"1\",\"3\",\"5\",\"S\",\"J\",\"3\"
\"\",\"\",\"approach-retreat\",\"152\",\"982192\",\"0.0-152.0\",\"\",\"\",\"1-3\",\"4069\",\"37\",\"1\",\"Testing\",\"Stims/Figures/71-C-30-1.bmp\",\"ta:pata\",\"Left\",\"37\",\"1\",\"4\",\"5\",\"P\",\"J\",\"4\"
\"\",\"\",\"approach-retreat\",\"153\",\"987905\",\"0.0-153.0\",\"\",\"\",\"1-3\",\"4162\",\"38\",\"1\",\"Testing\",\"Stims/Figures/27-J-0-1.bmp\",\"ma:la:la\",\"Down\",\"38\",\"1\",\"5\",\"5\",\"S\",\"J\",\"5\"
\"\",\"\",\"approach-retreat\",\"154\",\"994102\",\"0.0-154.0\",\"\",\"\",\"1-3\",\"4658\",\"37\",\"0\",\"Testing\",\"Stims/Figures/19-C-20-4.bmp\",\"ta:ka:ka\",\"Right\",\"39\",\"1\",\"6\",\"5\",\"P\",\"J\",\"6\"
\"\",\"\",\"approach-retreat\",\"155\",\"999723\",\"0.0-155.0\",\"\",\"\",\"1-3\",\"4067\",\"39\",\"1\",\"Testing\",\"Stims/Figures/84-J-0-2.bmp\",\"na:lana\",\"Left\",\"39\",\"1\",\"7\",\"5\",\"S\",\"J\",\"7\"
\"\",\"\",\"approach-retreat\",\"156\",\"1005312\",\"0.0-156.0\",\"\",\"\",\"1-3\",\"4043\",\"39\",\"1\",\"Testing\",\"Stims/Figures/139-C-20-2.bmp\",\"ta:pa:ta\",\"Right\",\"39\",\"1\",\"8\",\"5\",\"P\",\"J\",\"8\"
\"\",\"\",\"approach-retreat\",\"157\",\"1011126\",\"0.0-157.0\",\"\",\"\",\"1-3\",\"4264\",\"37\",\"1\",\"Testing\",\"Stims/Figures/7-C-20-4.bmp\",\"tapata\",\"Left\",\"37\",\"1\",\"9\",\"5\",\"P\",\"J\",\"9\"
\"\",\"\",\"approach-retreat\",\"158\",\"1016806\",\"0.0-158.0\",\"\",\"\",\"1-3\",\"4129\",\"37\",\"1\",\"Testing\",\"Stims/Figures/111-J-10-3.bmp\",\"nalana\",\"Right\",\"37\",\"1\",\"10\",\"5\",\"S\",\"J\",\"10\"
\"\",\"\",\"approach-retreat\",\"159\",\"1022749\",\"0.0-159.0\",\"\",\"\",\"1-3\",\"4406\",\"40\",\"1\",\"Testing\",\"Stims/Figures/84-C-20-2.bmp\",\"tapaka\",\"Down\",\"40\",\"1\",\"11\",\"5\",\"P\",\"J\",\"11\"
\"\",\"\",\"approach-retreat\",\"160\",\"1028293\",\"0.0-160.0\",\"\",\"\",\"1-3\",\"3980\",\"39\",\"1\",\"Testing\",\"Stims/Figures/44-J-10-3.bmp\",\"nama:la\",\"Left\",\"39\",\"1\",\"12\",\"5\",\"S\",\"J\",\"12\"
\"\",\"\",\"approach-retreat\",\"161\",\"1033903\",\"0.0-161.0\",\"\",\"\",\"1-3\",\"4071\",\"39\",\"1\",\"Testing\",\"Stims/Figures/144-C-30-3.bmp\",\"pa:kaka\",\"Right\",\"39\",\"1\",\"13\",\"5\",\"P\",\"J\",\"13\"
\"\",\"\",\"approach-retreat\",\"162\",\"1039566\",\"0.0-162.0\",\"\",\"\",\"1-3\",\"4121\",\"38\",\"1\",\"Testing\",\"Stims/Figures/139-J-0-2.bmp\",\"namala\",\"Down\",\"38\",\"1\",\"14\",\"5\",\"S\",\"J\",\"14\"
\"\",\"\",\"approach-retreat\",\"163\",\"1046094\",\"0.0-163.0\",\"\",\"\",\"1-3\",\"4978\",\"37\",\"1\",\"Testing\",\"Stims/Figures/85-C-20-2.bmp\",\"paka:ka\",\"Left\",\"37\",\"1\",\"15\",\"5\",\"P\",\"J\",\"15\"
\"\",\"\",\"approach-retreat\",\"164\",\"1051679\",\"0.0-164.0\",\"\",\"\",\"1-3\",\"4046\",\"37\",\"1\",\"Testing\",\"Stims/Figures/19-J-10-4.bmp\",\"malana\",\"Right\",\"37\",\"1\",\"16\",\"5\",\"S\",\"J\",\"16\"
\"\",\"\",\"approach-retreat\",\"165\",\"1057445\",\"0.0-165.0\",\"\",\"\",\"1-3\",\"4214\",\"40\",\"1\",\"Testing\",\"Stims/Figures/111-C-30-3.bmp\",\"pa:ka:ta\",\"Down\",\"40\",\"1\",\"17\",\"5\",\"P\",\"J\",\"17\"
\"\",\"\",\"approach-retreat\",\"166\",\"1063289\",\"0.0-166.0\",\"\",\"\",\"1-3\",\"4289\",\"38\",\"1\",\"Testing\",\"Stims/Figures/86-C-30-1.bmp\",\"pakata\",\"Up\",\"38\",\"1\",\"18\",\"5\",\"P\",\"J\",\"18\"
\"\",\"\",\"approach-retreat\",\"167\",\"1068916\",\"0.0-167.0\",\"\",\"\",\"1-3\",\"4076\",\"37\",\"1\",\"Testing\",\"Stims/Figures/102-C-20-4.bmp\",\"taka:ka\",\"Left\",\"37\",\"1\",\"19\",\"5\",\"P\",\"J\",\"19\"
\"\",\"\",\"approach-retreat\",\"168\",\"1074724\",\"0.0-168.0\",\"\",\"\",\"1-3\",\"4267\",\"40\",\"1\",\"Testing\",\"Stims/Figures/144-J-10-3.bmp\",\"ma:ma:na\",\"Up\",\"40\",\"1\",\"20\",\"5\",\"S\",\"J\",\"20\"
\"\",\"\",\"approach-retreat\",\"169\",\"1080528\",\"0.0-169.0\",\"\",\"\",\"1-3\",\"4258\",\"38\",\"1\",\"Testing\",\"Stims/Figures/102-J-10-4.bmp\",\"mala:na\",\"Down\",\"38\",\"1\",\"21\",\"5\",\"S\",\"J\",\"21\"
\"\",\"\",\"approach-retreat\",\"170\",\"1086285\",\"0.0-170.0\",\"\",\"\",\"1-3\",\"4220\",\"40\",\"1\",\"Testing\",\"Stims/Figures/86-J-0-1.bmp\",\"ma:lala\",\"Up\",\"40\",\"1\",\"22\",\"5\",\"S\",\"J\",\"22\"
\"\",\"\",\"approach-retreat\",\"171\",\"1091954\",\"0.0-171.0\",\"\",\"\",\"1-3\",\"4130\",\"38\",\"1\",\"Testing\",\"Stims/Figures/85-J-0-2.bmp\",\"mama:la\",\"Down\",\"38\",\"1\",\"23\",\"5\",\"S\",\"J\",\"23\"
\"\",\"\",\"approach-retreat\",\"172\",\"1097612\",\"0.0-172.0\",\"\",\"\",\"1-3\",\"4112\",\"39\",\"1\",\"Testing\",\"Stims/Figures/44-C-30-3.bmp\",\"pa:ka:ka\",\"Right\",\"39\",\"1\",\"24\",\"5\",\"P\",\"J\",\"24\"
\"\",\"\",\"approach-retreat\",\"173\",\"1103247\",\"0.0-173.0\",\"\",\"\",\"1-3\",\"4105\",\"40\",\"1\",\"Testing\",\"Stims/Figures/139-J-0-2.bmp\",\"namala\",\"Up\",\"40\",\"2\",\"1\",\"5\",\"S\",\"J\",\"25\"
\"\",\"\",\"approach-retreat\",\"174\",\"1108844\",\"0.0-174.0\",\"\",\"\",\"1-3\",\"4050\",\"39\",\"1\",\"Testing\",\"Stims/Figures/102-J-10-4.bmp\",\"mala:na\",\"Left\",\"39\",\"2\",\"2\",\"5\",\"S\",\"J\",\"26\"
\"\",\"\",\"approach-retreat\",\"175\",\"1114960\",\"0.0-175.0\",\"\",\"\",\"1-3\",\"4570\",\"39\",\"1\",\"Testing\",\"Stims/Figures/44-C-30-3.bmp\",\"pa:ka:ka\",\"Right\",\"39\",\"2\",\"3\",\"5\",\"P\",\"J\",\"27\"
\"\",\"\",\"approach-retreat\",\"176\",\"1120759\",\"0.0-176.0\",\"\",\"\",\"1-3\",\"4257\",\"37\",\"1\",\"Testing\",\"Stims/Figures/85-C-20-2.bmp\",\"paka:ka\",\"Left\",\"37\",\"2\",\"4\",\"5\",\"P\",\"J\",\"28\"
\"\",\"\",\"approach-retreat\",\"177\",\"1126570\",\"0.0-177.0\",\"\",\"\",\"1-3\",\"4250\",\"38\",\"1\",\"Testing\",\"Stims/Figures/86-J-0-1.bmp\",\"ma:lala\",\"Down\",\"38\",\"2\",\"5\",\"5\",\"S\",\"J\",\"29\"
\"\",\"\",\"approach-retreat\",\"178\",\"1132187\",\"0.0-178.0\",\"\",\"\",\"1-3\",\"4074\",\"37\",\"1\",\"Testing\",\"Stims/Figures/84-J-0-2.bmp\",\"na:lana\",\"Right\",\"37\",\"2\",\"6\",\"5\",\"S\",\"J\",\"30\"
\"\",\"\",\"approach-retreat\",\"179\",\"1137849\",\"0.0-179.0\",\"\",\"\",\"1-3\",\"4109\",\"37\",\"1\",\"Testing\",\"Stims/Figures/44-J-10-3.bmp\",\"nama:la\",\"Right\",\"37\",\"2\",\"7\",\"5\",\"S\",\"J\",\"31\"
\"\",\"\",\"approach-retreat\",\"180\",\"1143452\",\"0.0-180.0\",\"\",\"\",\"1-3\",\"4051\",\"37\",\"1\",\"Testing\",\"Stims/Figures/111-C-30-3.bmp\",\"pa:ka:ta\",\"Left\",\"37\",\"2\",\"8\",\"5\",\"P\",\"J\",\"32\"
\"\",\"\",\"approach-retreat\",\"181\",\"1149099\",\"0.0-181.0\",\"\",\"\",\"1-3\",\"4108\",\"39\",\"1\",\"Testing\",\"Stims/Figures/85-J-0-2.bmp\",\"mama:la\",\"Left\",\"39\",\"2\",\"9\",\"5\",\"S\",\"J\",\"33\"
\"\",\"\",\"approach-retreat\",\"182\",\"1154730\",\"0.0-182.0\",\"\",\"\",\"1-3\",\"4080\",\"39\",\"1\",\"Testing\",\"Stims/Figures/27-C-30-1.bmp\",\"taka:ta\",\"Right\",\"39\",\"2\",\"10\",\"5\",\"P\",\"J\",\"34\"
\"\",\"\",\"approach-retreat\",\"183\",\"1160587\",\"0.0-183.0\",\"\",\"\",\"1-3\",\"4318\",\"40\",\"1\",\"Testing\",\"Stims/Figures/102-C-20-4.bmp\",\"taka:ka\",\"Down\",\"40\",\"2\",\"11\",\"5\",\"P\",\"J\",\"35\"
\"\",\"\",\"approach-retreat\",\"184\",\"1168583\",\"0.0-184.0\",\"\",\"\",\"1-3\",\"6460\",\"38\",\"0\",\"Testing\",\"Stims/Figures/19-J-10-4.bmp\",\"malana\",\"Up\",\"40\",\"2\",\"12\",\"5\",\"S\",\"J\",\"36\"
\"\",\"\",\"approach-retreat\",\"185\",\"1174322\",\"0.0-185.0\",\"\",\"\",\"1-3\",\"4201\",\"38\",\"1\",\"Testing\",\"Stims/Figures/84-C-20-2.bmp\",\"tapaka\",\"Up\",\"38\",\"2\",\"13\",\"5\",\"P\",\"J\",\"37\"
\"\",\"\",\"approach-retreat\",\"186\",\"1180009\",\"0.0-186.0\",\"\",\"\",\"1-3\",\"4138\",\"39\",\"1\",\"Testing\",\"Stims/Figures/19-C-20-4.bmp\",\"ta:ka:ka\",\"Right\",\"39\",\"2\",\"14\",\"5\",\"P\",\"J\",\"38\"
\"\",\"\",\"approach-retreat\",\"187\",\"1187046\",\"0.0-187.0\",\"\",\"\",\"1-3\",\"5484\",\"38\",\"1\",\"Testing\",\"Stims/Figures/7-J-10-4.bmp\",\"na:mala\",\"Down\",\"38\",\"2\",\"15\",\"5\",\"S\",\"J\",\"39\"
\"\",\"\",\"approach-retreat\",\"188\",\"1192712\",\"0.0-188.0\",\"\",\"\",\"1-3\",\"4116\",\"37\",\"1\",\"Testing\",\"Stims/Figures/86-C-30-1.bmp\",\"pakata\",\"Left\",\"37\",\"2\",\"16\",\"5\",\"P\",\"J\",\"40\"
\"\",\"\",\"approach-retreat\",\"189\",\"1198428\",\"0.0-189.0\",\"\",\"\",\"1-3\",\"4161\",\"40\",\"1\",\"Testing\",\"Stims/Figures/71-J-0-1.bmp\",\"nalala\",\"Up\",\"40\",\"2\",\"17\",\"5\",\"S\",\"J\",\"41\"
\"\",\"\",\"approach-retreat\",\"190\",\"1204215\",\"0.0-190.0\",\"\",\"\",\"1-3\",\"4242\",\"38\",\"1\",\"Testing\",\"Stims/Figures/71-C-30-1.bmp\",\"ta:pata\",\"Up\",\"38\",\"2\",\"18\",\"5\",\"P\",\"J\",\"42\"
\"\",\"\",\"approach-retreat\",\"191\",\"1209743\",\"0.0-191.0\",\"\",\"\",\"1-3\",\"3975\",\"37\",\"1\",\"Testing\",\"Stims/Figures/144-C-30-3.bmp\",\"pa:kaka\",\"Left\",\"37\",\"2\",\"19\",\"5\",\"P\",\"J\",\"43\"
\"\",\"\",\"approach-retreat\",\"192\",\"1215337\",\"0.0-192.0\",\"\",\"\",\"1-3\",\"4034\",\"37\",\"1\",\"Testing\",\"Stims/Figures/27-J-0-1.bmp\",\"ma:la:la\",\"Right\",\"37\",\"2\",\"20\",\"5\",\"S\",\"J\",\"44\"
\"\",\"\",\"approach-retreat\",\"193\",\"1223143\",\"0.0-193.0\",\"\",\"\",\"1-3\",\"6267\",\"38\",\"1\",\"Testing\",\"Stims/Figures/144-J-10-3.bmp\",\"ma:ma:na\",\"Down\",\"38\",\"2\",\"21\",\"5\",\"S\",\"J\",\"45\"
\"\",\"\",\"approach-retreat\",\"194\",\"1228772\",\"0.0-194.0\",\"\",\"\",\"1-3\",\"4070\",\"40\",\"1\",\"Testing\",\"Stims/Figures/7-C-20-4.bmp\",\"tapata\",\"Down\",\"40\",\"2\",\"22\",\"5\",\"P\",\"J\",\"46\"
\"\",\"\",\"approach-retreat\",\"195\",\"1234801\",\"0.0-195.0\",\"\",\"\",\"1-3\",\"4485\",\"38\",\"1\",\"Testing\",\"Stims/Figures/139-C-20-2.bmp\",\"ta:pa:ta\",\"Up\",\"38\",\"2\",\"23\",\"5\",\"P\",\"J\",\"47\"
\"\",\"\",\"approach-retreat\",\"196\",\"1240571\",\"0.0-196.0\",\"\",\"\",\"1-3\",\"4232\",\"38\",\"1\",\"Testing\",\"Stims/Figures/111-J-10-3.bmp\",\"nalana\",\"Down\",\"38\",\"2\",\"24\",\"5\",\"S\",\"J\",\"48\"
\"\",\"\",\"approach-retreat\",\"197\",\"1247021\",\"0.0-197.0\",\"\",\"\",\"1-3\",\"4894\",\"37\",\"1\",\"Testing\",\"Stims/Figures/19-J-10-4.bmp\",\"malana\",\"Right\",\"37\",\"3\",\"1\",\"5\",\"S\",\"J\",\"49\"
\"\",\"\",\"approach-retreat\",\"198\",\"1252661\",\"0.0-198.0\",\"\",\"\",\"1-3\",\"4086\",\"37\",\"1\",\"Testing\",\"Stims/Figures/102-C-20-4.bmp\",\"taka:ka\",\"Left\",\"37\",\"3\",\"2\",\"5\",\"P\",\"J\",\"50\"
\"\",\"\",\"approach-retreat\",\"199\",\"1258580\",\"0.0-199.0\",\"\",\"\",\"1-3\",\"4375\",\"40\",\"1\",\"Testing\",\"Stims/Figures/84-J-0-2.bmp\",\"na:lana\",\"Up\",\"40\",\"3\",\"3\",\"5\",\"S\",\"J\",\"51\"
\"\",\"\",\"approach-retreat\",\"200\",\"1264234\",\"0.0-200.0\",\"\",\"\",\"1-3\",\"4101\",\"40\",\"1\",\"Testing\",\"Stims/Figures/85-J-0-2.bmp\",\"mama:la\",\"Up\",\"40\",\"3\",\"4\",\"5\",\"S\",\"J\",\"52\"
\"\",\"\",\"approach-retreat\",\"201\",\"1269882\",\"0.0-201.0\",\"\",\"\",\"1-3\",\"4102\",\"37\",\"1\",\"Testing\",\"Stims/Figures/27-C-30-1.bmp\",\"taka:ta\",\"Left\",\"37\",\"3\",\"5\",\"5\",\"P\",\"J\",\"53\"
\"\",\"\",\"approach-retreat\",\"202\",\"1275427\",\"0.0-202.0\",\"\",\"\",\"1-3\",\"4007\",\"39\",\"1\",\"Testing\",\"Stims/Figures/139-J-0-2.bmp\",\"namala\",\"Left\",\"39\",\"3\",\"6\",\"5\",\"S\",\"J\",\"54\"
\"\",\"\",\"approach-retreat\",\"203\",\"1281010\",\"0.0-203.0\",\"\",\"\",\"1-3\",\"4032\",\"39\",\"1\",\"Testing\",\"Stims/Figures/86-C-30-1.bmp\",\"pakata\",\"Right\",\"39\",\"3\",\"7\",\"5\",\"P\",\"J\",\"55\"
\"\",\"\",\"approach-retreat\",\"204\",\"1286878\",\"0.0-204.0\",\"\",\"\",\"1-3\",\"4318\",\"38\",\"1\",\"Testing\",\"Stims/Figures/71-J-0-1.bmp\",\"nalala\",\"Down\",\"38\",\"3\",\"8\",\"5\",\"S\",\"J\",\"56\"
\"\",\"\",\"approach-retreat\",\"205\",\"1292693\",\"0.0-205.0\",\"\",\"\",\"1-3\",\"4272\",\"40\",\"1\",\"Testing\",\"Stims/Figures/102-J-10-4.bmp\",\"mala:na\",\"Up\",\"40\",\"3\",\"9\",\"5\",\"S\",\"J\",\"57\"
\"\",\"\",\"approach-retreat\",\"206\",\"1298334\",\"0.0-206.0\",\"\",\"\",\"1-3\",\"4089\",\"40\",\"1\",\"Testing\",\"Stims/Figures/44-J-10-3.bmp\",\"nama:la\",\"Up\",\"40\",\"3\",\"10\",\"5\",\"S\",\"J\",\"58\"
\"\",\"\",\"approach-retreat\",\"207\",\"1304128\",\"0.0-207.0\",\"\",\"\",\"1-3\",\"4251\",\"40\",\"1\",\"Testing\",\"Stims/Figures/44-C-30-3.bmp\",\"pa:ka:ka\",\"Down\",\"40\",\"3\",\"11\",\"5\",\"P\",\"J\",\"59\"
\"\",\"\",\"approach-retreat\",\"208\",\"1309676\",\"0.0-208.0\",\"\",\"\",\"1-3\",\"4008\",\"39\",\"1\",\"Testing\",\"Stims/Figures/111-J-10-3.bmp\",\"nalana\",\"Left\",\"39\",\"3\",\"12\",\"5\",\"S\",\"J\",\"60\"
\"\",\"\",\"approach-retreat\",\"209\",\"1315291\",\"0.0-209.0\",\"\",\"\",\"1-3\",\"4079\",\"39\",\"0\",\"Testing\",\"Stims/Figures/27-J-0-1.bmp\",\"ma:la:la\",\"Right\",\"37\",\"3\",\"13\",\"5\",\"S\",\"J\",\"61\"
\"\",\"\",\"approach-retreat\",\"210\",\"1321538\",\"0.0-210.0\",\"\",\"\",\"1-3\",\"4694\",\"39\",\"1\",\"Testing\",\"Stims/Figures/144-C-30-3.bmp\",\"pa:kaka\",\"Right\",\"39\",\"3\",\"14\",\"5\",\"P\",\"J\",\"62\"
\"\",\"\",\"approach-retreat\",\"211\",\"1327251\",\"0.0-211.0\",\"\",\"\",\"1-3\",\"4171\",\"38\",\"1\",\"Testing\",\"Stims/Figures/111-C-30-3.bmp\",\"pa:ka:ta\",\"Up\",\"38\",\"3\",\"15\",\"5\",\"P\",\"J\",\"63\"
\"\",\"\",\"approach-retreat\",\"212\",\"1332992\",\"0.0-212.0\",\"\",\"\",\"1-3\",\"4181\",\"39\",\"1\",\"Testing\",\"Stims/Figures/19-C-20-4.bmp\",\"ta:ka:ka\",\"Right\",\"39\",\"3\",\"16\",\"5\",\"P\",\"J\",\"64\"
\"\",\"\",\"approach-retreat\",\"213\",\"1338798\",\"0.0-213.0\",\"\",\"\",\"1-3\",\"4254\",\"40\",\"1\",\"Testing\",\"Stims/Figures/139-C-20-2.bmp\",\"ta:pa:ta\",\"Down\",\"40\",\"3\",\"17\",\"5\",\"P\",\"J\",\"65\"
\"\",\"\",\"approach-retreat\",\"214\",\"1347266\",\"0.0-214.0\",\"\",\"\",\"1-3\",\"6921\",\"39\",\"1\",\"Testing\",\"Stims/Figures/144-J-10-3.bmp\",\"ma:ma:na\",\"Left\",\"39\",\"3\",\"18\",\"5\",\"S\",\"J\",\"66\"
\"\",\"\",\"approach-retreat\",\"215\",\"1353443\",\"0.0-215.0\",\"\",\"\",\"1-3\",\"4639\",\"37\",\"1\",\"Testing\",\"Stims/Figures/84-C-20-2.bmp\",\"tapaka\",\"Left\",\"37\",\"3\",\"19\",\"5\",\"P\",\"J\",\"67\"
\"\",\"\",\"approach-retreat\",\"216\",\"1359329\",\"0.0-216.0\",\"\",\"\",\"1-3\",\"4343\",\"38\",\"1\",\"Testing\",\"Stims/Figures/7-J-10-4.bmp\",\"na:mala\",\"Down\",\"38\",\"3\",\"20\",\"5\",\"S\",\"J\",\"68\"
\"\",\"\",\"approach-retreat\",\"217\",\"1365304\",\"0.0-217.0\",\"\",\"\",\"1-3\",\"4410\",\"38\",\"1\",\"Testing\",\"Stims/Figures/85-C-20-2.bmp\",\"paka:ka\",\"Up\",\"38\",\"3\",\"21\",\"5\",\"P\",\"J\",\"69\"
\"\",\"\",\"approach-retreat\",\"218\",\"1371320\",\"0.0-218.0\",\"\",\"\",\"1-3\",\"4467\",\"38\",\"1\",\"Testing\",\"Stims/Figures/86-J-0-1.bmp\",\"ma:lala\",\"Down\",\"38\",\"3\",\"22\",\"5\",\"S\",\"J\",\"70\"
\"\",\"\",\"approach-retreat\",\"219\",\"1376998\",\"0.0-219.0\",\"\",\"\",\"1-3\",\"4137\",\"39\",\"1\",\"Testing\",\"Stims/Figures/7-C-20-4.bmp\",\"tapata\",\"Right\",\"39\",\"3\",\"23\",\"5\",\"P\",\"J\",\"71\"
\"\",\"\",\"approach-retreat\",\"220\",\"1382580\",\"0.0-220.0\",\"\",\"\",\"1-3\",\"4044\",\"40\",\"1\",\"Testing\",\"Stims/Figures/71-C-30-1.bmp\",\"ta:pata\",\"Down\",\"40\",\"3\",\"24\",\"5\",\"P\",\"J\",\"72\"
\"\",\"\",\"approach-retreat\",\"221\",\"1388624\",\"0.0-221.0\",\"\",\"\",\"1-3\",\"4491\",\"37\",\"1\",\"Testing\",\"Stims/Figures/102-J-10-4.bmp\",\"mala:na\",\"Right\",\"37\",\"4\",\"1\",\"5\",\"S\",\"J\",\"73\"
\"\",\"\",\"approach-retreat\",\"222\",\"1394201\",\"0.0-222.0\",\"\",\"\",\"1-3\",\"4035\",\"39\",\"1\",\"Testing\",\"Stims/Figures/139-J-0-2.bmp\",\"namala\",\"Left\",\"39\",\"4\",\"2\",\"5\",\"S\",\"J\",\"74\"
\"\",\"\",\"approach-retreat\",\"223\",\"1400374\",\"0.0-223.0\",\"\",\"\",\"1-3\",\"4622\",\"38\",\"0\",\"Testing\",\"Stims/Figures/19-J-10-4.bmp\",\"malana\",\"Up\",\"40\",\"4\",\"3\",\"5\",\"S\",\"J\",\"75\"
\"\",\"\",\"approach-retreat\",\"224\",\"1406065\",\"0.0-224.0\",\"\",\"\",\"1-3\",\"4146\",\"39\",\"1\",\"Testing\",\"Stims/Figures/144-C-30-3.bmp\",\"pa:kaka\",\"Right\",\"39\",\"4\",\"4\",\"5\",\"P\",\"J\",\"76\"
\"\",\"\",\"approach-retreat\",\"225\",\"1411731\",\"0.0-225.0\",\"\",\"\",\"1-3\",\"4111\",\"38\",\"1\",\"Testing\",\"Stims/Figures/139-C-20-2.bmp\",\"ta:pa:ta\",\"Up\",\"38\",\"4\",\"5\",\"5\",\"P\",\"J\",\"77\"
\"\",\"\",\"approach-retreat\",\"226\",\"1417318\",\"0.0-226.0\",\"\",\"\",\"1-3\",\"4044\",\"37\",\"1\",\"Testing\",\"Stims/Figures/85-J-0-2.bmp\",\"mama:la\",\"Right\",\"37\",\"4\",\"6\",\"5\",\"S\",\"J\",\"78\"
\"\",\"\",\"approach-retreat\",\"227\",\"1422876\",\"0.0-227.0\",\"\",\"\",\"1-3\",\"4019\",\"39\",\"1\",\"Testing\",\"Stims/Figures/71-J-0-1.bmp\",\"nalala\",\"Left\",\"39\",\"4\",\"7\",\"5\",\"S\",\"J\",\"79\"
\"\",\"\",\"approach-retreat\",\"228\",\"1428596\",\"0.0-228.0\",\"\",\"\",\"1-3\",\"4183\",\"39\",\"1\",\"Testing\",\"Stims/Figures/84-J-0-2.bmp\",\"na:lana\",\"Left\",\"39\",\"4\",\"8\",\"5\",\"S\",\"J\",\"80\"
\"\",\"\",\"approach-retreat\",\"229\",\"1434135\",\"0.0-229.0\",\"\",\"\",\"1-3\",\"3979\",\"39\",\"1\",\"Testing\",\"Stims/Figures/86-J-0-1.bmp\",\"ma:lala\",\"Left\",\"39\",\"4\",\"9\",\"5\",\"S\",\"J\",\"81\"
\"\",\"\",\"approach-retreat\",\"230\",\"1439922\",\"0.0-230.0\",\"\",\"\",\"1-3\",\"4241\",\"40\",\"1\",\"Testing\",\"Stims/Figures/85-C-20-2.bmp\",\"paka:ka\",\"Down\",\"40\",\"4\",\"10\",\"5\",\"P\",\"J\",\"82\"
\"\",\"\",\"approach-retreat\",\"231\",\"1445537\",\"0.0-231.0\",\"\",\"\",\"1-3\",\"4084\",\"38\",\"1\",\"Testing\",\"Stims/Figures/102-C-20-4.bmp\",\"taka:ka\",\"Up\",\"38\",\"4\",\"11\",\"5\",\"P\",\"J\",\"83\"
\"\",\"\",\"approach-retreat\",\"232\",\"1451245\",\"0.0-232.0\",\"\",\"\",\"1-3\",\"4176\",\"38\",\"0\",\"Testing\",\"Stims/Figures/144-J-10-3.bmp\",\"ma:ma:na\",\"Up\",\"40\",\"4\",\"12\",\"5\",\"S\",\"J\",\"84\"
\"\",\"\",\"approach-retreat\",\"233\",\"1457042\",\"0.0-233.0\",\"\",\"\",\"1-3\",\"4268\",\"40\",\"1\",\"Testing\",\"Stims/Figures/27-C-30-1.bmp\",\"taka:ta\",\"Down\",\"40\",\"4\",\"13\",\"5\",\"P\",\"J\",\"85\"
\"\",\"\",\"approach-retreat\",\"234\",\"1462733\",\"0.0-234.0\",\"\",\"\",\"1-3\",\"4151\",\"38\",\"1\",\"Testing\",\"Stims/Figures/27-J-0-1.bmp\",\"ma:la:la\",\"Down\",\"38\",\"4\",\"14\",\"5\",\"S\",\"J\",\"86\"
\"\",\"\",\"approach-retreat\",\"235\",\"1468306\",\"0.0-235.0\",\"\",\"\",\"1-3\",\"4012\",\"37\",\"1\",\"Testing\",\"Stims/Figures/84-C-20-2.bmp\",\"tapaka\",\"Left\",\"37\",\"4\",\"15\",\"5\",\"P\",\"J\",\"87\"
\"\",\"\",\"approach-retreat\",\"236\",\"1473958\",\"0.0-236.0\",\"\",\"\",\"1-3\",\"4101\",\"40\",\"1\",\"Testing\",\"Stims/Figures/7-J-10-4.bmp\",\"na:mala\",\"Up\",\"40\",\"4\",\"16\",\"5\",\"S\",\"J\",\"88\"
\"\",\"\",\"approach-retreat\",\"237\",\"1479562\",\"0.0-237.0\",\"\",\"\",\"1-3\",\"4052\",\"38\",\"1\",\"Testing\",\"Stims/Figures/19-C-20-4.bmp\",\"ta:ka:ka\",\"Up\",\"38\",\"4\",\"17\",\"5\",\"P\",\"J\",\"89\"
\"\",\"\",\"approach-retreat\",\"238\",\"1485328\",\"0.0-238.0\",\"\",\"\",\"1-3\",\"4220\",\"40\",\"1\",\"Testing\",\"Stims/Figures/86-C-30-1.bmp\",\"pakata\",\"Down\",\"40\",\"4\",\"18\",\"5\",\"P\",\"J\",\"90\"
\"\",\"\",\"approach-retreat\",\"239\",\"1491009\",\"0.0-239.0\",\"\",\"\",\"1-3\",\"4136\",\"40\",\"1\",\"Testing\",\"Stims/Figures/111-C-30-3.bmp\",\"pa:ka:ta\",\"Down\",\"40\",\"4\",\"19\",\"5\",\"P\",\"J\",\"91\"
\"\",\"\",\"approach-retreat\",\"240\",\"1496563\",\"0.0-240.0\",\"\",\"\",\"1-3\",\"4014\",\"39\",\"1\",\"Testing\",\"Stims/Figures/7-C-20-4.bmp\",\"tapata\",\"Right\",\"39\",\"4\",\"20\",\"5\",\"P\",\"J\",\"92\"
\"\",\"\",\"approach-retreat\",\"241\",\"1502088\",\"0.0-241.0\",\"\",\"\",\"1-3\",\"3972\",\"37\",\"1\",\"Testing\",\"Stims/Figures/111-J-10-3.bmp\",\"nalana\",\"Right\",\"37\",\"4\",\"21\",\"5\",\"S\",\"J\",\"93\"
\"\",\"\",\"approach-retreat\",\"242\",\"1507772\",\"0.0-242.0\",\"\",\"\",\"1-3\",\"4150\",\"40\",\"1\",\"Testing\",\"Stims/Figures/44-C-30-3.bmp\",\"pa:ka:ka\",\"Down\",\"40\",\"4\",\"22\",\"5\",\"P\",\"J\",\"94\"
\"\",\"\",\"approach-retreat\",\"243\",\"1513457\",\"0.0-243.0\",\"\",\"\",\"1-3\",\"4145\",\"37\",\"1\",\"Testing\",\"Stims/Figures/71-C-30-1.bmp\",\"ta:pata\",\"Left\",\"37\",\"4\",\"23\",\"5\",\"P\",\"J\",\"95\"
\"\",\"\",\"approach-retreat\",\"244\",\"1519321\",\"0.0-244.0\",\"\",\"\",\"1-3\",\"4329\",\"37\",\"1\",\"Testing\",\"Stims/Figures/44-J-10-3.bmp\",\"nama:la\",\"Right\",\"37\",\"4\",\"24\",\"5\",\"S\",\"J\",\"96\"
\"21322\",\"\",\"survey-text\",\"245\",\"1540658\",\"0.0-245.0\",\"\",\"{\"\"Q0\"\":\"\"PS160018\"\"}\",\"\",\"\",\"\",\"\",\"\",\"\",\"\",\"\",\"\",\"\",\"\",\"\",\"\",\"\",\"\"
