\"rt\",\"key_press\",\"trial_type\",\"trial_index\",\"time_elapsed\",\"internal_node_id\",\"view_history\",\"responses\",\"Id\",\"Rt\",\"ResKeyCode\",\"ResCorr\",\"TrialType2\",\"Image\",\"Label\",\"Location\",\"CorrectResponse\",\"Block\",\"BlockTrial\",\"Condition\",\"LabelType\",\"Subcondition\",\"trialNum\"
\"19920\",\"32\",\"text\",\"0\",\"19924\",\"0.0-0.0-0.0\",\"\",\"\",\"\",\"\",\"\",\"\",\"\",\"\",\"\",\"\",\"\",\"\",\"\",\"\",\"\",\"\",\"\"
\"56833\",\"\",\"instructions\",\"1\",\"76760\",\"0.0-1.0\",\"[{\"\"page_index\"\":0,\"\"viewing_time\"\":56832}]\",\"\",\"\",\"\",\"\",\"\",\"\",\"\",\"\",\"\",\"\",\"\",\"\",\"\",\"\",\"\",\"\"
\"28014\",\"\",\"survey-multi-choice\",\"2\",\"104810\",\"0.0-2.0\",\"\",\"{\"\"Q0\"\":\"\"Da\"\",\"\"Q1\"\":\"\"Da\"\",\"\"Q2\"\":\"\"Da\"\",\"\"Q3\"\":\"\"Da\"\",\"\"Q4\"\":\"\"Da\"\",\"\"Q5\"\":\"\"Da\"\"}\",\"\",\"\",\"\",\"\",\"\",\"\",\"\",\"\",\"\",\"\",\"\",\"\",\"\",\"\",\"\"
\"\",\"\",\"bio\",\"3\",\"114283\",\"0.0-3.0\",\"\",\"{\"\"age\"\":\"\"21\"\",\"\"gender\"\":\"\"f\"\",\"\"specify\"\":\"\"\"\"}\",\"\",\"\",\"\",\"\",\"\",\"\",\"\",\"\",\"\",\"\",\"\",\"\",\"\",\"\",\"\"
\"\",\"\",\"approach-retreat\",\"4\",\"122583\",\"0.0-4.0\",\"\",\"\",\"1-5\",\"6796\",\"37\",\"1\",\"Training\",\"Stims/Figures/86-J-0-1.bmp\",\"pa:pa:ka\",\"Left\",\"37\",\"1\",\"1\",\"7\",\"P\",\"C\",\"1\"
\"\",\"\",\"approach-retreat\",\"5\",\"128685\",\"0.0-5.0\",\"\",\"\",\"1-5\",\"4592\",\"40\",\"0\",\"Training\",\"Stims/Figures/74-J-10-4.bmp\",\"na:lana\",\"Up\",\"38\",\"1\",\"2\",\"7\",\"S\",\"C\",\"2\"
\"\",\"\",\"approach-retreat\",\"6\",\"135389\",\"0.0-6.0\",\"\",\"\",\"1-5\",\"5195\",\"37\",\"1\",\"Training\",\"Stims/Figures/57-J-0-1.bmp\",\"ta:ka:ta\",\"Left\",\"37\",\"1\",\"3\",\"7\",\"P\",\"C\",\"3\"
\"\",\"\",\"approach-retreat\",\"7\",\"141444\",\"0.0-7.0\",\"\",\"\",\"1-5\",\"4546\",\"39\",\"0\",\"Training\",\"Stims/Figures/85-C-20-2.bmp\",\"taka:ta\",\"Right\",\"37\",\"1\",\"4\",\"7\",\"P\",\"C\",\"4\"
\"\",\"\",\"approach-retreat\",\"8\",\"147516\",\"0.0-8.0\",\"\",\"\",\"1-5\",\"4561\",\"39\",\"0\",\"Training\",\"Stims/Figures/74-C-20-4.bmp\",\"mamala\",\"Right\",\"37\",\"1\",\"5\",\"7\",\"S\",\"C\",\"5\"
\"\",\"\",\"approach-retreat\",\"9\",\"154445\",\"0.0-9.0\",\"\",\"\",\"1-5\",\"5418\",\"40\",\"1\",\"Training\",\"Stims/Figures/128-J-10-3.bmp\",\"mala:na\",\"Down\",\"40\",\"1\",\"6\",\"7\",\"S\",\"C\",\"6\"
\"\",\"\",\"approach-retreat\",\"10\",\"160973\",\"0.0-10.0\",\"\",\"\",\"1-5\",\"5010\",\"38\",\"1\",\"Training\",\"Stims/Figures/111-J-10-3.bmp\",\"ma:lana\",\"Up\",\"38\",\"1\",\"7\",\"7\",\"S\",\"C\",\"7\"
\"\",\"\",\"approach-retreat\",\"11\",\"167189\",\"0.0-11.0\",\"\",\"\",\"1-5\",\"4706\",\"37\",\"1\",\"Training\",\"Stims/Figures/86-C-30-1.bmp\",\"takata\",\"Right\",\"37\",\"1\",\"8\",\"7\",\"P\",\"C\",\"8\"
\"\",\"\",\"approach-retreat\",\"12\",\"172877\",\"0.0-12.0\",\"\",\"\",\"1-5\",\"4173\",\"37\",\"1\",\"Training\",\"Stims/Figures/85-J-0-2.bmp\",\"tapa:ka\",\"Left\",\"37\",\"1\",\"9\",\"7\",\"P\",\"C\",\"9\"
\"\",\"\",\"approach-retreat\",\"13\",\"179450\",\"0.0-13.0\",\"\",\"\",\"1-5\",\"5069\",\"40\",\"0\",\"Training\",\"Stims/Figures/118-C-20-2.bmp\",\"takaka\",\"Down\",\"38\",\"1\",\"10\",\"7\",\"P\",\"C\",\"10\"
\"\",\"\",\"approach-retreat\",\"14\",\"185091\",\"0.0-14.0\",\"\",\"\",\"1-5\",\"4131\",\"38\",\"1\",\"Training\",\"Stims/Figures/57-C-30-1.bmp\",\"papa:ta\",\"Down\",\"38\",\"1\",\"11\",\"7\",\"P\",\"C\",\"11\"
\"\",\"\",\"approach-retreat\",\"15\",\"190836\",\"0.0-15.0\",\"\",\"\",\"1-5\",\"4237\",\"39\",\"1\",\"Training\",\"Stims/Figures/87-J-10-4.bmp\",\"na:lala\",\"Right\",\"39\",\"1\",\"12\",\"7\",\"S\",\"C\",\"12\"
\"\",\"\",\"approach-retreat\",\"16\",\"196540\",\"0.0-16.0\",\"\",\"\",\"1-5\",\"4193\",\"40\",\"1\",\"Training\",\"Stims/Figures/118-J-0-2.bmp\",\"ta:kata\",\"Down\",\"40\",\"1\",\"13\",\"7\",\"P\",\"C\",\"13\"
\"\",\"\",\"approach-retreat\",\"17\",\"202444\",\"0.0-17.0\",\"\",\"\",\"1-5\",\"4395\",\"39\",\"1\",\"Training\",\"Stims/Figures/87-C-20-4.bmp\",\"nala:la\",\"Left\",\"39\",\"1\",\"14\",\"7\",\"S\",\"C\",\"14\"
\"\",\"\",\"approach-retreat\",\"18\",\"208357\",\"0.0-18.0\",\"\",\"\",\"1-5\",\"4403\",\"38\",\"0\",\"Training\",\"Stims/Figures/128-C-30-3.bmp\",\"mala:la\",\"Up\",\"40\",\"1\",\"15\",\"7\",\"S\",\"C\",\"15\"
\"\",\"\",\"approach-retreat\",\"19\",\"214500\",\"0.0-19.0\",\"\",\"\",\"1-5\",\"4634\",\"40\",\"1\",\"Training\",\"Stims/Figures/111-C-30-3.bmp\",\"ma:ma:na\",\"Up\",\"40\",\"1\",\"16\",\"7\",\"S\",\"C\",\"16\"
\"\",\"\",\"approach-retreat\",\"20\",\"220091\",\"0.0-20.0\",\"\",\"\",\"1-5\",\"4088\",\"40\",\"1\",\"Training\",\"Stims/Figures/57-J-0-1.bmp\",\"ta:ka:ta\",\"Down\",\"40\",\"2\",\"1\",\"7\",\"P\",\"C\",\"17\"
\"\",\"\",\"approach-retreat\",\"21\",\"226051\",\"0.0-21.0\",\"\",\"\",\"1-5\",\"4455\",\"38\",\"1\",\"Training\",\"Stims/Figures/111-J-10-3.bmp\",\"ma:lana\",\"Up\",\"38\",\"2\",\"2\",\"7\",\"S\",\"C\",\"18\"
\"\",\"\",\"approach-retreat\",\"22\",\"231716\",\"0.0-22.0\",\"\",\"\",\"1-5\",\"4155\",\"39\",\"0\",\"Training\",\"Stims/Figures/87-C-20-4.bmp\",\"nala:la\",\"Right\",\"37\",\"2\",\"3\",\"7\",\"S\",\"C\",\"19\"
\"\",\"\",\"approach-retreat\",\"23\",\"237427\",\"0.0-23.0\",\"\",\"\",\"1-5\",\"4203\",\"39\",\"1\",\"Training\",\"Stims/Figures/85-J-0-2.bmp\",\"tapa:ka\",\"Right\",\"39\",\"2\",\"4\",\"7\",\"P\",\"C\",\"20\"
\"\",\"\",\"approach-retreat\",\"24\",\"243684\",\"0.0-24.0\",\"\",\"\",\"1-5\",\"4748\",\"39\",\"1\",\"Training\",\"Stims/Figures/111-C-30-3.bmp\",\"ma:ma:na\",\"Left\",\"39\",\"2\",\"5\",\"7\",\"S\",\"C\",\"21\"
\"\",\"\",\"approach-retreat\",\"25\",\"249747\",\"0.0-25.0\",\"\",\"\",\"1-5\",\"4554\",\"38\",\"1\",\"Training\",\"Stims/Figures/86-J-0-1.bmp\",\"pa:pa:ka\",\"Up\",\"38\",\"2\",\"6\",\"7\",\"P\",\"C\",\"22\"
\"\",\"\",\"approach-retreat\",\"26\",\"255588\",\"0.0-26.0\",\"\",\"\",\"1-5\",\"4330\",\"40\",\"1\",\"Training\",\"Stims/Figures/85-C-20-2.bmp\",\"taka:ta\",\"Up\",\"40\",\"2\",\"7\",\"7\",\"P\",\"C\",\"23\"
\"\",\"\",\"approach-retreat\",\"27\",\"261884\",\"0.0-27.0\",\"\",\"\",\"1-5\",\"4790\",\"39\",\"1\",\"Training\",\"Stims/Figures/86-C-30-1.bmp\",\"takata\",\"Left\",\"39\",\"2\",\"8\",\"7\",\"P\",\"C\",\"24\"
\"\",\"\",\"approach-retreat\",\"28\",\"267789\",\"0.0-28.0\",\"\",\"\",\"1-5\",\"4396\",\"40\",\"1\",\"Training\",\"Stims/Figures/128-J-10-3.bmp\",\"mala:na\",\"Down\",\"40\",\"2\",\"9\",\"7\",\"S\",\"C\",\"25\"
\"\",\"\",\"approach-retreat\",\"29\",\"273501\",\"0.0-29.0\",\"\",\"\",\"1-5\",\"4202\",\"37\",\"0\",\"Training\",\"Stims/Figures/118-C-20-2.bmp\",\"takaka\",\"Left\",\"39\",\"2\",\"10\",\"7\",\"P\",\"C\",\"26\"
\"\",\"\",\"approach-retreat\",\"30\",\"279621\",\"0.0-30.0\",\"\",\"\",\"1-5\",\"4610\",\"37\",\"0\",\"Training\",\"Stims/Figures/87-J-10-4.bmp\",\"na:lala\",\"Right\",\"39\",\"2\",\"11\",\"7\",\"S\",\"C\",\"27\"
\"\",\"\",\"approach-retreat\",\"31\",\"285571\",\"0.0-31.0\",\"\",\"\",\"1-5\",\"4439\",\"39\",\"1\",\"Training\",\"Stims/Figures/74-J-10-4.bmp\",\"na:lana\",\"Right\",\"39\",\"2\",\"12\",\"7\",\"S\",\"C\",\"28\"
\"\",\"\",\"approach-retreat\",\"32\",\"291324\",\"0.0-32.0\",\"\",\"\",\"1-5\",\"4244\",\"38\",\"1\",\"Training\",\"Stims/Figures/118-J-0-2.bmp\",\"ta:kata\",\"Up\",\"38\",\"2\",\"13\",\"7\",\"P\",\"C\",\"29\"
\"\",\"\",\"approach-retreat\",\"33\",\"297548\",\"0.0-33.0\",\"\",\"\",\"1-5\",\"4713\",\"38\",\"1\",\"Training\",\"Stims/Figures/128-C-30-3.bmp\",\"mala:la\",\"Down\",\"38\",\"2\",\"14\",\"7\",\"S\",\"C\",\"30\"
\"\",\"\",\"approach-retreat\",\"34\",\"303196\",\"0.0-34.0\",\"\",\"\",\"1-5\",\"4140\",\"39\",\"1\",\"Training\",\"Stims/Figures/74-C-20-4.bmp\",\"mamala\",\"Left\",\"39\",\"2\",\"15\",\"7\",\"S\",\"C\",\"31\"
\"\",\"\",\"approach-retreat\",\"35\",\"308892\",\"0.0-35.0\",\"\",\"\",\"1-5\",\"4184\",\"38\",\"1\",\"Training\",\"Stims/Figures/57-C-30-1.bmp\",\"papa:ta\",\"Down\",\"38\",\"2\",\"16\",\"7\",\"P\",\"C\",\"32\"
\"\",\"\",\"approach-retreat\",\"36\",\"314829\",\"0.0-36.0\",\"\",\"\",\"1-5\",\"4427\",\"39\",\"1\",\"Training\",\"Stims/Figures/57-J-0-1.bmp\",\"ta:ka:ta\",\"Right\",\"39\",\"3\",\"1\",\"7\",\"P\",\"C\",\"33\"
\"\",\"\",\"approach-retreat\",\"37\",\"320675\",\"0.0-37.0\",\"\",\"\",\"1-5\",\"4336\",\"39\",\"0\",\"Training\",\"Stims/Figures/87-J-10-4.bmp\",\"na:lala\",\"Left\",\"37\",\"3\",\"2\",\"7\",\"S\",\"C\",\"34\"
\"\",\"\",\"approach-retreat\",\"38\",\"326423\",\"0.0-38.0\",\"\",\"\",\"1-5\",\"4237\",\"38\",\"1\",\"Training\",\"Stims/Figures/86-J-0-1.bmp\",\"pa:pa:ka\",\"Up\",\"38\",\"3\",\"3\",\"7\",\"P\",\"C\",\"35\"
\"\",\"\",\"approach-retreat\",\"39\",\"332365\",\"0.0-39.0\",\"\",\"\",\"1-5\",\"4429\",\"37\",\"1\",\"Training\",\"Stims/Figures/128-C-30-3.bmp\",\"mala:la\",\"Right\",\"37\",\"3\",\"4\",\"7\",\"S\",\"C\",\"36\"
\"\",\"\",\"approach-retreat\",\"40\",\"338619\",\"0.0-40.0\",\"\",\"\",\"1-5\",\"4742\",\"37\",\"0\",\"Training\",\"Stims/Figures/74-C-20-4.bmp\",\"mamala\",\"Left\",\"39\",\"3\",\"5\",\"7\",\"S\",\"C\",\"37\"
\"\",\"\",\"approach-retreat\",\"41\",\"345700\",\"0.0-41.0\",\"\",\"\",\"1-5\",\"5572\",\"38\",\"0\",\"Training\",\"Stims/Figures/128-J-10-3.bmp\",\"mala:na\",\"Down\",\"40\",\"3\",\"6\",\"7\",\"S\",\"C\",\"38\"
\"\",\"\",\"approach-retreat\",\"42\",\"351523\",\"0.0-42.0\",\"\",\"\",\"1-5\",\"4312\",\"38\",\"1\",\"Training\",\"Stims/Figures/57-C-30-1.bmp\",\"papa:ta\",\"Down\",\"38\",\"3\",\"7\",\"7\",\"P\",\"C\",\"39\"
\"\",\"\",\"approach-retreat\",\"43\",\"357212\",\"0.0-43.0\",\"\",\"\",\"1-5\",\"4179\",\"38\",\"0\",\"Training\",\"Stims/Figures/111-J-10-3.bmp\",\"ma:lana\",\"Down\",\"40\",\"3\",\"8\",\"7\",\"S\",\"C\",\"40\"
\"\",\"\",\"approach-retreat\",\"44\",\"362996\",\"0.0-44.0\",\"\",\"\",\"1-5\",\"4278\",\"38\",\"1\",\"Training\",\"Stims/Figures/74-J-10-4.bmp\",\"na:lana\",\"Up\",\"38\",\"3\",\"9\",\"7\",\"S\",\"C\",\"41\"
\"\",\"\",\"approach-retreat\",\"45\",\"368772\",\"0.0-45.0\",\"\",\"\",\"1-5\",\"4264\",\"39\",\"1\",\"Training\",\"Stims/Figures/85-C-20-2.bmp\",\"taka:ta\",\"Left\",\"39\",\"3\",\"10\",\"7\",\"P\",\"C\",\"42\"
\"\",\"\",\"approach-retreat\",\"46\",\"374564\",\"0.0-46.0\",\"\",\"\",\"1-5\",\"4282\",\"40\",\"1\",\"Training\",\"Stims/Figures/85-J-0-2.bmp\",\"tapa:ka\",\"Down\",\"40\",\"3\",\"11\",\"7\",\"P\",\"C\",\"43\"
\"\",\"\",\"approach-retreat\",\"47\",\"380347\",\"0.0-47.0\",\"\",\"\",\"1-5\",\"4273\",\"37\",\"0\",\"Training\",\"Stims/Figures/87-C-20-4.bmp\",\"nala:la\",\"Left\",\"39\",\"3\",\"12\",\"7\",\"S\",\"C\",\"44\"
\"\",\"\",\"approach-retreat\",\"48\",\"386053\",\"0.0-48.0\",\"\",\"\",\"1-5\",\"4200\",\"39\",\"0\",\"Training\",\"Stims/Figures/118-C-20-2.bmp\",\"takaka\",\"Right\",\"37\",\"3\",\"13\",\"7\",\"P\",\"C\",\"45\"
\"\",\"\",\"approach-retreat\",\"49\",\"391780\",\"0.0-49.0\",\"\",\"\",\"1-5\",\"4218\",\"38\",\"1\",\"Training\",\"Stims/Figures/118-J-0-2.bmp\",\"ta:kata\",\"Up\",\"38\",\"3\",\"14\",\"7\",\"P\",\"C\",\"46\"
\"\",\"\",\"approach-retreat\",\"50\",\"397829\",\"0.0-50.0\",\"\",\"\",\"1-5\",\"4539\",\"37\",\"1\",\"Training\",\"Stims/Figures/86-C-30-1.bmp\",\"takata\",\"Right\",\"37\",\"3\",\"15\",\"7\",\"P\",\"C\",\"47\"
\"\",\"\",\"approach-retreat\",\"51\",\"403765\",\"0.0-51.0\",\"\",\"\",\"1-5\",\"4427\",\"40\",\"1\",\"Training\",\"Stims/Figures/111-C-30-3.bmp\",\"ma:ma:na\",\"Up\",\"40\",\"3\",\"16\",\"7\",\"S\",\"C\",\"48\"
\"\",\"\",\"approach-retreat\",\"52\",\"410284\",\"0.0-52.0\",\"\",\"\",\"1-5\",\"5010\",\"38\",\"1\",\"Training\",\"Stims/Figures/87-J-10-4.bmp\",\"na:lala\",\"Up\",\"38\",\"4\",\"1\",\"7\",\"S\",\"C\",\"49\"
\"\",\"\",\"approach-retreat\",\"53\",\"416355\",\"0.0-53.0\",\"\",\"\",\"1-5\",\"4567\",\"37\",\"1\",\"Training\",\"Stims/Figures/74-C-20-4.bmp\",\"mamala\",\"Right\",\"37\",\"4\",\"2\",\"7\",\"S\",\"C\",\"50\"
\"\",\"\",\"approach-retreat\",\"54\",\"421941\",\"0.0-54.0\",\"\",\"\",\"1-5\",\"4079\",\"38\",\"1\",\"Training\",\"Stims/Figures/85-C-20-2.bmp\",\"taka:ta\",\"Down\",\"38\",\"4\",\"3\",\"7\",\"P\",\"C\",\"51\"
\"\",\"\",\"approach-retreat\",\"55\",\"427596\",\"0.0-55.0\",\"\",\"\",\"1-5\",\"4146\",\"39\",\"1\",\"Training\",\"Stims/Figures/128-J-10-3.bmp\",\"mala:na\",\"Right\",\"39\",\"4\",\"4\",\"7\",\"S\",\"C\",\"52\"
\"\",\"\",\"approach-retreat\",\"56\",\"433531\",\"0.0-56.0\",\"\",\"\",\"1-5\",\"4425\",\"38\",\"1\",\"Training\",\"Stims/Figures/128-C-30-3.bmp\",\"mala:la\",\"Down\",\"38\",\"4\",\"5\",\"7\",\"S\",\"C\",\"53\"
\"\",\"\",\"approach-retreat\",\"57\",\"439580\",\"0.0-57.0\",\"\",\"\",\"1-5\",\"4539\",\"40\",\"1\",\"Training\",\"Stims/Figures/86-J-0-1.bmp\",\"pa:pa:ka\",\"Down\",\"40\",\"4\",\"6\",\"7\",\"P\",\"C\",\"54\"
\"\",\"\",\"approach-retreat\",\"58\",\"445116\",\"0.0-58.0\",\"\",\"\",\"1-5\",\"4027\",\"38\",\"1\",\"Training\",\"Stims/Figures/111-C-30-3.bmp\",\"ma:ma:na\",\"Down\",\"38\",\"4\",\"7\",\"7\",\"S\",\"C\",\"55\"
\"\",\"\",\"approach-retreat\",\"59\",\"450771\",\"0.0-59.0\",\"\",\"\",\"1-5\",\"4152\",\"38\",\"1\",\"Training\",\"Stims/Figures/74-J-10-4.bmp\",\"na:lana\",\"Up\",\"38\",\"4\",\"8\",\"7\",\"S\",\"C\",\"56\"
\"\",\"\",\"approach-retreat\",\"60\",\"456411\",\"0.0-60.0\",\"\",\"\",\"1-5\",\"4128\",\"38\",\"1\",\"Training\",\"Stims/Figures/118-J-0-2.bmp\",\"ta:kata\",\"Up\",\"38\",\"4\",\"9\",\"7\",\"P\",\"C\",\"57\"
\"\",\"\",\"approach-retreat\",\"61\",\"462100\",\"0.0-61.0\",\"\",\"\",\"1-5\",\"4179\",\"39\",\"1\",\"Training\",\"Stims/Figures/57-C-30-1.bmp\",\"papa:ta\",\"Left\",\"39\",\"4\",\"10\",\"7\",\"P\",\"C\",\"58\"
\"\",\"\",\"approach-retreat\",\"62\",\"468028\",\"0.0-62.0\",\"\",\"\",\"1-5\",\"4419\",\"40\",\"1\",\"Training\",\"Stims/Figures/87-C-20-4.bmp\",\"nala:la\",\"Up\",\"40\",\"4\",\"11\",\"7\",\"S\",\"C\",\"59\"
\"\",\"\",\"approach-retreat\",\"63\",\"473827\",\"0.0-63.0\",\"\",\"\",\"1-5\",\"4290\",\"39\",\"0\",\"Training\",\"Stims/Figures/118-C-20-2.bmp\",\"takaka\",\"Right\",\"37\",\"4\",\"12\",\"7\",\"P\",\"C\",\"60\"
\"\",\"\",\"approach-retreat\",\"64\",\"479981\",\"0.0-64.0\",\"\",\"\",\"1-5\",\"4644\",\"37\",\"1\",\"Training\",\"Stims/Figures/57-J-0-1.bmp\",\"ta:ka:ta\",\"Left\",\"37\",\"4\",\"13\",\"7\",\"P\",\"C\",\"61\"
\"\",\"\",\"approach-retreat\",\"65\",\"485562\",\"0.0-65.0\",\"\",\"\",\"1-5\",\"4069\",\"37\",\"1\",\"Training\",\"Stims/Figures/85-J-0-2.bmp\",\"tapa:ka\",\"Left\",\"37\",\"4\",\"14\",\"7\",\"P\",\"C\",\"62\"
\"\",\"\",\"approach-retreat\",\"66\",\"491292\",\"0.0-66.0\",\"\",\"\",\"1-5\",\"4226\",\"37\",\"1\",\"Training\",\"Stims/Figures/86-C-30-1.bmp\",\"takata\",\"Right\",\"37\",\"4\",\"15\",\"7\",\"P\",\"C\",\"63\"
\"\",\"\",\"approach-retreat\",\"67\",\"497452\",\"0.0-67.0\",\"\",\"\",\"1-5\",\"4650\",\"37\",\"1\",\"Training\",\"Stims/Figures/111-J-10-3.bmp\",\"ma:lana\",\"Left\",\"37\",\"4\",\"16\",\"7\",\"S\",\"C\",\"64\"
\"\",\"\",\"approach-retreat\",\"68\",\"502980\",\"0.0-68.0\",\"\",\"\",\"1-5\",\"4019\",\"37\",\"1\",\"Training\",\"Stims/Figures/74-J-10-4.bmp\",\"na:lana\",\"Left\",\"37\",\"5\",\"1\",\"7\",\"S\",\"C\",\"65\"
\"\",\"\",\"approach-retreat\",\"69\",\"508668\",\"0.0-69.0\",\"\",\"\",\"1-5\",\"4179\",\"37\",\"1\",\"Training\",\"Stims/Figures/128-C-30-3.bmp\",\"mala:la\",\"Right\",\"37\",\"5\",\"2\",\"7\",\"S\",\"C\",\"66\"
\"\",\"\",\"approach-retreat\",\"70\",\"514437\",\"0.0-70.0\",\"\",\"\",\"1-5\",\"4259\",\"40\",\"1\",\"Training\",\"Stims/Figures/128-J-10-3.bmp\",\"mala:na\",\"Down\",\"40\",\"5\",\"3\",\"7\",\"S\",\"C\",\"67\"
\"\",\"\",\"approach-retreat\",\"71\",\"520428\",\"0.0-71.0\",\"\",\"\",\"1-5\",\"4480\",\"40\",\"1\",\"Training\",\"Stims/Figures/118-J-0-2.bmp\",\"ta:kata\",\"Down\",\"40\",\"5\",\"4\",\"7\",\"P\",\"C\",\"68\"
\"\",\"\",\"approach-retreat\",\"72\",\"526141\",\"0.0-72.0\",\"\",\"\",\"1-5\",\"4203\",\"40\",\"0\",\"Training\",\"Stims/Figures/87-J-10-4.bmp\",\"na:lala\",\"Up\",\"38\",\"5\",\"5\",\"7\",\"S\",\"C\",\"69\"
\"\",\"\",\"approach-retreat\",\"73\",\"531810\",\"0.0-73.0\",\"\",\"\",\"1-5\",\"4159\",\"38\",\"1\",\"Training\",\"Stims/Figures/85-C-20-2.bmp\",\"taka:ta\",\"Down\",\"38\",\"5\",\"6\",\"7\",\"P\",\"C\",\"70\"
\"\",\"\",\"approach-retreat\",\"74\",\"537715\",\"0.0-74.0\",\"\",\"\",\"1-5\",\"4394\",\"39\",\"0\",\"Training\",\"Stims/Figures/74-C-20-4.bmp\",\"mamala\",\"Right\",\"37\",\"5\",\"7\",\"7\",\"S\",\"C\",\"71\"
\"\",\"\",\"approach-retreat\",\"75\",\"543444\",\"0.0-75.0\",\"\",\"\",\"1-5\",\"4220\",\"38\",\"1\",\"Training\",\"Stims/Figures/87-C-20-4.bmp\",\"nala:la\",\"Down\",\"38\",\"5\",\"8\",\"7\",\"S\",\"C\",\"72\"
\"\",\"\",\"approach-retreat\",\"76\",\"549100\",\"0.0-76.0\",\"\",\"\",\"1-5\",\"4139\",\"40\",\"1\",\"Training\",\"Stims/Figures/57-C-30-1.bmp\",\"papa:ta\",\"Up\",\"40\",\"5\",\"9\",\"7\",\"P\",\"C\",\"73\"
\"\",\"\",\"approach-retreat\",\"77\",\"554909\",\"0.0-77.0\",\"\",\"\",\"1-5\",\"4305\",\"37\",\"1\",\"Training\",\"Stims/Figures/85-J-0-2.bmp\",\"tapa:ka\",\"Left\",\"37\",\"5\",\"10\",\"7\",\"P\",\"C\",\"74\"
\"\",\"\",\"approach-retreat\",\"78\",\"560829\",\"0.0-78.0\",\"\",\"\",\"1-5\",\"4413\",\"39\",\"0\",\"Training\",\"Stims/Figures/118-C-20-2.bmp\",\"takaka\",\"Right\",\"37\",\"5\",\"11\",\"7\",\"P\",\"C\",\"75\"
\"\",\"\",\"approach-retreat\",\"79\",\"566506\",\"0.0-79.0\",\"\",\"\",\"1-5\",\"4169\",\"37\",\"1\",\"Training\",\"Stims/Figures/111-C-30-3.bmp\",\"ma:ma:na\",\"Right\",\"37\",\"5\",\"12\",\"7\",\"S\",\"C\",\"76\"
\"\",\"\",\"approach-retreat\",\"80\",\"572013\",\"0.0-80.0\",\"\",\"\",\"1-5\",\"3995\",\"37\",\"1\",\"Training\",\"Stims/Figures/111-J-10-3.bmp\",\"ma:lana\",\"Left\",\"37\",\"5\",\"13\",\"7\",\"S\",\"C\",\"77\"
\"\",\"\",\"approach-retreat\",\"81\",\"577452\",\"0.0-81.0\",\"\",\"\",\"1-5\",\"3930\",\"39\",\"1\",\"Training\",\"Stims/Figures/86-C-30-1.bmp\",\"takata\",\"Left\",\"39\",\"5\",\"14\",\"7\",\"P\",\"C\",\"78\"
\"\",\"\",\"approach-retreat\",\"82\",\"583109\",\"0.0-82.0\",\"\",\"\",\"1-5\",\"4147\",\"38\",\"1\",\"Training\",\"Stims/Figures/86-J-0-1.bmp\",\"pa:pa:ka\",\"Up\",\"38\",\"5\",\"15\",\"7\",\"P\",\"C\",\"79\"
\"\",\"\",\"approach-retreat\",\"83\",\"588635\",\"0.0-83.0\",\"\",\"\",\"1-5\",\"4017\",\"38\",\"1\",\"Training\",\"Stims/Figures/57-J-0-1.bmp\",\"ta:ka:ta\",\"Up\",\"38\",\"5\",\"16\",\"7\",\"P\",\"C\",\"80\"
\"\",\"\",\"approach-retreat\",\"84\",\"594236\",\"0.0-84.0\",\"\",\"\",\"1-5\",\"4090\",\"39\",\"1\",\"Training\",\"Stims/Figures/74-J-10-4.bmp\",\"na:lana\",\"Right\",\"39\",\"6\",\"1\",\"7\",\"S\",\"C\",\"81\"
\"\",\"\",\"approach-retreat\",\"85\",\"599730\",\"0.0-85.0\",\"\",\"\",\"1-5\",\"3981\",\"37\",\"1\",\"Training\",\"Stims/Figures/85-J-0-2.bmp\",\"tapa:ka\",\"Left\",\"37\",\"6\",\"2\",\"7\",\"P\",\"C\",\"82\"
\"\",\"\",\"approach-retreat\",\"86\",\"605660\",\"0.0-86.0\",\"\",\"\",\"1-5\",\"4422\",\"37\",\"0\",\"Training\",\"Stims/Figures/87-J-10-4.bmp\",\"na:lala\",\"Right\",\"39\",\"6\",\"3\",\"7\",\"S\",\"C\",\"83\"
\"\",\"\",\"approach-retreat\",\"87\",\"611387\",\"0.0-87.0\",\"\",\"\",\"1-5\",\"4217\",\"39\",\"0\",\"Training\",\"Stims/Figures/128-J-10-3.bmp\",\"mala:na\",\"Left\",\"37\",\"6\",\"4\",\"7\",\"S\",\"C\",\"84\"
\"\",\"\",\"approach-retreat\",\"88\",\"616804\",\"0.0-88.0\",\"\",\"\",\"1-5\",\"3907\",\"38\",\"1\",\"Training\",\"Stims/Figures/86-J-0-1.bmp\",\"pa:pa:ka\",\"Up\",\"38\",\"6\",\"5\",\"7\",\"P\",\"C\",\"85\"
\"\",\"\",\"approach-retreat\",\"89\",\"622275\",\"0.0-89.0\",\"\",\"\",\"1-5\",\"3963\",\"40\",\"1\",\"Training\",\"Stims/Figures/57-J-0-1.bmp\",\"ta:ka:ta\",\"Down\",\"40\",\"6\",\"6\",\"7\",\"P\",\"C\",\"86\"
\"\",\"\",\"approach-retreat\",\"90\",\"627756\",\"0.0-90.0\",\"\",\"\",\"1-5\",\"3972\",\"40\",\"0\",\"Training\",\"Stims/Figures/118-C-20-2.bmp\",\"takaka\",\"Down\",\"38\",\"6\",\"7\",\"7\",\"P\",\"C\",\"87\"
\"\",\"\",\"approach-retreat\",\"91\",\"633676\",\"0.0-91.0\",\"\",\"\",\"1-5\",\"4411\",\"40\",\"1\",\"Training\",\"Stims/Figures/57-C-30-1.bmp\",\"papa:ta\",\"Up\",\"40\",\"6\",\"8\",\"7\",\"P\",\"C\",\"88\"
\"\",\"\",\"approach-retreat\",\"92\",\"639284\",\"0.0-92.0\",\"\",\"\",\"1-5\",\"4098\",\"40\",\"1\",\"Training\",\"Stims/Figures/86-C-30-1.bmp\",\"takata\",\"Up\",\"40\",\"6\",\"9\",\"7\",\"P\",\"C\",\"89\"
\"\",\"\",\"approach-retreat\",\"93\",\"645028\",\"0.0-93.0\",\"\",\"\",\"1-5\",\"4231\",\"39\",\"1\",\"Training\",\"Stims/Figures/128-C-30-3.bmp\",\"mala:la\",\"Left\",\"39\",\"6\",\"10\",\"7\",\"S\",\"C\",\"90\"
\"\",\"\",\"approach-retreat\",\"94\",\"650572\",\"0.0-94.0\",\"\",\"\",\"1-5\",\"4036\",\"39\",\"1\",\"Training\",\"Stims/Figures/111-C-30-3.bmp\",\"ma:ma:na\",\"Left\",\"39\",\"6\",\"11\",\"7\",\"S\",\"C\",\"91\"
\"\",\"\",\"approach-retreat\",\"95\",\"656219\",\"0.0-95.0\",\"\",\"\",\"1-5\",\"4138\",\"37\",\"1\",\"Training\",\"Stims/Figures/87-C-20-4.bmp\",\"nala:la\",\"Right\",\"37\",\"6\",\"12\",\"7\",\"S\",\"C\",\"92\"
\"\",\"\",\"approach-retreat\",\"96\",\"661709\",\"0.0-96.0\",\"\",\"\",\"1-5\",\"3980\",\"38\",\"1\",\"Training\",\"Stims/Figures/85-C-20-2.bmp\",\"taka:ta\",\"Down\",\"38\",\"6\",\"13\",\"7\",\"P\",\"C\",\"93\"
\"\",\"\",\"approach-retreat\",\"97\",\"667340\",\"0.0-97.0\",\"\",\"\",\"1-5\",\"4128\",\"40\",\"1\",\"Training\",\"Stims/Figures/74-C-20-4.bmp\",\"mamala\",\"Up\",\"40\",\"6\",\"14\",\"7\",\"S\",\"C\",\"94\"
\"\",\"\",\"approach-retreat\",\"98\",\"672772\",\"0.0-98.0\",\"\",\"\",\"1-5\",\"3921\",\"40\",\"1\",\"Training\",\"Stims/Figures/118-J-0-2.bmp\",\"ta:kata\",\"Down\",\"40\",\"6\",\"15\",\"7\",\"P\",\"C\",\"95\"
\"\",\"\",\"approach-retreat\",\"99\",\"678267\",\"0.0-99.0\",\"\",\"\",\"1-5\",\"3985\",\"39\",\"1\",\"Training\",\"Stims/Figures/111-J-10-3.bmp\",\"ma:lana\",\"Right\",\"39\",\"6\",\"16\",\"7\",\"S\",\"C\",\"96\"
\"\",\"\",\"approach-retreat\",\"100\",\"683749\",\"0.0-100.0\",\"\",\"\",\"1-5\",\"3971\",\"37\",\"1\",\"Training\",\"Stims/Figures/87-C-20-4.bmp\",\"nala:la\",\"Right\",\"37\",\"7\",\"1\",\"7\",\"S\",\"C\",\"97\"
\"\",\"\",\"approach-retreat\",\"101\",\"689212\",\"0.0-101.0\",\"\",\"\",\"1-5\",\"3952\",\"38\",\"1\",\"Training\",\"Stims/Figures/74-C-20-4.bmp\",\"mamala\",\"Down\",\"38\",\"7\",\"2\",\"7\",\"S\",\"C\",\"98\"
\"\",\"\",\"approach-retreat\",\"102\",\"694620\",\"0.0-102.0\",\"\",\"\",\"1-5\",\"3899\",\"38\",\"1\",\"Training\",\"Stims/Figures/118-J-0-2.bmp\",\"ta:kata\",\"Up\",\"38\",\"7\",\"3\",\"7\",\"P\",\"C\",\"99\"
\"\",\"\",\"approach-retreat\",\"103\",\"700076\",\"0.0-103.0\",\"\",\"\",\"1-5\",\"3946\",\"39\",\"1\",\"Training\",\"Stims/Figures/111-J-10-3.bmp\",\"ma:lana\",\"Right\",\"39\",\"7\",\"4\",\"7\",\"S\",\"C\",\"100\"
\"\",\"\",\"approach-retreat\",\"104\",\"705516\",\"0.0-104.0\",\"\",\"\",\"1-5\",\"3936\",\"37\",\"1\",\"Training\",\"Stims/Figures/87-J-10-4.bmp\",\"na:lala\",\"Left\",\"37\",\"7\",\"5\",\"7\",\"S\",\"C\",\"101\"
\"\",\"\",\"approach-retreat\",\"105\",\"710891\",\"0.0-105.0\",\"\",\"\",\"1-5\",\"3864\",\"39\",\"1\",\"Training\",\"Stims/Figures/74-J-10-4.bmp\",\"na:lana\",\"Right\",\"39\",\"7\",\"6\",\"7\",\"S\",\"C\",\"102\"
\"\",\"\",\"approach-retreat\",\"106\",\"716380\",\"0.0-106.0\",\"\",\"\",\"1-5\",\"3983\",\"38\",\"0\",\"Training\",\"Stims/Figures/85-C-20-2.bmp\",\"taka:ta\",\"Up\",\"40\",\"7\",\"7\",\"7\",\"P\",\"C\",\"103\"
\"\",\"\",\"approach-retreat\",\"107\",\"721884\",\"0.0-107.0\",\"\",\"\",\"1-5\",\"3994\",\"39\",\"1\",\"Training\",\"Stims/Figures/111-C-30-3.bmp\",\"ma:ma:na\",\"Left\",\"39\",\"7\",\"8\",\"7\",\"S\",\"C\",\"104\"
\"\",\"\",\"approach-retreat\",\"108\",\"727421\",\"0.0-108.0\",\"\",\"\",\"1-5\",\"4030\",\"39\",\"0\",\"Training\",\"Stims/Figures/86-C-30-1.bmp\",\"takata\",\"Right\",\"37\",\"7\",\"9\",\"7\",\"P\",\"C\",\"105\"
\"\",\"\",\"approach-retreat\",\"109\",\"733148\",\"0.0-109.0\",\"\",\"\",\"1-5\",\"4216\",\"39\",\"1\",\"Training\",\"Stims/Figures/128-C-30-3.bmp\",\"mala:la\",\"Left\",\"39\",\"7\",\"10\",\"7\",\"S\",\"C\",\"106\"
\"\",\"\",\"approach-retreat\",\"110\",\"738693\",\"0.0-110.0\",\"\",\"\",\"1-5\",\"4034\",\"40\",\"1\",\"Training\",\"Stims/Figures/86-J-0-1.bmp\",\"pa:pa:ka\",\"Down\",\"40\",\"7\",\"11\",\"7\",\"P\",\"C\",\"107\"
\"\",\"\",\"approach-retreat\",\"111\",\"744140\",\"0.0-111.0\",\"\",\"\",\"1-5\",\"3937\",\"40\",\"0\",\"Training\",\"Stims/Figures/118-C-20-2.bmp\",\"takaka\",\"Down\",\"38\",\"7\",\"12\",\"7\",\"P\",\"C\",\"108\"
\"\",\"\",\"approach-retreat\",\"112\",\"749622\",\"0.0-112.0\",\"\",\"\",\"1-5\",\"3967\",\"40\",\"1\",\"Training\",\"Stims/Figures/57-C-30-1.bmp\",\"papa:ta\",\"Up\",\"40\",\"7\",\"13\",\"7\",\"P\",\"C\",\"109\"
\"\",\"\",\"approach-retreat\",\"113\",\"755066\",\"0.0-113.0\",\"\",\"\",\"1-5\",\"3939\",\"40\",\"1\",\"Training\",\"Stims/Figures/85-J-0-2.bmp\",\"tapa:ka\",\"Down\",\"40\",\"7\",\"14\",\"7\",\"P\",\"C\",\"110\"
\"\",\"\",\"approach-retreat\",\"114\",\"760635\",\"0.0-114.0\",\"\",\"\",\"1-5\",\"4059\",\"38\",\"1\",\"Training\",\"Stims/Figures/128-J-10-3.bmp\",\"mala:na\",\"Up\",\"38\",\"7\",\"15\",\"7\",\"S\",\"C\",\"111\"
\"\",\"\",\"approach-retreat\",\"115\",\"766163\",\"0.0-115.0\",\"\",\"\",\"1-5\",\"4019\",\"37\",\"1\",\"Training\",\"Stims/Figures/57-J-0-1.bmp\",\"ta:ka:ta\",\"Left\",\"37\",\"7\",\"16\",\"7\",\"P\",\"C\",\"112\"
\"\",\"\",\"approach-retreat\",\"116\",\"771619\",\"0.0-116.0\",\"\",\"\",\"1-5\",\"3945\",\"38\",\"1\",\"Training\",\"Stims/Figures/128-C-30-3.bmp\",\"mala:la\",\"Down\",\"38\",\"8\",\"1\",\"7\",\"S\",\"C\",\"113\"
\"\",\"\",\"approach-retreat\",\"117\",\"776971\",\"0.0-117.0\",\"\",\"\",\"1-5\",\"3849\",\"37\",\"1\",\"Training\",\"Stims/Figures/86-J-0-1.bmp\",\"pa:pa:ka\",\"Left\",\"37\",\"8\",\"2\",\"7\",\"P\",\"C\",\"114\"
\"\",\"\",\"approach-retreat\",\"118\",\"782429\",\"0.0-118.0\",\"\",\"\",\"1-5\",\"3948\",\"39\",\"1\",\"Training\",\"Stims/Figures/87-C-20-4.bmp\",\"nala:la\",\"Left\",\"39\",\"8\",\"3\",\"7\",\"S\",\"C\",\"115\"
\"\",\"\",\"approach-retreat\",\"119\",\"787852\",\"0.0-119.0\",\"\",\"\",\"1-5\",\"3914\",\"40\",\"1\",\"Training\",\"Stims/Figures/74-J-10-4.bmp\",\"na:lana\",\"Down\",\"40\",\"8\",\"4\",\"7\",\"S\",\"C\",\"116\"
\"\",\"\",\"approach-retreat\",\"120\",\"793524\",\"0.0-120.0\",\"\",\"\",\"1-5\",\"4160\",\"39\",\"1\",\"Training\",\"Stims/Figures/128-J-10-3.bmp\",\"mala:na\",\"Right\",\"39\",\"8\",\"5\",\"7\",\"S\",\"C\",\"117\"
\"\",\"\",\"approach-retreat\",\"121\",\"799548\",\"0.0-121.0\",\"\",\"\",\"1-5\",\"4514\",\"37\",\"1\",\"Training\",\"Stims/Figures/118-C-20-2.bmp\",\"takaka\",\"Right\",\"37\",\"8\",\"6\",\"7\",\"P\",\"C\",\"118\"
\"\",\"\",\"approach-retreat\",\"122\",\"805605\",\"0.0-122.0\",\"\",\"\",\"1-5\",\"4548\",\"40\",\"1\",\"Training\",\"Stims/Figures/111-C-30-3.bmp\",\"ma:ma:na\",\"Up\",\"40\",\"8\",\"7\",\"7\",\"S\",\"C\",\"119\"
\"\",\"\",\"approach-retreat\",\"123\",\"811123\",\"0.0-123.0\",\"\",\"\",\"1-5\",\"4009\",\"39\",\"1\",\"Training\",\"Stims/Figures/87-J-10-4.bmp\",\"na:lala\",\"Right\",\"39\",\"8\",\"8\",\"7\",\"S\",\"C\",\"120\"
\"\",\"\",\"approach-retreat\",\"124\",\"816650\",\"0.0-124.0\",\"\",\"\",\"1-5\",\"4016\",\"40\",\"1\",\"Training\",\"Stims/Figures/57-J-0-1.bmp\",\"ta:ka:ta\",\"Down\",\"40\",\"8\",\"9\",\"7\",\"P\",\"C\",\"121\"
\"\",\"\",\"approach-retreat\",\"125\",\"822099\",\"0.0-125.0\",\"\",\"\",\"1-5\",\"3941\",\"38\",\"1\",\"Training\",\"Stims/Figures/85-C-20-2.bmp\",\"taka:ta\",\"Down\",\"38\",\"8\",\"10\",\"7\",\"P\",\"C\",\"122\"
\"\",\"\",\"approach-retreat\",\"126\",\"827622\",\"0.0-126.0\",\"\",\"\",\"1-5\",\"4011\",\"40\",\"1\",\"Training\",\"Stims/Figures/74-C-20-4.bmp\",\"mamala\",\"Up\",\"40\",\"8\",\"11\",\"7\",\"S\",\"C\",\"123\"
\"\",\"\",\"approach-retreat\",\"127\",\"833819\",\"0.0-127.0\",\"\",\"\",\"1-5\",\"4688\",\"38\",\"1\",\"Training\",\"Stims/Figures/111-J-10-3.bmp\",\"ma:lana\",\"Up\",\"38\",\"8\",\"12\",\"7\",\"S\",\"C\",\"124\"
\"\",\"\",\"approach-retreat\",\"128\",\"839228\",\"0.0-128.0\",\"\",\"\",\"1-5\",\"3907\",\"37\",\"1\",\"Training\",\"Stims/Figures/85-J-0-2.bmp\",\"tapa:ka\",\"Left\",\"37\",\"8\",\"13\",\"7\",\"P\",\"C\",\"125\"
\"\",\"\",\"approach-retreat\",\"129\",\"844676\",\"0.0-129.0\",\"\",\"\",\"1-5\",\"3944\",\"38\",\"1\",\"Training\",\"Stims/Figures/118-J-0-2.bmp\",\"ta:kata\",\"Up\",\"38\",\"8\",\"14\",\"7\",\"P\",\"C\",\"126\"
\"\",\"\",\"approach-retreat\",\"130\",\"850245\",\"0.0-130.0\",\"\",\"\",\"1-5\",\"4060\",\"39\",\"1\",\"Training\",\"Stims/Figures/86-C-30-1.bmp\",\"takata\",\"Left\",\"39\",\"8\",\"15\",\"7\",\"P\",\"C\",\"127\"
\"\",\"\",\"approach-retreat\",\"131\",\"855660\",\"0.0-131.0\",\"\",\"\",\"1-5\",\"3906\",\"37\",\"1\",\"Training\",\"Stims/Figures/57-C-30-1.bmp\",\"papa:ta\",\"Right\",\"37\",\"8\",\"16\",\"7\",\"P\",\"C\",\"128\"
\"\",\"\",\"approach-retreat\",\"132\",\"861109\",\"0.0-132.0\",\"\",\"\",\"1-5\",\"3943\",\"40\",\"1\",\"Training\",\"Stims/Figures/57-J-0-1.bmp\",\"ta:ka:ta\",\"Down\",\"40\",\"9\",\"1\",\"7\",\"P\",\"C\",\"129\"
\"\",\"\",\"approach-retreat\",\"133\",\"866675\",\"0.0-133.0\",\"\",\"\",\"1-5\",\"4055\",\"38\",\"1\",\"Training\",\"Stims/Figures/74-J-10-4.bmp\",\"na:lana\",\"Up\",\"38\",\"9\",\"2\",\"7\",\"S\",\"C\",\"130\"
\"\",\"\",\"approach-retreat\",\"134\",\"872860\",\"0.0-134.0\",\"\",\"\",\"1-5\",\"4676\",\"37\",\"1\",\"Training\",\"Stims/Figures/128-C-30-3.bmp\",\"mala:la\",\"Right\",\"37\",\"9\",\"3\",\"7\",\"S\",\"C\",\"131\"
\"\",\"\",\"approach-retreat\",\"135\",\"878452\",\"0.0-135.0\",\"\",\"\",\"1-5\",\"4080\",\"39\",\"1\",\"Training\",\"Stims/Figures/118-J-0-2.bmp\",\"ta:kata\",\"Right\",\"39\",\"9\",\"4\",\"7\",\"P\",\"C\",\"132\"
\"\",\"\",\"approach-retreat\",\"136\",\"883996\",\"0.0-136.0\",\"\",\"\",\"1-5\",\"4035\",\"39\",\"1\",\"Training\",\"Stims/Figures/85-J-0-2.bmp\",\"tapa:ka\",\"Right\",\"39\",\"9\",\"5\",\"7\",\"P\",\"C\",\"133\"
\"\",\"\",\"approach-retreat\",\"137\",\"889532\",\"0.0-137.0\",\"\",\"\",\"1-5\",\"4025\",\"40\",\"1\",\"Training\",\"Stims/Figures/87-C-20-4.bmp\",\"nala:la\",\"Up\",\"40\",\"9\",\"6\",\"7\",\"S\",\"C\",\"134\"
\"\",\"\",\"approach-retreat\",\"138\",\"895101\",\"0.0-138.0\",\"\",\"\",\"1-5\",\"4060\",\"39\",\"0\",\"Training\",\"Stims/Figures/87-J-10-4.bmp\",\"na:lala\",\"Left\",\"37\",\"9\",\"7\",\"7\",\"S\",\"C\",\"135\"
\"\",\"\",\"approach-retreat\",\"139\",\"900682\",\"0.0-139.0\",\"\",\"\",\"1-5\",\"4073\",\"39\",\"1\",\"Training\",\"Stims/Figures/118-C-20-2.bmp\",\"takaka\",\"Left\",\"39\",\"9\",\"8\",\"7\",\"P\",\"C\",\"136\"
\"\",\"\",\"approach-retreat\",\"140\",\"906156\",\"0.0-140.0\",\"\",\"\",\"1-5\",\"3964\",\"38\",\"1\",\"Training\",\"Stims/Figures/111-C-30-3.bmp\",\"ma:ma:na\",\"Down\",\"38\",\"9\",\"9\",\"7\",\"S\",\"C\",\"137\"
\"\",\"\",\"approach-retreat\",\"141\",\"911500\",\"0.0-141.0\",\"\",\"\",\"1-5\",\"3835\",\"37\",\"1\",\"Training\",\"Stims/Figures/86-J-0-1.bmp\",\"pa:pa:ka\",\"Left\",\"37\",\"9\",\"10\",\"7\",\"P\",\"C\",\"138\"
\"\",\"\",\"approach-retreat\",\"142\",\"917214\",\"0.0-142.0\",\"\",\"\",\"1-5\",\"4208\",\"40\",\"1\",\"Training\",\"Stims/Figures/57-C-30-1.bmp\",\"papa:ta\",\"Up\",\"40\",\"9\",\"11\",\"7\",\"P\",\"C\",\"139\"
\"\",\"\",\"approach-retreat\",\"143\",\"922910\",\"0.0-143.0\",\"\",\"\",\"1-5\",\"4187\",\"38\",\"1\",\"Training\",\"Stims/Figures/128-J-10-3.bmp\",\"mala:na\",\"Up\",\"38\",\"9\",\"12\",\"7\",\"S\",\"C\",\"140\"
\"\",\"\",\"approach-retreat\",\"144\",\"928349\",\"0.0-144.0\",\"\",\"\",\"1-5\",\"3934\",\"40\",\"1\",\"Training\",\"Stims/Figures/111-J-10-3.bmp\",\"ma:lana\",\"Down\",\"40\",\"9\",\"13\",\"7\",\"S\",\"C\",\"141\"
\"\",\"\",\"approach-retreat\",\"145\",\"933739\",\"0.0-145.0\",\"\",\"\",\"1-5\",\"3881\",\"39\",\"1\",\"Training\",\"Stims/Figures/85-C-20-2.bmp\",\"taka:ta\",\"Left\",\"39\",\"9\",\"14\",\"7\",\"P\",\"C\",\"142\"
\"\",\"\",\"approach-retreat\",\"146\",\"939187\",\"0.0-146.0\",\"\",\"\",\"1-5\",\"3939\",\"38\",\"1\",\"Training\",\"Stims/Figures/86-C-30-1.bmp\",\"takata\",\"Down\",\"38\",\"9\",\"15\",\"7\",\"P\",\"C\",\"143\"
\"\",\"\",\"approach-retreat\",\"147\",\"944677\",\"0.0-147.0\",\"\",\"\",\"1-5\",\"3981\",\"37\",\"1\",\"Training\",\"Stims/Figures/74-C-20-4.bmp\",\"mamala\",\"Right\",\"37\",\"9\",\"16\",\"7\",\"S\",\"C\",\"144\"
\"13531\",\"\",\"instructions\",\"148\",\"958209\",\"0.0-148.0\",\"[{\"\"page_index\"\":0,\"\"viewing_time\"\":13531}]\",\"\",\"\",\"\",\"\",\"\",\"\",\"\",\"\",\"\",\"\",\"\",\"\",\"\",\"\",\"\",\"\"
\"\",\"\",\"approach-retreat\",\"149\",\"963748\",\"0.0-149.0\",\"\",\"\",\"1-5\",\"4031\",\"38\",\"1\",\"Testing\",\"Stims/Figures/94-J-0-2.bmp\",\"ta:pa:ta\",\"Up\",\"38\",\"1\",\"1\",\"7\",\"P\",\"C\",\"1\"
\"\",\"\",\"approach-retreat\",\"150\",\"969324\",\"0.0-150.0\",\"\",\"\",\"1-5\",\"4067\",\"38\",\"0\",\"Testing\",\"Stims/Figures/74-C-20-4.bmp\",\"mamala\",\"Up\",\"40\",\"1\",\"2\",\"7\",\"S\",\"C\",\"2\"
\"\",\"\",\"approach-retreat\",\"151\",\"975110\",\"0.0-151.0\",\"\",\"\",\"1-5\",\"4276\",\"38\",\"1\",\"Testing\",\"Stims/Figures/94-C-20-2.bmp\",\"pa:ka:ka\",\"Down\",\"38\",\"1\",\"3\",\"7\",\"P\",\"C\",\"3\"
\"\",\"\",\"approach-retreat\",\"152\",\"980761\",\"0.0-152.0\",\"\",\"\",\"1-5\",\"4144\",\"40\",\"0\",\"Testing\",\"Stims/Figures/118-C-20-2.bmp\",\"takaka\",\"Down\",\"38\",\"1\",\"4\",\"7\",\"P\",\"C\",\"4\"
\"\",\"\",\"approach-retreat\",\"153\",\"986389\",\"0.0-153.0\",\"\",\"\",\"1-5\",\"4119\",\"37\",\"1\",\"Testing\",\"Stims/Figures/111-C-30-3.bmp\",\"ma:ma:na\",\"Right\",\"37\",\"1\",\"5\",\"7\",\"S\",\"C\",\"5\"
\"\",\"\",\"approach-retreat\",\"154\",\"993066\",\"0.0-154.0\",\"\",\"\",\"1-5\",\"5168\",\"38\",\"0\",\"Testing\",\"Stims/Figures/102-C-20-4.bmp\",\"nala:na\",\"Up\",\"40\",\"1\",\"6\",\"7\",\"S\",\"C\",\"6\"
\"\",\"\",\"approach-retreat\",\"155\",\"998484\",\"0.0-155.0\",\"\",\"\",\"1-5\",\"3910\",\"39\",\"1\",\"Testing\",\"Stims/Figures/86-J-0-1.bmp\",\"pa:pa:ka\",\"Right\",\"39\",\"1\",\"7\",\"7\",\"P\",\"C\",\"7\"
\"\",\"\",\"approach-retreat\",\"156\",\"1004354\",\"0.0-156.0\",\"\",\"\",\"1-5\",\"4364\",\"40\",\"1\",\"Testing\",\"Stims/Figures/128-J-10-3.bmp\",\"mala:na\",\"Down\",\"40\",\"1\",\"8\",\"7\",\"S\",\"C\",\"8\"
\"\",\"\",\"approach-retreat\",\"157\",\"1009876\",\"0.0-157.0\",\"\",\"\",\"1-5\",\"4014\",\"37\",\"1\",\"Testing\",\"Stims/Figures/111-J-10-3.bmp\",\"ma:lana\",\"Left\",\"37\",\"1\",\"9\",\"7\",\"S\",\"C\",\"9\"
\"\",\"\",\"approach-retreat\",\"158\",\"1015347\",\"0.0-158.0\",\"\",\"\",\"1-5\",\"3965\",\"37\",\"1\",\"Testing\",\"Stims/Figures/74-J-10-4.bmp\",\"na:lana\",\"Left\",\"37\",\"1\",\"10\",\"7\",\"S\",\"C\",\"10\"
\"\",\"\",\"approach-retreat\",\"159\",\"1020965\",\"0.0-159.0\",\"\",\"\",\"1-5\",\"4109\",\"39\",\"1\",\"Testing\",\"Stims/Figures/27-C-30-1.bmp\",\"pa:kata\",\"Left\",\"39\",\"1\",\"11\",\"7\",\"P\",\"C\",\"11\"
\"\",\"\",\"approach-retreat\",\"160\",\"1026539\",\"0.0-160.0\",\"\",\"\",\"1-5\",\"4060\",\"37\",\"1\",\"Testing\",\"Stims/Figures/87-C-20-4.bmp\",\"nala:la\",\"Right\",\"37\",\"1\",\"12\",\"7\",\"S\",\"C\",\"12\"
\"\",\"\",\"approach-retreat\",\"161\",\"1032004\",\"0.0-161.0\",\"\",\"\",\"1-5\",\"3956\",\"39\",\"1\",\"Testing\",\"Stims/Figures/85-J-0-2.bmp\",\"tapa:ka\",\"Right\",\"39\",\"1\",\"13\",\"7\",\"P\",\"C\",\"13\"
\"\",\"\",\"approach-retreat\",\"162\",\"1037427\",\"0.0-162.0\",\"\",\"\",\"1-5\",\"3913\",\"39\",\"1\",\"Testing\",\"Stims/Figures/27-J-0-1.bmp\",\"ta:pata\",\"Right\",\"39\",\"1\",\"14\",\"7\",\"P\",\"C\",\"14\"
\"\",\"\",\"approach-retreat\",\"163\",\"1043115\",\"0.0-163.0\",\"\",\"\",\"1-5\",\"4180\",\"40\",\"1\",\"Testing\",\"Stims/Figures/144-J-10-3.bmp\",\"malala\",\"Down\",\"40\",\"1\",\"15\",\"7\",\"S\",\"C\",\"15\"
\"\",\"\",\"approach-retreat\",\"164\",\"1048556\",\"0.0-164.0\",\"\",\"\",\"1-5\",\"3931\",\"38\",\"1\",\"Testing\",\"Stims/Figures/57-J-0-1.bmp\",\"ta:ka:ta\",\"Up\",\"38\",\"1\",\"16\",\"7\",\"P\",\"C\",\"16\"
\"\",\"\",\"approach-retreat\",\"165\",\"1053972\",\"0.0-165.0\",\"\",\"\",\"1-5\",\"3904\",\"37\",\"1\",\"Testing\",\"Stims/Figures/85-C-20-2.bmp\",\"taka:ta\",\"Right\",\"37\",\"1\",\"17\",\"7\",\"P\",\"C\",\"17\"
\"\",\"\",\"approach-retreat\",\"166\",\"1059947\",\"0.0-166.0\",\"\",\"\",\"1-5\",\"4468\",\"37\",\"1\",\"Testing\",\"Stims/Figures/87-J-10-4.bmp\",\"na:lala\",\"Left\",\"37\",\"1\",\"18\",\"7\",\"S\",\"C\",\"18\"
\"\",\"\",\"approach-retreat\",\"167\",\"1065859\",\"0.0-167.0\",\"\",\"\",\"1-5\",\"4396\",\"37\",\"1\",\"Testing\",\"Stims/Figures/102-J-10-4.bmp\",\"ma:mana\",\"Left\",\"37\",\"1\",\"19\",\"7\",\"S\",\"C\",\"19\"
\"\",\"\",\"approach-retreat\",\"168\",\"1071626\",\"0.0-168.0\",\"\",\"\",\"1-5\",\"4257\",\"38\",\"0\",\"Testing\",\"Stims/Figures/57-C-30-1.bmp\",\"papa:ta\",\"Up\",\"40\",\"1\",\"20\",\"7\",\"P\",\"C\",\"20\"
\"\",\"\",\"approach-retreat\",\"169\",\"1077621\",\"0.0-169.0\",\"\",\"\",\"1-5\",\"4492\",\"40\",\"1\",\"Testing\",\"Stims/Figures/128-C-30-3.bmp\",\"mala:la\",\"Up\",\"40\",\"1\",\"21\",\"7\",\"S\",\"C\",\"21\"
\"\",\"\",\"approach-retreat\",\"170\",\"1084020\",\"0.0-170.0\",\"\",\"\",\"1-5\",\"4888\",\"38\",\"1\",\"Testing\",\"Stims/Figures/144-C-30-3.bmp\",\"na:ma:la\",\"Down\",\"38\",\"1\",\"22\",\"7\",\"S\",\"C\",\"22\"
\"\",\"\",\"approach-retreat\",\"171\",\"1089772\",\"0.0-171.0\",\"\",\"\",\"1-5\",\"4244\",\"40\",\"1\",\"Testing\",\"Stims/Figures/118-J-0-2.bmp\",\"ta:kata\",\"Down\",\"40\",\"1\",\"23\",\"7\",\"P\",\"C\",\"23\"
\"\",\"\",\"approach-retreat\",\"172\",\"1095323\",\"0.0-172.0\",\"\",\"\",\"1-5\",\"4042\",\"39\",\"1\",\"Testing\",\"Stims/Figures/86-C-30-1.bmp\",\"takata\",\"Left\",\"39\",\"1\",\"24\",\"7\",\"P\",\"C\",\"24\"
\"\",\"\",\"approach-retreat\",\"173\",\"1100788\",\"0.0-173.0\",\"\",\"\",\"1-5\",\"3961\",\"37\",\"0\",\"Testing\",\"Stims/Figures/94-C-20-2.bmp\",\"pa:ka:ka\",\"Left\",\"39\",\"2\",\"1\",\"7\",\"P\",\"C\",\"25\"
\"\",\"\",\"approach-retreat\",\"174\",\"1106340\",\"0.0-174.0\",\"\",\"\",\"1-5\",\"4044\",\"37\",\"1\",\"Testing\",\"Stims/Figures/128-C-30-3.bmp\",\"mala:la\",\"Right\",\"37\",\"2\",\"2\",\"7\",\"S\",\"C\",\"26\"
\"\",\"\",\"approach-retreat\",\"175\",\"1112260\",\"0.0-175.0\",\"\",\"\",\"1-5\",\"4413\",\"40\",\"1\",\"Testing\",\"Stims/Figures/87-C-20-4.bmp\",\"nala:la\",\"Up\",\"40\",\"2\",\"3\",\"7\",\"S\",\"C\",\"27\"
\"\",\"\",\"approach-retreat\",\"176\",\"1117947\",\"0.0-176.0\",\"\",\"\",\"1-5\",\"4179\",\"38\",\"1\",\"Testing\",\"Stims/Figures/27-C-30-1.bmp\",\"pa:kata\",\"Down\",\"38\",\"2\",\"4\",\"7\",\"P\",\"C\",\"28\"
\"\",\"\",\"approach-retreat\",\"177\",\"1123860\",\"0.0-177.0\",\"\",\"\",\"1-5\",\"4404\",\"38\",\"1\",\"Testing\",\"Stims/Figures/94-J-0-2.bmp\",\"ta:pa:ta\",\"Up\",\"38\",\"2\",\"5\",\"7\",\"P\",\"C\",\"29\"
\"\",\"\",\"approach-retreat\",\"178\",\"1130452\",\"0.0-178.0\",\"\",\"\",\"1-5\",\"5083\",\"39\",\"1\",\"Testing\",\"Stims/Figures/111-C-30-3.bmp\",\"ma:ma:na\",\"Left\",\"39\",\"2\",\"6\",\"7\",\"S\",\"C\",\"30\"
\"\",\"\",\"approach-retreat\",\"179\",\"1136805\",\"0.0-179.0\",\"\",\"\",\"1-5\",\"4845\",\"38\",\"1\",\"Testing\",\"Stims/Figures/85-C-20-2.bmp\",\"taka:ta\",\"Down\",\"38\",\"2\",\"7\",\"7\",\"P\",\"C\",\"31\"
\"\",\"\",\"approach-retreat\",\"180\",\"1142259\",\"0.0-180.0\",\"\",\"\",\"1-5\",\"3946\",\"39\",\"1\",\"Testing\",\"Stims/Figures/27-J-0-1.bmp\",\"ta:pata\",\"Right\",\"39\",\"2\",\"8\",\"7\",\"P\",\"C\",\"32\"
\"\",\"\",\"approach-retreat\",\"181\",\"1147756\",\"0.0-181.0\",\"\",\"\",\"1-5\",\"3990\",\"40\",\"1\",\"Testing\",\"Stims/Figures/86-C-30-1.bmp\",\"takata\",\"Up\",\"40\",\"2\",\"9\",\"7\",\"P\",\"C\",\"33\"
\"\",\"\",\"approach-retreat\",\"182\",\"1153505\",\"0.0-182.0\",\"\",\"\",\"1-5\",\"4244\",\"39\",\"1\",\"Testing\",\"Stims/Figures/74-J-10-4.bmp\",\"na:lana\",\"Right\",\"39\",\"2\",\"10\",\"7\",\"S\",\"C\",\"34\"
\"\",\"\",\"approach-retreat\",\"183\",\"1159061\",\"0.0-183.0\",\"\",\"\",\"1-5\",\"4046\",\"38\",\"1\",\"Testing\",\"Stims/Figures/57-C-30-1.bmp\",\"papa:ta\",\"Down\",\"38\",\"2\",\"11\",\"7\",\"P\",\"C\",\"35\"
\"\",\"\",\"approach-retreat\",\"184\",\"1165298\",\"0.0-184.0\",\"\",\"\",\"1-5\",\"4731\",\"37\",\"1\",\"Testing\",\"Stims/Figures/111-J-10-3.bmp\",\"ma:lana\",\"Left\",\"37\",\"2\",\"12\",\"7\",\"S\",\"C\",\"36\"
\"\",\"\",\"approach-retreat\",\"185\",\"1171317\",\"0.0-185.0\",\"\",\"\",\"1-5\",\"4511\",\"40\",\"1\",\"Testing\",\"Stims/Figures/144-J-10-3.bmp\",\"malala\",\"Down\",\"40\",\"2\",\"13\",\"7\",\"S\",\"C\",\"37\"
\"\",\"\",\"approach-retreat\",\"186\",\"1177196\",\"0.0-186.0\",\"\",\"\",\"1-5\",\"4372\",\"38\",\"1\",\"Testing\",\"Stims/Figures/128-J-10-3.bmp\",\"mala:na\",\"Up\",\"38\",\"2\",\"14\",\"7\",\"S\",\"C\",\"38\"
\"\",\"\",\"approach-retreat\",\"187\",\"1182579\",\"0.0-187.0\",\"\",\"\",\"1-5\",\"3880\",\"37\",\"1\",\"Testing\",\"Stims/Figures/86-J-0-1.bmp\",\"pa:pa:ka\",\"Left\",\"37\",\"2\",\"15\",\"7\",\"P\",\"C\",\"39\"
\"\",\"\",\"approach-retreat\",\"188\",\"1187980\",\"0.0-188.0\",\"\",\"\",\"1-5\",\"3894\",\"37\",\"1\",\"Testing\",\"Stims/Figures/118-J-0-2.bmp\",\"ta:kata\",\"Left\",\"37\",\"2\",\"16\",\"7\",\"P\",\"C\",\"40\"
\"\",\"\",\"approach-retreat\",\"189\",\"1193397\",\"0.0-189.0\",\"\",\"\",\"1-5\",\"3908\",\"37\",\"1\",\"Testing\",\"Stims/Figures/144-C-30-3.bmp\",\"na:ma:la\",\"Right\",\"37\",\"2\",\"17\",\"7\",\"S\",\"C\",\"41\"
\"\",\"\",\"approach-retreat\",\"190\",\"1198955\",\"0.0-190.0\",\"\",\"\",\"1-5\",\"4049\",\"40\",\"1\",\"Testing\",\"Stims/Figures/74-C-20-4.bmp\",\"mamala\",\"Up\",\"40\",\"2\",\"18\",\"7\",\"S\",\"C\",\"42\"
\"\",\"\",\"approach-retreat\",\"191\",\"1204404\",\"0.0-191.0\",\"\",\"\",\"1-5\",\"3945\",\"39\",\"1\",\"Testing\",\"Stims/Figures/57-J-0-1.bmp\",\"ta:ka:ta\",\"Right\",\"39\",\"2\",\"19\",\"7\",\"P\",\"C\",\"43\"
\"\",\"\",\"approach-retreat\",\"192\",\"1209923\",\"0.0-192.0\",\"\",\"\",\"1-5\",\"4012\",\"39\",\"1\",\"Testing\",\"Stims/Figures/102-J-10-4.bmp\",\"ma:mana\",\"Right\",\"39\",\"2\",\"20\",\"7\",\"S\",\"C\",\"44\"
\"\",\"\",\"approach-retreat\",\"193\",\"1215492\",\"0.0-193.0\",\"\",\"\",\"1-5\",\"4061\",\"40\",\"1\",\"Testing\",\"Stims/Figures/85-J-0-2.bmp\",\"tapa:ka\",\"Down\",\"40\",\"2\",\"21\",\"7\",\"P\",\"C\",\"45\"
\"\",\"\",\"approach-retreat\",\"194\",\"1221067\",\"0.0-194.0\",\"\",\"\",\"1-5\",\"4067\",\"39\",\"1\",\"Testing\",\"Stims/Figures/102-C-20-4.bmp\",\"nala:na\",\"Left\",\"39\",\"2\",\"22\",\"7\",\"S\",\"C\",\"46\"
\"\",\"\",\"approach-retreat\",\"195\",\"1226700\",\"0.0-195.0\",\"\",\"\",\"1-5\",\"4123\",\"40\",\"0\",\"Testing\",\"Stims/Figures/87-J-10-4.bmp\",\"na:lala\",\"Up\",\"38\",\"2\",\"23\",\"7\",\"S\",\"C\",\"47\"
\"\",\"\",\"approach-retreat\",\"196\",\"1234107\",\"0.0-196.0\",\"\",\"\",\"1-5\",\"5898\",\"38\",\"1\",\"Testing\",\"Stims/Figures/118-C-20-2.bmp\",\"takaka\",\"Down\",\"38\",\"2\",\"24\",\"7\",\"P\",\"C\",\"48\"
\"\",\"\",\"approach-retreat\",\"197\",\"1239941\",\"0.0-197.0\",\"\",\"\",\"1-5\",\"4326\",\"40\",\"1\",\"Testing\",\"Stims/Figures/94-C-20-2.bmp\",\"pa:ka:ka\",\"Up\",\"40\",\"3\",\"1\",\"7\",\"P\",\"C\",\"49\"
\"\",\"\",\"approach-retreat\",\"198\",\"1245475\",\"0.0-198.0\",\"\",\"\",\"1-5\",\"4032\",\"40\",\"1\",\"Testing\",\"Stims/Figures/118-J-0-2.bmp\",\"ta:kata\",\"Down\",\"40\",\"3\",\"2\",\"7\",\"P\",\"C\",\"50\"
\"\",\"\",\"approach-retreat\",\"199\",\"1250989\",\"0.0-199.0\",\"\",\"\",\"1-5\",\"4006\",\"39\",\"1\",\"Testing\",\"Stims/Figures/128-J-10-3.bmp\",\"mala:na\",\"Right\",\"39\",\"3\",\"3\",\"7\",\"S\",\"C\",\"51\"
\"\",\"\",\"approach-retreat\",\"200\",\"1256404\",\"0.0-200.0\",\"\",\"\",\"1-5\",\"3907\",\"39\",\"1\",\"Testing\",\"Stims/Figures/128-C-30-3.bmp\",\"mala:la\",\"Left\",\"39\",\"3\",\"4\",\"7\",\"S\",\"C\",\"52\"
\"\",\"\",\"approach-retreat\",\"201\",\"1261835\",\"0.0-201.0\",\"\",\"\",\"1-5\",\"3925\",\"37\",\"0\",\"Testing\",\"Stims/Figures/27-C-30-1.bmp\",\"pa:kata\",\"Left\",\"39\",\"3\",\"5\",\"7\",\"P\",\"C\",\"53\"
\"\",\"\",\"approach-retreat\",\"202\",\"1267300\",\"0.0-202.0\",\"\",\"\",\"1-5\",\"3957\",\"38\",\"1\",\"Testing\",\"Stims/Figures/57-C-30-1.bmp\",\"papa:ta\",\"Down\",\"38\",\"3\",\"6\",\"7\",\"P\",\"C\",\"54\"
\"\",\"\",\"approach-retreat\",\"203\",\"1273581\",\"0.0-203.0\",\"\",\"\",\"1-5\",\"4770\",\"38\",\"1\",\"Testing\",\"Stims/Figures/87-C-20-4.bmp\",\"nala:la\",\"Down\",\"38\",\"3\",\"7\",\"7\",\"S\",\"C\",\"55\"
\"\",\"\",\"approach-retreat\",\"204\",\"1279867\",\"0.0-204.0\",\"\",\"\",\"1-5\",\"4776\",\"40\",\"1\",\"Testing\",\"Stims/Figures/86-C-30-1.bmp\",\"takata\",\"Up\",\"40\",\"3\",\"8\",\"7\",\"P\",\"C\",\"56\"
\"\",\"\",\"approach-retreat\",\"205\",\"1285909\",\"0.0-205.0\",\"\",\"\",\"1-5\",\"4530\",\"38\",\"1\",\"Testing\",\"Stims/Figures/85-C-20-2.bmp\",\"taka:ta\",\"Down\",\"38\",\"3\",\"9\",\"7\",\"P\",\"C\",\"57\"
\"\",\"\",\"approach-retreat\",\"206\",\"1291412\",\"0.0-206.0\",\"\",\"\",\"1-5\",\"3992\",\"38\",\"1\",\"Testing\",\"Stims/Figures/87-J-10-4.bmp\",\"na:lala\",\"Up\",\"38\",\"3\",\"10\",\"7\",\"S\",\"C\",\"58\"
\"\",\"\",\"approach-retreat\",\"207\",\"1296980\",\"0.0-207.0\",\"\",\"\",\"1-5\",\"4060\",\"40\",\"0\",\"Testing\",\"Stims/Figures/118-C-20-2.bmp\",\"takaka\",\"Down\",\"38\",\"3\",\"11\",\"7\",\"P\",\"C\",\"59\"
\"\",\"\",\"approach-retreat\",\"208\",\"1302883\",\"0.0-208.0\",\"\",\"\",\"1-5\",\"4396\",\"37\",\"1\",\"Testing\",\"Stims/Figures/86-J-0-1.bmp\",\"pa:pa:ka\",\"Left\",\"37\",\"3\",\"12\",\"7\",\"P\",\"C\",\"60\"
\"\",\"\",\"approach-retreat\",\"209\",\"1309571\",\"0.0-209.0\",\"\",\"\",\"1-5\",\"5180\",\"38\",\"1\",\"Testing\",\"Stims/Figures/57-J-0-1.bmp\",\"ta:ka:ta\",\"Up\",\"38\",\"3\",\"13\",\"7\",\"P\",\"C\",\"61\"
\"\",\"\",\"approach-retreat\",\"210\",\"1315083\",\"0.0-210.0\",\"\",\"\",\"1-5\",\"4005\",\"37\",\"1\",\"Testing\",\"Stims/Figures/94-J-0-2.bmp\",\"ta:pa:ta\",\"Left\",\"37\",\"3\",\"14\",\"7\",\"P\",\"C\",\"62\"
\"\",\"\",\"approach-retreat\",\"211\",\"1320884\",\"0.0-211.0\",\"\",\"\",\"1-5\",\"4297\",\"39\",\"1\",\"Testing\",\"Stims/Figures/74-C-20-4.bmp\",\"mamala\",\"Left\",\"39\",\"3\",\"15\",\"7\",\"S\",\"C\",\"63\"
\"\",\"\",\"approach-retreat\",\"212\",\"1328458\",\"0.0-212.0\",\"\",\"\",\"1-5\",\"6068\",\"40\",\"1\",\"Testing\",\"Stims/Figures/144-J-10-3.bmp\",\"malala\",\"Down\",\"40\",\"3\",\"16\",\"7\",\"S\",\"C\",\"64\"
\"\",\"\",\"approach-retreat\",\"213\",\"1334707\",\"0.0-213.0\",\"\",\"\",\"1-5\",\"4741\",\"37\",\"1\",\"Testing\",\"Stims/Figures/144-C-30-3.bmp\",\"na:ma:la\",\"Right\",\"37\",\"3\",\"17\",\"7\",\"S\",\"C\",\"65\"
\"\",\"\",\"approach-retreat\",\"214\",\"1340676\",\"0.0-214.0\",\"\",\"\",\"1-5\",\"4460\",\"39\",\"1\",\"Testing\",\"Stims/Figures/111-C-30-3.bmp\",\"ma:ma:na\",\"Left\",\"39\",\"3\",\"18\",\"7\",\"S\",\"C\",\"66\"
\"\",\"\",\"approach-retreat\",\"215\",\"1346045\",\"0.0-215.0\",\"\",\"\",\"1-5\",\"3860\",\"39\",\"1\",\"Testing\",\"Stims/Figures/27-J-0-1.bmp\",\"ta:pata\",\"Right\",\"39\",\"3\",\"19\",\"7\",\"P\",\"C\",\"67\"
\"\",\"\",\"approach-retreat\",\"216\",\"1351812\",\"0.0-216.0\",\"\",\"\",\"1-5\",\"4260\",\"38\",\"1\",\"Testing\",\"Stims/Figures/102-J-10-4.bmp\",\"ma:mana\",\"Up\",\"38\",\"3\",\"20\",\"7\",\"S\",\"C\",\"68\"
\"\",\"\",\"approach-retreat\",\"217\",\"1357452\",\"0.0-217.0\",\"\",\"\",\"1-5\",\"4131\",\"39\",\"1\",\"Testing\",\"Stims/Figures/74-J-10-4.bmp\",\"na:lana\",\"Right\",\"39\",\"3\",\"21\",\"7\",\"S\",\"C\",\"69\"
\"\",\"\",\"approach-retreat\",\"218\",\"1363011\",\"0.0-218.0\",\"\",\"\",\"1-5\",\"4051\",\"38\",\"1\",\"Testing\",\"Stims/Figures/111-J-10-3.bmp\",\"ma:lana\",\"Up\",\"38\",\"3\",\"22\",\"7\",\"S\",\"C\",\"70\"
\"\",\"\",\"approach-retreat\",\"219\",\"1368796\",\"0.0-219.0\",\"\",\"\",\"1-5\",\"4274\",\"37\",\"1\",\"Testing\",\"Stims/Figures/102-C-20-4.bmp\",\"nala:na\",\"Right\",\"37\",\"3\",\"23\",\"7\",\"S\",\"C\",\"71\"
\"\",\"\",\"approach-retreat\",\"220\",\"1374364\",\"0.0-220.0\",\"\",\"\",\"1-5\",\"4059\",\"39\",\"1\",\"Testing\",\"Stims/Figures/85-J-0-2.bmp\",\"tapa:ka\",\"Right\",\"39\",\"3\",\"24\",\"7\",\"P\",\"C\",\"72\"
\"\",\"\",\"approach-retreat\",\"221\",\"1379829\",\"0.0-221.0\",\"\",\"\",\"1-5\",\"3956\",\"37\",\"1\",\"Testing\",\"Stims/Figures/85-J-0-2.bmp\",\"tapa:ka\",\"Left\",\"37\",\"4\",\"1\",\"7\",\"P\",\"C\",\"73\"
\"\",\"\",\"approach-retreat\",\"222\",\"1385331\",\"0.0-222.0\",\"\",\"\",\"1-5\",\"3999\",\"38\",\"1\",\"Testing\",\"Stims/Figures/57-J-0-1.bmp\",\"ta:ka:ta\",\"Up\",\"38\",\"4\",\"2\",\"7\",\"P\",\"C\",\"74\"
\"\",\"\",\"approach-retreat\",\"223\",\"1390876\",\"0.0-223.0\",\"\",\"\",\"1-5\",\"4041\",\"40\",\"1\",\"Testing\",\"Stims/Figures/94-J-0-2.bmp\",\"ta:pa:ta\",\"Down\",\"40\",\"4\",\"3\",\"7\",\"P\",\"C\",\"75\"
\"\",\"\",\"approach-retreat\",\"224\",\"1396764\",\"0.0-224.0\",\"\",\"\",\"1-5\",\"4381\",\"39\",\"1\",\"Testing\",\"Stims/Figures/85-C-20-2.bmp\",\"taka:ta\",\"Left\",\"39\",\"4\",\"4\",\"7\",\"P\",\"C\",\"76\"
\"\",\"\",\"approach-retreat\",\"225\",\"1402275\",\"0.0-225.0\",\"\",\"\",\"1-5\",\"4004\",\"38\",\"1\",\"Testing\",\"Stims/Figures/57-C-30-1.bmp\",\"papa:ta\",\"Down\",\"38\",\"4\",\"5\",\"7\",\"P\",\"C\",\"77\"
\"\",\"\",\"approach-retreat\",\"226\",\"1407915\",\"0.0-226.0\",\"\",\"\",\"1-5\",\"4132\",\"37\",\"1\",\"Testing\",\"Stims/Figures/144-J-10-3.bmp\",\"malala\",\"Left\",\"37\",\"4\",\"6\",\"7\",\"S\",\"C\",\"78\"
\"\",\"\",\"approach-retreat\",\"227\",\"1413483\",\"0.0-227.0\",\"\",\"\",\"1-5\",\"4060\",\"40\",\"1\",\"Testing\",\"Stims/Figures/111-C-30-3.bmp\",\"ma:ma:na\",\"Up\",\"40\",\"4\",\"7\",\"7\",\"S\",\"C\",\"79\"
\"\",\"\",\"approach-retreat\",\"228\",\"1419291\",\"0.0-228.0\",\"\",\"\",\"1-5\",\"4301\",\"37\",\"1\",\"Testing\",\"Stims/Figures/74-C-20-4.bmp\",\"mamala\",\"Right\",\"37\",\"4\",\"8\",\"7\",\"S\",\"C\",\"80\"
\"\",\"\",\"approach-retreat\",\"229\",\"1425012\",\"0.0-229.0\",\"\",\"\",\"1-5\",\"4216\",\"40\",\"1\",\"Testing\",\"Stims/Figures/74-J-10-4.bmp\",\"na:lana\",\"Down\",\"40\",\"4\",\"9\",\"7\",\"S\",\"C\",\"81\"
\"\",\"\",\"approach-retreat\",\"230\",\"1430484\",\"0.0-230.0\",\"\",\"\",\"1-5\",\"3963\",\"38\",\"1\",\"Testing\",\"Stims/Figures/102-J-10-4.bmp\",\"ma:mana\",\"Up\",\"38\",\"4\",\"10\",\"7\",\"S\",\"C\",\"82\"
\"\",\"\",\"approach-retreat\",\"231\",\"1436253\",\"0.0-231.0\",\"\",\"\",\"1-5\",\"4261\",\"38\",\"1\",\"Testing\",\"Stims/Figures/27-C-30-1.bmp\",\"pa:kata\",\"Down\",\"38\",\"4\",\"11\",\"7\",\"P\",\"C\",\"83\"
\"\",\"\",\"approach-retreat\",\"232\",\"1442276\",\"0.0-232.0\",\"\",\"\",\"1-5\",\"4515\",\"38\",\"1\",\"Testing\",\"Stims/Figures/94-C-20-2.bmp\",\"pa:ka:ka\",\"Down\",\"38\",\"4\",\"12\",\"7\",\"P\",\"C\",\"84\"
\"\",\"\",\"approach-retreat\",\"233\",\"1448101\",\"0.0-233.0\",\"\",\"\",\"1-5\",\"4314\",\"37\",\"1\",\"Testing\",\"Stims/Figures/87-J-10-4.bmp\",\"na:lala\",\"Left\",\"37\",\"4\",\"13\",\"7\",\"S\",\"C\",\"85\"
\"\",\"\",\"approach-retreat\",\"234\",\"1454435\",\"0.0-234.0\",\"\",\"\",\"1-5\",\"4830\",\"38\",\"1\",\"Testing\",\"Stims/Figures/111-J-10-3.bmp\",\"ma:lana\",\"Up\",\"38\",\"4\",\"14\",\"7\",\"S\",\"C\",\"86\"
\"\",\"\",\"approach-retreat\",\"235\",\"1459924\",\"0.0-235.0\",\"\",\"\",\"1-5\",\"3981\",\"39\",\"1\",\"Testing\",\"Stims/Figures/128-J-10-3.bmp\",\"mala:na\",\"Right\",\"39\",\"4\",\"15\",\"7\",\"S\",\"C\",\"87\"
\"\",\"\",\"approach-retreat\",\"236\",\"1465427\",\"0.0-236.0\",\"\",\"\",\"1-5\",\"3995\",\"37\",\"1\",\"Testing\",\"Stims/Figures/102-C-20-4.bmp\",\"nala:na\",\"Right\",\"37\",\"4\",\"16\",\"7\",\"S\",\"C\",\"88\"
\"\",\"\",\"approach-retreat\",\"237\",\"1470820\",\"0.0-237.0\",\"\",\"\",\"1-5\",\"3885\",\"38\",\"1\",\"Testing\",\"Stims/Figures/128-C-30-3.bmp\",\"mala:la\",\"Down\",\"38\",\"4\",\"17\",\"7\",\"S\",\"C\",\"89\"
\"\",\"\",\"approach-retreat\",\"238\",\"1476484\",\"0.0-238.0\",\"\",\"\",\"1-5\",\"4155\",\"38\",\"1\",\"Testing\",\"Stims/Figures/86-J-0-1.bmp\",\"pa:pa:ka\",\"Up\",\"38\",\"4\",\"18\",\"7\",\"P\",\"C\",\"90\"
\"\",\"\",\"approach-retreat\",\"239\",\"1481909\",\"0.0-239.0\",\"\",\"\",\"1-5\",\"3916\",\"39\",\"1\",\"Testing\",\"Stims/Figures/144-C-30-3.bmp\",\"na:ma:la\",\"Left\",\"39\",\"4\",\"19\",\"7\",\"S\",\"C\",\"91\"
\"\",\"\",\"approach-retreat\",\"240\",\"1488051\",\"0.0-240.0\",\"\",\"\",\"1-5\",\"4632\",\"37\",\"1\",\"Testing\",\"Stims/Figures/27-J-0-1.bmp\",\"ta:pata\",\"Left\",\"37\",\"4\",\"20\",\"7\",\"P\",\"C\",\"92\"
\"\",\"\",\"approach-retreat\",\"241\",\"1493621\",\"0.0-241.0\",\"\",\"\",\"1-5\",\"4062\",\"39\",\"0\",\"Testing\",\"Stims/Figures/118-C-20-2.bmp\",\"takaka\",\"Right\",\"37\",\"4\",\"21\",\"7\",\"P\",\"C\",\"93\"
\"\",\"\",\"approach-retreat\",\"242\",\"1499132\",\"0.0-242.0\",\"\",\"\",\"1-5\",\"4001\",\"40\",\"1\",\"Testing\",\"Stims/Figures/86-C-30-1.bmp\",\"takata\",\"Up\",\"40\",\"4\",\"22\",\"7\",\"P\",\"C\",\"94\"
\"\",\"\",\"approach-retreat\",\"243\",\"1504620\",\"0.0-243.0\",\"\",\"\",\"1-5\",\"3978\",\"39\",\"1\",\"Testing\",\"Stims/Figures/118-J-0-2.bmp\",\"ta:kata\",\"Right\",\"39\",\"4\",\"23\",\"7\",\"P\",\"C\",\"95\"
\"\",\"\",\"approach-retreat\",\"244\",\"1510300\",\"0.0-244.0\",\"\",\"\",\"1-5\",\"4172\",\"37\",\"1\",\"Testing\",\"Stims/Figures/87-C-20-4.bmp\",\"nala:la\",\"Right\",\"37\",\"4\",\"24\",\"7\",\"S\",\"C\",\"96\"
\"13430\",\"\",\"survey-text\",\"245\",\"1523737\",\"0.0-245.0\",\"\",\"{\"\"Q0\"\":\"\"PS160062\"\"}\",\"\",\"\",\"\",\"\",\"\",\"\",\"\",\"\",\"\",\"\",\"\",\"\",\"\",\"\",\"\"
