\"rt\",\"key_press\",\"trial_type\",\"trial_index\",\"time_elapsed\",\"internal_node_id\",\"view_history\",\"responses\",\"Id\",\"Rt\",\"ResKeyCode\",\"ResCorr\",\"TrialType2\",\"Image\",\"Label\",\"Location\",\"CorrectResponse\",\"Block\",\"BlockTrial\",\"Condition\",\"LabelType\",\"Subcondition\",\"trialNum\"
\"42680\",\"32\",\"text\",\"0\",\"42683\",\"0.0-0.0-0.0\",\"\",\"\",\"\",\"\",\"\",\"\",\"\",\"\",\"\",\"\",\"\",\"\",\"\",\"\",\"\",\"\",\"\"
\"78140\",\"\",\"instructions\",\"1\",\"120823\",\"0.0-1.0\",\"[{\"\"page_index\"\":0,\"\"viewing_time\"\":78139}]\",\"\",\"\",\"\",\"\",\"\",\"\",\"\",\"\",\"\",\"\",\"\",\"\",\"\",\"\",\"\",\"\"
\"56664\",\"\",\"survey-multi-choice\",\"2\",\"177506\",\"0.0-2.0\",\"\",\"{\"\"Q0\"\":\"\"Da\"\",\"\"Q1\"\":\"\"Da\"\",\"\"Q2\"\":\"\"Da\"\",\"\"Q3\"\":\"\"Da\"\",\"\"Q4\"\":\"\"Da\"\",\"\"Q5\"\":\"\"Da\"\"}\",\"\",\"\",\"\",\"\",\"\",\"\",\"\",\"\",\"\",\"\",\"\",\"\",\"\",\"\",\"\"
\"\",\"\",\"bio\",\"3\",\"190046\",\"0.0-3.0\",\"\",\"{\"\"age\"\":\"\"19\"\",\"\"gender\"\":\"\"f\"\",\"\"specify\"\":\"\"\"\"}\",\"\",\"\",\"\",\"\",\"\",\"\",\"\",\"\",\"\",\"\",\"\",\"\",\"\",\"\",\"\"
\"\",\"\",\"approach-retreat\",\"4\",\"200511\",\"0.0-4.0\",\"\",\"\",\"2-3\",\"8959\",\"37\",\"0\",\"Training\",\"Stims/Figures/71-J-0-1.bmp\",\"ta:kata\",\"Left\",\"39\",\"1\",\"1\",\"4\",\"P\",\"J\",\"1\"
\"\",\"\",\"approach-retreat\",\"5\",\"207718\",\"0.0-5.0\",\"\",\"\",\"2-3\",\"5694\",\"39\",\"1\",\"Training\",\"Stims/Figures/7-J-10-4.bmp\",\"pa:pa:ta\",\"Left\",\"39\",\"1\",\"2\",\"4\",\"P\",\"J\",\"2\"
\"\",\"\",\"approach-retreat\",\"6\",\"216492\",\"0.0-6.0\",\"\",\"\",\"2-3\",\"7266\",\"40\",\"1\",\"Training\",\"Stims/Figures/128-J-10-3.bmp\",\"pa:ka:ka\",\"Up\",\"40\",\"1\",\"3\",\"4\",\"P\",\"J\",\"3\"
\"\",\"\",\"approach-retreat\",\"7\",\"223180\",\"0.0-7.0\",\"\",\"\",\"2-3\",\"5178\",\"38\",\"0\",\"Training\",\"Stims/Figures/139-J-0-2.bmp\",\"ta:pa:ka\",\"Up\",\"40\",\"1\",\"4\",\"4\",\"P\",\"J\",\"4\"
\"\",\"\",\"approach-retreat\",\"8\",\"230134\",\"0.0-8.0\",\"\",\"\",\"2-3\",\"5444\",\"37\",\"1\",\"Training\",\"Stims/Figures/139-C-20-2.bmp\",\"namana\",\"Left\",\"37\",\"1\",\"5\",\"4\",\"S\",\"J\",\"5\"
\"\",\"\",\"approach-retreat\",\"9\",\"237042\",\"0.0-9.0\",\"\",\"\",\"2-3\",\"5399\",\"40\",\"1\",\"Training\",\"Stims/Figures/111-C-30-3.bmp\",\"ma:ma:na\",\"Down\",\"40\",\"1\",\"6\",\"4\",\"S\",\"J\",\"6\"
\"\",\"\",\"approach-retreat\",\"10\",\"248691\",\"0.0-10.0\",\"\",\"\",\"2-3\",\"10144\",\"39\",\"1\",\"Training\",\"Stims/Figures/27-C-30-1.bmp\",\"na:ma:na\",\"Right\",\"39\",\"1\",\"7\",\"4\",\"S\",\"J\",\"7\"
\"\",\"\",\"approach-retreat\",\"11\",\"254813\",\"0.0-11.0\",\"\",\"\",\"2-3\",\"4616\",\"38\",\"1\",\"Training\",\"Stims/Figures/27-J-0-1.bmp\",\"tapata\",\"Down\",\"38\",\"1\",\"8\",\"4\",\"P\",\"J\",\"8\"
\"\",\"\",\"approach-retreat\",\"12\",\"260964\",\"0.0-12.0\",\"\",\"\",\"2-3\",\"4641\",\"37\",\"0\",\"Training\",\"Stims/Figures/84-C-20-2.bmp\",\"na:lala\",\"Right\",\"39\",\"1\",\"9\",\"4\",\"S\",\"J\",\"9\"
\"\",\"\",\"approach-retreat\",\"13\",\"267044\",\"0.0-13.0\",\"\",\"\",\"2-3\",\"4571\",\"39\",\"1\",\"Training\",\"Stims/Figures/87-J-10-4.bmp\",\"takaka\",\"Left\",\"39\",\"1\",\"10\",\"4\",\"P\",\"J\",\"10\"
\"\",\"\",\"approach-retreat\",\"14\",\"274110\",\"0.0-14.0\",\"\",\"\",\"2-3\",\"5557\",\"38\",\"0\",\"Training\",\"Stims/Figures/7-C-20-4.bmp\",\"ma:ma:la\",\"Down\",\"40\",\"1\",\"11\",\"4\",\"S\",\"J\",\"11\"
\"\",\"\",\"approach-retreat\",\"15\",\"281037\",\"0.0-15.0\",\"\",\"\",\"2-3\",\"5419\",\"40\",\"0\",\"Training\",\"Stims/Figures/87-C-20-4.bmp\",\"nama:na\",\"Up\",\"38\",\"1\",\"12\",\"4\",\"S\",\"J\",\"12\"
\"\",\"\",\"approach-retreat\",\"16\",\"287015\",\"0.0-16.0\",\"\",\"\",\"2-3\",\"4468\",\"37\",\"0\",\"Training\",\"Stims/Figures/128-C-30-3.bmp\",\"ma:la:na\",\"Right\",\"39\",\"1\",\"13\",\"4\",\"S\",\"J\",\"13\"
\"\",\"\",\"approach-retreat\",\"17\",\"292732\",\"0.0-17.0\",\"\",\"\",\"2-3\",\"4209\",\"39\",\"1\",\"Training\",\"Stims/Figures/71-C-30-1.bmp\",\"nala:la\",\"Right\",\"39\",\"1\",\"14\",\"4\",\"S\",\"J\",\"14\"
\"\",\"\",\"approach-retreat\",\"18\",\"298756\",\"0.0-18.0\",\"\",\"\",\"2-3\",\"4514\",\"38\",\"0\",\"Training\",\"Stims/Figures/84-J-0-2.bmp\",\"taka:ka\",\"Up\",\"40\",\"1\",\"15\",\"4\",\"P\",\"J\",\"15\"
\"\",\"\",\"approach-retreat\",\"19\",\"304571\",\"0.0-19.0\",\"\",\"\",\"2-3\",\"4312\",\"40\",\"0\",\"Training\",\"Stims/Figures/111-J-10-3.bmp\",\"paka:ta\",\"Down\",\"38\",\"1\",\"16\",\"4\",\"P\",\"J\",\"16\"
\"\",\"\",\"approach-retreat\",\"20\",\"310204\",\"0.0-20.0\",\"\",\"\",\"2-3\",\"4129\",\"39\",\"0\",\"Training\",\"Stims/Figures/139-J-0-2.bmp\",\"ta:pa:ka\",\"Right\",\"37\",\"2\",\"1\",\"4\",\"P\",\"J\",\"17\"
\"\",\"\",\"approach-retreat\",\"21\",\"316437\",\"0.0-21.0\",\"\",\"\",\"2-3\",\"4729\",\"40\",\"0\",\"Training\",\"Stims/Figures/84-J-0-2.bmp\",\"taka:ka\",\"Down\",\"38\",\"2\",\"2\",\"4\",\"P\",\"J\",\"18\"
\"\",\"\",\"approach-retreat\",\"22\",\"322022\",\"0.0-22.0\",\"\",\"\",\"2-3\",\"4076\",\"38\",\"1\",\"Training\",\"Stims/Figures/111-C-30-3.bmp\",\"ma:ma:na\",\"Up\",\"38\",\"2\",\"3\",\"4\",\"S\",\"J\",\"19\"
\"\",\"\",\"approach-retreat\",\"23\",\"327860\",\"0.0-23.0\",\"\",\"\",\"2-3\",\"4325\",\"38\",\"1\",\"Training\",\"Stims/Figures/27-C-30-1.bmp\",\"na:ma:na\",\"Up\",\"38\",\"2\",\"4\",\"4\",\"S\",\"J\",\"20\"
\"\",\"\",\"approach-retreat\",\"24\",\"334221\",\"0.0-24.0\",\"\",\"\",\"2-3\",\"4852\",\"39\",\"1\",\"Training\",\"Stims/Figures/87-J-10-4.bmp\",\"takaka\",\"Left\",\"39\",\"2\",\"5\",\"4\",\"P\",\"J\",\"21\"
\"\",\"\",\"approach-retreat\",\"25\",\"340173\",\"0.0-25.0\",\"\",\"\",\"2-3\",\"4442\",\"37\",\"0\",\"Training\",\"Stims/Figures/128-C-30-3.bmp\",\"ma:la:na\",\"Right\",\"39\",\"2\",\"6\",\"4\",\"S\",\"J\",\"22\"
\"\",\"\",\"approach-retreat\",\"26\",\"346462\",\"0.0-26.0\",\"\",\"\",\"2-3\",\"4780\",\"38\",\"0\",\"Training\",\"Stims/Figures/111-J-10-3.bmp\",\"paka:ta\",\"Up\",\"40\",\"2\",\"7\",\"4\",\"P\",\"J\",\"23\"
\"\",\"\",\"approach-retreat\",\"27\",\"352573\",\"0.0-27.0\",\"\",\"\",\"2-3\",\"4601\",\"39\",\"0\",\"Training\",\"Stims/Figures/87-C-20-4.bmp\",\"nama:na\",\"Left\",\"37\",\"2\",\"8\",\"4\",\"S\",\"J\",\"24\"
\"\",\"\",\"approach-retreat\",\"28\",\"358069\",\"0.0-28.0\",\"\",\"\",\"2-3\",\"3986\",\"37\",\"1\",\"Training\",\"Stims/Figures/84-C-20-2.bmp\",\"na:lala\",\"Left\",\"37\",\"2\",\"9\",\"4\",\"S\",\"J\",\"25\"
\"\",\"\",\"approach-retreat\",\"29\",\"364075\",\"0.0-29.0\",\"\",\"\",\"2-3\",\"4503\",\"38\",\"0\",\"Training\",\"Stims/Figures/7-C-20-4.bmp\",\"ma:ma:la\",\"Down\",\"40\",\"2\",\"10\",\"4\",\"S\",\"J\",\"26\"
\"\",\"\",\"approach-retreat\",\"30\",\"371811\",\"0.0-30.0\",\"\",\"\",\"2-3\",\"6233\",\"37\",\"0\",\"Training\",\"Stims/Figures/139-C-20-2.bmp\",\"namana\",\"Right\",\"39\",\"2\",\"11\",\"4\",\"S\",\"J\",\"27\"
\"\",\"\",\"approach-retreat\",\"31\",\"377341\",\"0.0-31.0\",\"\",\"\",\"2-3\",\"4026\",\"39\",\"0\",\"Training\",\"Stims/Figures/7-J-10-4.bmp\",\"pa:pa:ta\",\"Right\",\"37\",\"2\",\"12\",\"4\",\"P\",\"J\",\"28\"
\"\",\"\",\"approach-retreat\",\"32\",\"383070\",\"0.0-32.0\",\"\",\"\",\"2-3\",\"4226\",\"38\",\"0\",\"Training\",\"Stims/Figures/27-J-0-1.bmp\",\"tapata\",\"Up\",\"40\",\"2\",\"13\",\"4\",\"P\",\"J\",\"29\"
\"\",\"\",\"approach-retreat\",\"33\",\"389117\",\"0.0-33.0\",\"\",\"\",\"2-3\",\"4540\",\"39\",\"1\",\"Training\",\"Stims/Figures/71-J-0-1.bmp\",\"ta:kata\",\"Left\",\"39\",\"2\",\"14\",\"4\",\"P\",\"J\",\"30\"
\"\",\"\",\"approach-retreat\",\"34\",\"395222\",\"0.0-34.0\",\"\",\"\",\"2-3\",\"4597\",\"38\",\"1\",\"Training\",\"Stims/Figures/128-J-10-3.bmp\",\"pa:ka:ka\",\"Down\",\"38\",\"2\",\"15\",\"4\",\"P\",\"J\",\"31\"
\"\",\"\",\"approach-retreat\",\"35\",\"401077\",\"0.0-35.0\",\"\",\"\",\"2-3\",\"4346\",\"40\",\"1\",\"Training\",\"Stims/Figures/71-C-30-1.bmp\",\"nala:la\",\"Down\",\"40\",\"2\",\"16\",\"4\",\"S\",\"J\",\"32\"
\"\",\"\",\"approach-retreat\",\"36\",\"406966\",\"0.0-36.0\",\"\",\"\",\"2-3\",\"4380\",\"39\",\"1\",\"Training\",\"Stims/Figures/128-J-10-3.bmp\",\"pa:ka:ka\",\"Left\",\"39\",\"3\",\"1\",\"4\",\"P\",\"J\",\"33\"
\"\",\"\",\"approach-retreat\",\"37\",\"413349\",\"0.0-37.0\",\"\",\"\",\"2-3\",\"4873\",\"40\",\"0\",\"Training\",\"Stims/Figures/87-J-10-4.bmp\",\"takaka\",\"Down\",\"38\",\"3\",\"2\",\"4\",\"P\",\"J\",\"34\"
\"\",\"\",\"approach-retreat\",\"38\",\"419452\",\"0.0-38.0\",\"\",\"\",\"2-3\",\"4597\",\"37\",\"1\",\"Training\",\"Stims/Figures/27-J-0-1.bmp\",\"tapata\",\"Right\",\"37\",\"3\",\"3\",\"4\",\"P\",\"J\",\"35\"
\"\",\"\",\"approach-retreat\",\"39\",\"425292\",\"0.0-39.0\",\"\",\"\",\"2-3\",\"4334\",\"39\",\"0\",\"Training\",\"Stims/Figures/87-C-20-4.bmp\",\"nama:na\",\"Left\",\"37\",\"3\",\"4\",\"4\",\"S\",\"J\",\"36\"
\"\",\"\",\"approach-retreat\",\"40\",\"431076\",\"0.0-40.0\",\"\",\"\",\"2-3\",\"4280\",\"38\",\"0\",\"Training\",\"Stims/Figures/71-C-30-1.bmp\",\"nala:la\",\"Down\",\"40\",\"3\",\"5\",\"4\",\"S\",\"J\",\"37\"
\"\",\"\",\"approach-retreat\",\"41\",\"437093\",\"0.0-41.0\",\"\",\"\",\"2-3\",\"4513\",\"37\",\"0\",\"Training\",\"Stims/Figures/111-J-10-3.bmp\",\"paka:ta\",\"Left\",\"39\",\"3\",\"6\",\"4\",\"P\",\"J\",\"38\"
\"\",\"\",\"approach-retreat\",\"42\",\"443150\",\"0.0-42.0\",\"\",\"\",\"2-3\",\"4553\",\"39\",\"1\",\"Training\",\"Stims/Figures/84-C-20-2.bmp\",\"na:lala\",\"Right\",\"39\",\"3\",\"7\",\"4\",\"S\",\"J\",\"39\"
\"\",\"\",\"approach-retreat\",\"43\",\"449356\",\"0.0-43.0\",\"\",\"\",\"2-3\",\"4698\",\"37\",\"0\",\"Training\",\"Stims/Figures/128-C-30-3.bmp\",\"ma:la:na\",\"Right\",\"39\",\"3\",\"8\",\"4\",\"S\",\"J\",\"40\"
\"\",\"\",\"approach-retreat\",\"44\",\"455486\",\"0.0-44.0\",\"\",\"\",\"2-3\",\"4620\",\"38\",\"1\",\"Training\",\"Stims/Figures/139-C-20-2.bmp\",\"namana\",\"Up\",\"38\",\"3\",\"9\",\"4\",\"S\",\"J\",\"41\"
\"\",\"\",\"approach-retreat\",\"45\",\"461149\",\"0.0-45.0\",\"\",\"\",\"2-3\",\"4155\",\"39\",\"0\",\"Training\",\"Stims/Figures/139-J-0-2.bmp\",\"ta:pa:ka\",\"Right\",\"37\",\"3\",\"10\",\"4\",\"P\",\"J\",\"42\"
\"\",\"\",\"approach-retreat\",\"46\",\"466749\",\"0.0-46.0\",\"\",\"\",\"2-3\",\"4092\",\"37\",\"1\",\"Training\",\"Stims/Figures/7-C-20-4.bmp\",\"ma:ma:la\",\"Left\",\"37\",\"3\",\"11\",\"4\",\"S\",\"J\",\"43\"
\"\",\"\",\"approach-retreat\",\"47\",\"472821\",\"0.0-47.0\",\"\",\"\",\"2-3\",\"4563\",\"38\",\"1\",\"Training\",\"Stims/Figures/7-J-10-4.bmp\",\"pa:pa:ta\",\"Down\",\"38\",\"3\",\"12\",\"4\",\"P\",\"J\",\"44\"
\"\",\"\",\"approach-retreat\",\"48\",\"478683\",\"0.0-48.0\",\"\",\"\",\"2-3\",\"4353\",\"40\",\"1\",\"Training\",\"Stims/Figures/71-J-0-1.bmp\",\"ta:kata\",\"Up\",\"40\",\"3\",\"13\",\"4\",\"P\",\"J\",\"45\"
\"\",\"\",\"approach-retreat\",\"49\",\"485348\",\"0.0-49.0\",\"\",\"\",\"2-3\",\"5159\",\"40\",\"1\",\"Training\",\"Stims/Figures/84-J-0-2.bmp\",\"taka:ka\",\"Up\",\"40\",\"3\",\"14\",\"4\",\"P\",\"J\",\"46\"
\"\",\"\",\"approach-retreat\",\"50\",\"491747\",\"0.0-50.0\",\"\",\"\",\"2-3\",\"4895\",\"38\",\"0\",\"Training\",\"Stims/Figures/27-C-30-1.bmp\",\"na:ma:na\",\"Down\",\"40\",\"3\",\"15\",\"4\",\"S\",\"J\",\"47\"
\"\",\"\",\"approach-retreat\",\"51\",\"497269\",\"0.0-51.0\",\"\",\"\",\"2-3\",\"4018\",\"40\",\"0\",\"Training\",\"Stims/Figures/111-C-30-3.bmp\",\"ma:ma:na\",\"Up\",\"38\",\"3\",\"16\",\"4\",\"S\",\"J\",\"48\"
\"\",\"\",\"approach-retreat\",\"52\",\"502830\",\"0.0-52.0\",\"\",\"\",\"2-3\",\"4057\",\"37\",\"1\",\"Training\",\"Stims/Figures/27-C-30-1.bmp\",\"na:ma:na\",\"Left\",\"37\",\"4\",\"1\",\"4\",\"S\",\"J\",\"49\"
\"\",\"\",\"approach-retreat\",\"53\",\"508942\",\"0.0-53.0\",\"\",\"\",\"2-3\",\"4602\",\"38\",\"0\",\"Training\",\"Stims/Figures/7-C-20-4.bmp\",\"ma:ma:la\",\"Down\",\"40\",\"4\",\"2\",\"4\",\"S\",\"J\",\"50\"
\"\",\"\",\"approach-retreat\",\"54\",\"514846\",\"0.0-54.0\",\"\",\"\",\"2-3\",\"4394\",\"37\",\"0\",\"Training\",\"Stims/Figures/87-C-20-4.bmp\",\"nama:na\",\"Right\",\"39\",\"4\",\"3\",\"4\",\"S\",\"J\",\"51\"
\"\",\"\",\"approach-retreat\",\"55\",\"521604\",\"0.0-55.0\",\"\",\"\",\"2-3\",\"5251\",\"39\",\"0\",\"Training\",\"Stims/Figures/84-J-0-2.bmp\",\"taka:ka\",\"Right\",\"37\",\"4\",\"4\",\"4\",\"P\",\"J\",\"52\"
\"\",\"\",\"approach-retreat\",\"56\",\"528157\",\"0.0-56.0\",\"\",\"\",\"2-3\",\"5043\",\"40\",\"0\",\"Training\",\"Stims/Figures/7-J-10-4.bmp\",\"pa:pa:ta\",\"Down\",\"38\",\"4\",\"5\",\"4\",\"P\",\"J\",\"53\"
\"\",\"\",\"approach-retreat\",\"57\",\"534237\",\"0.0-57.0\",\"\",\"\",\"2-3\",\"4571\",\"39\",\"1\",\"Training\",\"Stims/Figures/87-J-10-4.bmp\",\"takaka\",\"Left\",\"39\",\"4\",\"6\",\"4\",\"P\",\"J\",\"54\"
\"\",\"\",\"approach-retreat\",\"58\",\"540124\",\"0.0-58.0\",\"\",\"\",\"2-3\",\"4383\",\"38\",\"0\",\"Training\",\"Stims/Figures/128-C-30-3.bmp\",\"ma:la:na\",\"Down\",\"40\",\"4\",\"7\",\"4\",\"S\",\"J\",\"55\"
\"\",\"\",\"approach-retreat\",\"59\",\"545780\",\"0.0-59.0\",\"\",\"\",\"2-3\",\"4152\",\"40\",\"0\",\"Training\",\"Stims/Figures/71-C-30-1.bmp\",\"nala:la\",\"Up\",\"38\",\"4\",\"8\",\"4\",\"S\",\"J\",\"56\"
\"\",\"\",\"approach-retreat\",\"60\",\"551715\",\"0.0-60.0\",\"\",\"\",\"2-3\",\"4433\",\"39\",\"1\",\"Training\",\"Stims/Figures/111-C-30-3.bmp\",\"ma:ma:na\",\"Right\",\"39\",\"4\",\"9\",\"4\",\"S\",\"J\",\"57\"
\"\",\"\",\"approach-retreat\",\"61\",\"557412\",\"0.0-61.0\",\"\",\"\",\"2-3\",\"4194\",\"38\",\"0\",\"Training\",\"Stims/Figures/71-J-0-1.bmp\",\"ta:kata\",\"Up\",\"40\",\"4\",\"10\",\"4\",\"P\",\"J\",\"58\"
\"\",\"\",\"approach-retreat\",\"62\",\"562990\",\"0.0-62.0\",\"\",\"\",\"2-3\",\"4073\",\"40\",\"0\",\"Training\",\"Stims/Figures/139-C-20-2.bmp\",\"namana\",\"Up\",\"38\",\"4\",\"11\",\"4\",\"S\",\"J\",\"59\"
\"\",\"\",\"approach-retreat\",\"63\",\"568677\",\"0.0-63.0\",\"\",\"\",\"2-3\",\"4179\",\"39\",\"1\",\"Training\",\"Stims/Figures/111-J-10-3.bmp\",\"paka:ta\",\"Left\",\"39\",\"4\",\"12\",\"4\",\"P\",\"J\",\"60\"
\"\",\"\",\"approach-retreat\",\"64\",\"574510\",\"0.0-64.0\",\"\",\"\",\"2-3\",\"4324\",\"37\",\"1\",\"Training\",\"Stims/Figures/128-J-10-3.bmp\",\"pa:ka:ka\",\"Right\",\"37\",\"4\",\"13\",\"4\",\"P\",\"J\",\"61\"
\"\",\"\",\"approach-retreat\",\"65\",\"580205\",\"0.0-65.0\",\"\",\"\",\"2-3\",\"4187\",\"37\",\"1\",\"Training\",\"Stims/Figures/84-C-20-2.bmp\",\"na:lala\",\"Left\",\"37\",\"4\",\"14\",\"4\",\"S\",\"J\",\"62\"
\"\",\"\",\"approach-retreat\",\"66\",\"588294\",\"0.0-66.0\",\"\",\"\",\"2-3\",\"6581\",\"40\",\"0\",\"Training\",\"Stims/Figures/139-J-0-2.bmp\",\"ta:pa:ka\",\"Down\",\"38\",\"4\",\"15\",\"4\",\"P\",\"J\",\"63\"
\"\",\"\",\"approach-retreat\",\"67\",\"594435\",\"0.0-67.0\",\"\",\"\",\"2-3\",\"4634\",\"38\",\"0\",\"Training\",\"Stims/Figures/27-J-0-1.bmp\",\"tapata\",\"Up\",\"40\",\"4\",\"16\",\"4\",\"P\",\"J\",\"64\"
\"\",\"\",\"approach-retreat\",\"68\",\"601747\",\"0.0-68.0\",\"\",\"\",\"2-3\",\"5808\",\"39\",\"0\",\"Training\",\"Stims/Figures/27-C-30-1.bmp\",\"na:ma:na\",\"Left\",\"37\",\"5\",\"1\",\"4\",\"S\",\"J\",\"65\"
\"\",\"\",\"approach-retreat\",\"69\",\"607403\",\"0.0-69.0\",\"\",\"\",\"2-3\",\"4153\",\"37\",\"1\",\"Training\",\"Stims/Figures/128-C-30-3.bmp\",\"ma:la:na\",\"Left\",\"37\",\"5\",\"2\",\"4\",\"S\",\"J\",\"66\"
\"\",\"\",\"approach-retreat\",\"70\",\"613485\",\"0.0-70.0\",\"\",\"\",\"2-3\",\"4577\",\"39\",\"0\",\"Training\",\"Stims/Figures/71-C-30-1.bmp\",\"nala:la\",\"Left\",\"37\",\"5\",\"3\",\"4\",\"S\",\"J\",\"67\"
\"\",\"\",\"approach-retreat\",\"71\",\"619572\",\"0.0-71.0\",\"\",\"\",\"2-3\",\"4585\",\"40\",\"1\",\"Training\",\"Stims/Figures/139-C-20-2.bmp\",\"namana\",\"Down\",\"40\",\"5\",\"4\",\"4\",\"S\",\"J\",\"68\"
\"\",\"\",\"approach-retreat\",\"72\",\"625462\",\"0.0-72.0\",\"\",\"\",\"2-3\",\"4380\",\"38\",\"0\",\"Training\",\"Stims/Figures/27-J-0-1.bmp\",\"tapata\",\"Up\",\"40\",\"5\",\"5\",\"4\",\"P\",\"J\",\"69\"
\"\",\"\",\"approach-retreat\",\"73\",\"631084\",\"0.0-73.0\",\"\",\"\",\"2-3\",\"4114\",\"38\",\"1\",\"Training\",\"Stims/Figures/87-C-20-4.bmp\",\"nama:na\",\"Up\",\"38\",\"5\",\"6\",\"4\",\"S\",\"J\",\"70\"
\"\",\"\",\"approach-retreat\",\"74\",\"637158\",\"0.0-74.0\",\"\",\"\",\"2-3\",\"4565\",\"40\",\"0\",\"Training\",\"Stims/Figures/87-J-10-4.bmp\",\"takaka\",\"Down\",\"38\",\"5\",\"7\",\"4\",\"P\",\"J\",\"71\"
\"\",\"\",\"approach-retreat\",\"75\",\"642789\",\"0.0-75.0\",\"\",\"\",\"2-3\",\"4122\",\"38\",\"1\",\"Training\",\"Stims/Figures/84-C-20-2.bmp\",\"na:lala\",\"Up\",\"38\",\"5\",\"8\",\"4\",\"S\",\"J\",\"72\"
\"\",\"\",\"approach-retreat\",\"76\",\"648893\",\"0.0-76.0\",\"\",\"\",\"2-3\",\"4597\",\"40\",\"0\",\"Training\",\"Stims/Figures/7-J-10-4.bmp\",\"pa:pa:ta\",\"Down\",\"38\",\"5\",\"9\",\"4\",\"P\",\"J\",\"73\"
\"\",\"\",\"approach-retreat\",\"77\",\"654539\",\"0.0-77.0\",\"\",\"\",\"2-3\",\"4141\",\"38\",\"1\",\"Training\",\"Stims/Figures/139-J-0-2.bmp\",\"ta:pa:ka\",\"Down\",\"38\",\"5\",\"10\",\"4\",\"P\",\"J\",\"74\"
\"\",\"\",\"approach-retreat\",\"78\",\"660268\",\"0.0-78.0\",\"\",\"\",\"2-3\",\"4224\",\"39\",\"0\",\"Training\",\"Stims/Figures/84-J-0-2.bmp\",\"taka:ka\",\"Right\",\"37\",\"5\",\"11\",\"4\",\"P\",\"J\",\"75\"
\"\",\"\",\"approach-retreat\",\"79\",\"666107\",\"0.0-79.0\",\"\",\"\",\"2-3\",\"4337\",\"37\",\"0\",\"Training\",\"Stims/Figures/111-C-30-3.bmp\",\"ma:ma:na\",\"Right\",\"39\",\"5\",\"12\",\"4\",\"S\",\"J\",\"76\"
\"\",\"\",\"approach-retreat\",\"80\",\"673316\",\"0.0-80.0\",\"\",\"\",\"2-3\",\"5704\",\"39\",\"1\",\"Training\",\"Stims/Figures/7-C-20-4.bmp\",\"ma:ma:la\",\"Right\",\"39\",\"5\",\"13\",\"4\",\"S\",\"J\",\"77\"
\"\",\"\",\"approach-retreat\",\"81\",\"679443\",\"0.0-81.0\",\"\",\"\",\"2-3\",\"4624\",\"37\",\"0\",\"Training\",\"Stims/Figures/71-J-0-1.bmp\",\"ta:kata\",\"Left\",\"39\",\"5\",\"14\",\"4\",\"P\",\"J\",\"78\"
\"\",\"\",\"approach-retreat\",\"82\",\"685278\",\"0.0-82.0\",\"\",\"\",\"2-3\",\"4325\",\"40\",\"1\",\"Training\",\"Stims/Figures/128-J-10-3.bmp\",\"pa:ka:ka\",\"Up\",\"40\",\"5\",\"15\",\"4\",\"P\",\"J\",\"79\"
\"\",\"\",\"approach-retreat\",\"83\",\"691437\",\"0.0-83.0\",\"\",\"\",\"2-3\",\"4646\",\"39\",\"0\",\"Training\",\"Stims/Figures/111-J-10-3.bmp\",\"paka:ta\",\"Right\",\"37\",\"5\",\"16\",\"4\",\"P\",\"J\",\"80\"
\"\",\"\",\"approach-retreat\",\"84\",\"697197\",\"0.0-84.0\",\"\",\"\",\"2-3\",\"4252\",\"40\",\"1\",\"Training\",\"Stims/Figures/128-C-30-3.bmp\",\"ma:la:na\",\"Down\",\"40\",\"6\",\"1\",\"4\",\"S\",\"J\",\"81\"
\"\",\"\",\"approach-retreat\",\"85\",\"704573\",\"0.0-85.0\",\"\",\"\",\"2-3\",\"5866\",\"37\",\"1\",\"Training\",\"Stims/Figures/111-C-30-3.bmp\",\"ma:ma:na\",\"Left\",\"37\",\"6\",\"2\",\"4\",\"S\",\"J\",\"82\"
\"\",\"\",\"approach-retreat\",\"86\",\"710181\",\"0.0-86.0\",\"\",\"\",\"2-3\",\"4098\",\"37\",\"1\",\"Training\",\"Stims/Figures/139-J-0-2.bmp\",\"ta:pa:ka\",\"Right\",\"37\",\"6\",\"3\",\"4\",\"P\",\"J\",\"83\"
\"\",\"\",\"approach-retreat\",\"87\",\"715851\",\"0.0-87.0\",\"\",\"\",\"2-3\",\"4162\",\"40\",\"1\",\"Training\",\"Stims/Figures/71-J-0-1.bmp\",\"ta:kata\",\"Up\",\"40\",\"6\",\"4\",\"4\",\"P\",\"J\",\"84\"
\"\",\"\",\"approach-retreat\",\"88\",\"721612\",\"0.0-88.0\",\"\",\"\",\"2-3\",\"4257\",\"39\",\"0\",\"Training\",\"Stims/Figures/27-J-0-1.bmp\",\"tapata\",\"Right\",\"37\",\"6\",\"5\",\"4\",\"P\",\"J\",\"85\"
\"\",\"\",\"approach-retreat\",\"89\",\"727283\",\"0.0-89.0\",\"\",\"\",\"2-3\",\"4169\",\"37\",\"1\",\"Training\",\"Stims/Figures/7-C-20-4.bmp\",\"ma:ma:la\",\"Left\",\"37\",\"6\",\"6\",\"4\",\"S\",\"J\",\"86\"
\"\",\"\",\"approach-retreat\",\"90\",\"733436\",\"0.0-90.0\",\"\",\"\",\"2-3\",\"4648\",\"37\",\"0\",\"Training\",\"Stims/Figures/84-C-20-2.bmp\",\"na:lala\",\"Right\",\"39\",\"6\",\"7\",\"4\",\"S\",\"J\",\"87\"
\"\",\"\",\"approach-retreat\",\"91\",\"741525\",\"0.0-91.0\",\"\",\"\",\"2-3\",\"6586\",\"40\",\"1\",\"Training\",\"Stims/Figures/87-J-10-4.bmp\",\"takaka\",\"Up\",\"40\",\"6\",\"8\",\"4\",\"P\",\"J\",\"88\"
\"\",\"\",\"approach-retreat\",\"92\",\"748095\",\"0.0-92.0\",\"\",\"\",\"2-3\",\"5060\",\"38\",\"0\",\"Training\",\"Stims/Figures/128-J-10-3.bmp\",\"pa:ka:ka\",\"Up\",\"40\",\"6\",\"9\",\"4\",\"P\",\"J\",\"89\"
\"\",\"\",\"approach-retreat\",\"93\",\"753853\",\"0.0-93.0\",\"\",\"\",\"2-3\",\"4251\",\"39\",\"1\",\"Training\",\"Stims/Figures/139-C-20-2.bmp\",\"namana\",\"Right\",\"39\",\"6\",\"10\",\"4\",\"S\",\"J\",\"90\"
\"\",\"\",\"approach-retreat\",\"94\",\"759549\",\"0.0-94.0\",\"\",\"\",\"2-3\",\"4186\",\"38\",\"1\",\"Training\",\"Stims/Figures/87-C-20-4.bmp\",\"nama:na\",\"Up\",\"38\",\"6\",\"11\",\"4\",\"S\",\"J\",\"91\"
\"\",\"\",\"approach-retreat\",\"95\",\"765229\",\"0.0-95.0\",\"\",\"\",\"2-3\",\"4171\",\"40\",\"1\",\"Training\",\"Stims/Figures/27-C-30-1.bmp\",\"na:ma:na\",\"Down\",\"40\",\"6\",\"12\",\"4\",\"S\",\"J\",\"92\"
\"\",\"\",\"approach-retreat\",\"96\",\"771309\",\"0.0-96.0\",\"\",\"\",\"2-3\",\"4571\",\"37\",\"1\",\"Training\",\"Stims/Figures/71-C-30-1.bmp\",\"nala:la\",\"Left\",\"37\",\"6\",\"13\",\"4\",\"S\",\"J\",\"93\"
\"\",\"\",\"approach-retreat\",\"97\",\"777067\",\"0.0-97.0\",\"\",\"\",\"2-3\",\"4248\",\"40\",\"0\",\"Training\",\"Stims/Figures/84-J-0-2.bmp\",\"taka:ka\",\"Down\",\"38\",\"6\",\"14\",\"4\",\"P\",\"J\",\"94\"
\"\",\"\",\"approach-retreat\",\"98\",\"782644\",\"0.0-98.0\",\"\",\"\",\"2-3\",\"4073\",\"37\",\"0\",\"Training\",\"Stims/Figures/111-J-10-3.bmp\",\"paka:ta\",\"Left\",\"39\",\"6\",\"15\",\"4\",\"P\",\"J\",\"95\"
\"\",\"\",\"approach-retreat\",\"99\",\"788450\",\"0.0-99.0\",\"\",\"\",\"2-3\",\"4305\",\"38\",\"1\",\"Training\",\"Stims/Figures/7-J-10-4.bmp\",\"pa:pa:ta\",\"Down\",\"38\",\"6\",\"16\",\"4\",\"P\",\"J\",\"96\"
\"\",\"\",\"approach-retreat\",\"100\",\"794067\",\"0.0-100.0\",\"\",\"\",\"2-3\",\"4113\",\"38\",\"0\",\"Training\",\"Stims/Figures/7-C-20-4.bmp\",\"ma:ma:la\",\"Down\",\"40\",\"7\",\"1\",\"4\",\"S\",\"J\",\"97\"
\"\",\"\",\"approach-retreat\",\"101\",\"799678\",\"0.0-101.0\",\"\",\"\",\"2-3\",\"4106\",\"38\",\"1\",\"Training\",\"Stims/Figures/84-C-20-2.bmp\",\"na:lala\",\"Up\",\"38\",\"7\",\"2\",\"4\",\"S\",\"J\",\"98\"
\"\",\"\",\"approach-retreat\",\"102\",\"805293\",\"0.0-102.0\",\"\",\"\",\"2-3\",\"4107\",\"38\",\"1\",\"Training\",\"Stims/Figures/71-C-30-1.bmp\",\"nala:la\",\"Up\",\"38\",\"7\",\"3\",\"4\",\"S\",\"J\",\"99\"
\"\",\"\",\"approach-retreat\",\"103\",\"810973\",\"0.0-103.0\",\"\",\"\",\"2-3\",\"4171\",\"38\",\"0\",\"Training\",\"Stims/Figures/111-C-30-3.bmp\",\"ma:ma:na\",\"Down\",\"40\",\"7\",\"4\",\"4\",\"S\",\"J\",\"100\"
\"\",\"\",\"approach-retreat\",\"104\",\"816678\",\"0.0-104.0\",\"\",\"\",\"2-3\",\"4196\",\"40\",\"0\",\"Training\",\"Stims/Figures/27-C-30-1.bmp\",\"na:ma:na\",\"Up\",\"38\",\"7\",\"5\",\"4\",\"S\",\"J\",\"101\"
\"\",\"\",\"approach-retreat\",\"105\",\"822398\",\"0.0-105.0\",\"\",\"\",\"2-3\",\"4210\",\"38\",\"0\",\"Training\",\"Stims/Figures/7-J-10-4.bmp\",\"pa:pa:ta\",\"Up\",\"40\",\"7\",\"6\",\"4\",\"P\",\"J\",\"102\"
\"\",\"\",\"approach-retreat\",\"106\",\"828423\",\"0.0-106.0\",\"\",\"\",\"2-3\",\"4516\",\"40\",\"1\",\"Training\",\"Stims/Figures/87-C-20-4.bmp\",\"nama:na\",\"Down\",\"40\",\"7\",\"7\",\"4\",\"S\",\"J\",\"103\"
\"\",\"\",\"approach-retreat\",\"107\",\"834181\",\"0.0-107.0\",\"\",\"\",\"2-3\",\"4249\",\"37\",\"0\",\"Training\",\"Stims/Figures/139-J-0-2.bmp\",\"ta:pa:ka\",\"Left\",\"39\",\"7\",\"8\",\"4\",\"P\",\"J\",\"104\"
\"\",\"\",\"approach-retreat\",\"108\",\"839979\",\"0.0-108.0\",\"\",\"\",\"2-3\",\"4294\",\"39\",\"0\",\"Training\",\"Stims/Figures/111-J-10-3.bmp\",\"paka:ta\",\"Right\",\"37\",\"7\",\"9\",\"4\",\"P\",\"J\",\"105\"
\"\",\"\",\"approach-retreat\",\"109\",\"845468\",\"0.0-109.0\",\"\",\"\",\"2-3\",\"3985\",\"37\",\"1\",\"Training\",\"Stims/Figures/87-J-10-4.bmp\",\"takaka\",\"Right\",\"37\",\"7\",\"10\",\"4\",\"P\",\"J\",\"106\"
\"\",\"\",\"approach-retreat\",\"110\",\"851636\",\"0.0-110.0\",\"\",\"\",\"2-3\",\"4664\",\"37\",\"1\",\"Training\",\"Stims/Figures/128-C-30-3.bmp\",\"ma:la:na\",\"Left\",\"37\",\"7\",\"11\",\"4\",\"S\",\"J\",\"107\"
\"\",\"\",\"approach-retreat\",\"111\",\"857469\",\"0.0-111.0\",\"\",\"\",\"2-3\",\"4331\",\"39\",\"0\",\"Training\",\"Stims/Figures/27-J-0-1.bmp\",\"tapata\",\"Right\",\"37\",\"7\",\"12\",\"4\",\"P\",\"J\",\"108\"
\"\",\"\",\"approach-retreat\",\"112\",\"862958\",\"0.0-112.0\",\"\",\"\",\"2-3\",\"3986\",\"37\",\"0\",\"Training\",\"Stims/Figures/71-J-0-1.bmp\",\"ta:kata\",\"Left\",\"39\",\"7\",\"13\",\"4\",\"P\",\"J\",\"109\"
\"\",\"\",\"approach-retreat\",\"113\",\"869749\",\"0.0-113.0\",\"\",\"\",\"2-3\",\"5282\",\"38\",\"1\",\"Training\",\"Stims/Figures/128-J-10-3.bmp\",\"pa:ka:ka\",\"Down\",\"38\",\"7\",\"14\",\"4\",\"P\",\"J\",\"110\"
\"\",\"\",\"approach-retreat\",\"114\",\"876805\",\"0.0-114.0\",\"\",\"\",\"2-3\",\"5546\",\"37\",\"1\",\"Training\",\"Stims/Figures/84-J-0-2.bmp\",\"taka:ka\",\"Right\",\"37\",\"7\",\"15\",\"4\",\"P\",\"J\",\"111\"
\"\",\"\",\"approach-retreat\",\"115\",\"882436\",\"0.0-115.0\",\"\",\"\",\"2-3\",\"4122\",\"37\",\"1\",\"Training\",\"Stims/Figures/139-C-20-2.bmp\",\"namana\",\"Left\",\"37\",\"7\",\"16\",\"4\",\"S\",\"J\",\"112\"
\"\",\"\",\"approach-retreat\",\"116\",\"888558\",\"0.0-116.0\",\"\",\"\",\"2-3\",\"4612\",\"39\",\"0\",\"Training\",\"Stims/Figures/84-C-20-2.bmp\",\"na:lala\",\"Left\",\"37\",\"8\",\"1\",\"4\",\"S\",\"J\",\"113\"
\"\",\"\",\"approach-retreat\",\"117\",\"894229\",\"0.0-117.0\",\"\",\"\",\"2-3\",\"4162\",\"37\",\"0\",\"Training\",\"Stims/Figures/139-J-0-2.bmp\",\"ta:pa:ka\",\"Left\",\"39\",\"8\",\"2\",\"4\",\"P\",\"J\",\"114\"
\"\",\"\",\"approach-retreat\",\"118\",\"900115\",\"0.0-118.0\",\"\",\"\",\"2-3\",\"4382\",\"39\",\"0\",\"Training\",\"Stims/Figures/111-J-10-3.bmp\",\"paka:ta\",\"Right\",\"37\",\"8\",\"3\",\"4\",\"P\",\"J\",\"115\"
\"\",\"\",\"approach-retreat\",\"119\",\"905619\",\"0.0-119.0\",\"\",\"\",\"2-3\",\"4001\",\"37\",\"0\",\"Training\",\"Stims/Figures/71-C-30-1.bmp\",\"nala:la\",\"Right\",\"39\",\"8\",\"4\",\"4\",\"S\",\"J\",\"116\"
\"\",\"\",\"approach-retreat\",\"120\",\"911507\",\"0.0-120.0\",\"\",\"\",\"2-3\",\"4384\",\"39\",\"1\",\"Training\",\"Stims/Figures/71-J-0-1.bmp\",\"ta:kata\",\"Left\",\"39\",\"8\",\"5\",\"4\",\"P\",\"J\",\"117\"
\"\",\"\",\"approach-retreat\",\"121\",\"917435\",\"0.0-121.0\",\"\",\"\",\"2-3\",\"4424\",\"39\",\"1\",\"Training\",\"Stims/Figures/128-C-30-3.bmp\",\"ma:la:na\",\"Right\",\"39\",\"8\",\"6\",\"4\",\"S\",\"J\",\"118\"
\"\",\"\",\"approach-retreat\",\"122\",\"923327\",\"0.0-122.0\",\"\",\"\",\"2-3\",\"4388\",\"38\",\"0\",\"Training\",\"Stims/Figures/87-J-10-4.bmp\",\"takaka\",\"Up\",\"40\",\"8\",\"7\",\"4\",\"P\",\"J\",\"119\"
\"\",\"\",\"approach-retreat\",\"123\",\"929197\",\"0.0-123.0\",\"\",\"\",\"2-3\",\"4361\",\"37\",\"1\",\"Training\",\"Stims/Figures/7-C-20-4.bmp\",\"ma:ma:la\",\"Left\",\"37\",\"8\",\"8\",\"4\",\"S\",\"J\",\"120\"
\"\",\"\",\"approach-retreat\",\"124\",\"934878\",\"0.0-124.0\",\"\",\"\",\"2-3\",\"4176\",\"40\",\"1\",\"Training\",\"Stims/Figures/111-C-30-3.bmp\",\"ma:ma:na\",\"Down\",\"40\",\"8\",\"9\",\"4\",\"S\",\"J\",\"121\"
\"\",\"\",\"approach-retreat\",\"125\",\"940797\",\"0.0-125.0\",\"\",\"\",\"2-3\",\"4410\",\"40\",\"1\",\"Training\",\"Stims/Figures/27-C-30-1.bmp\",\"na:ma:na\",\"Down\",\"40\",\"8\",\"10\",\"4\",\"S\",\"J\",\"122\"
\"\",\"\",\"approach-retreat\",\"126\",\"949942\",\"0.0-126.0\",\"\",\"\",\"2-3\",\"7637\",\"38\",\"1\",\"Training\",\"Stims/Figures/139-C-20-2.bmp\",\"namana\",\"Up\",\"38\",\"8\",\"11\",\"4\",\"S\",\"J\",\"123\"
\"\",\"\",\"approach-retreat\",\"127\",\"955995\",\"0.0-127.0\",\"\",\"\",\"2-3\",\"4545\",\"40\",\"1\",\"Training\",\"Stims/Figures/7-J-10-4.bmp\",\"pa:pa:ta\",\"Up\",\"40\",\"8\",\"12\",\"4\",\"P\",\"J\",\"124\"
\"\",\"\",\"approach-retreat\",\"128\",\"962011\",\"0.0-128.0\",\"\",\"\",\"2-3\",\"4512\",\"37\",\"1\",\"Training\",\"Stims/Figures/27-J-0-1.bmp\",\"tapata\",\"Right\",\"37\",\"8\",\"13\",\"4\",\"P\",\"J\",\"125\"
\"\",\"\",\"approach-retreat\",\"129\",\"967963\",\"0.0-129.0\",\"\",\"\",\"2-3\",\"4449\",\"40\",\"0\",\"Training\",\"Stims/Figures/128-J-10-3.bmp\",\"pa:ka:ka\",\"Down\",\"38\",\"8\",\"14\",\"4\",\"P\",\"J\",\"126\"
\"\",\"\",\"approach-retreat\",\"130\",\"973859\",\"0.0-130.0\",\"\",\"\",\"2-3\",\"4393\",\"38\",\"0\",\"Training\",\"Stims/Figures/84-J-0-2.bmp\",\"taka:ka\",\"Up\",\"40\",\"8\",\"15\",\"4\",\"P\",\"J\",\"127\"
\"\",\"\",\"approach-retreat\",\"131\",\"980020\",\"0.0-131.0\",\"\",\"\",\"2-3\",\"4658\",\"38\",\"0\",\"Training\",\"Stims/Figures/87-C-20-4.bmp\",\"nama:na\",\"Down\",\"40\",\"8\",\"16\",\"4\",\"S\",\"J\",\"128\"
\"\",\"\",\"approach-retreat\",\"132\",\"985686\",\"0.0-132.0\",\"\",\"\",\"2-3\",\"4157\",\"40\",\"1\",\"Training\",\"Stims/Figures/71-C-30-1.bmp\",\"nala:la\",\"Down\",\"40\",\"9\",\"1\",\"4\",\"S\",\"J\",\"129\"
\"\",\"\",\"approach-retreat\",\"133\",\"991678\",\"0.0-133.0\",\"\",\"\",\"2-3\",\"4482\",\"37\",\"1\",\"Training\",\"Stims/Figures/7-C-20-4.bmp\",\"ma:ma:la\",\"Left\",\"37\",\"9\",\"2\",\"4\",\"S\",\"J\",\"130\"
\"\",\"\",\"approach-retreat\",\"134\",\"997462\",\"0.0-134.0\",\"\",\"\",\"2-3\",\"4274\",\"38\",\"0\",\"Training\",\"Stims/Figures/71-J-0-1.bmp\",\"ta:kata\",\"Up\",\"40\",\"9\",\"3\",\"4\",\"P\",\"J\",\"131\"
\"\",\"\",\"approach-retreat\",\"135\",\"1003205\",\"0.0-135.0\",\"\",\"\",\"2-3\",\"4235\",\"40\",\"0\",\"Training\",\"Stims/Figures/7-J-10-4.bmp\",\"pa:pa:ta\",\"Down\",\"38\",\"9\",\"4\",\"4\",\"P\",\"J\",\"132\"
\"\",\"\",\"approach-retreat\",\"136\",\"1008974\",\"0.0-136.0\",\"\",\"\",\"2-3\",\"4260\",\"37\",\"1\",\"Training\",\"Stims/Figures/139-C-20-2.bmp\",\"namana\",\"Left\",\"37\",\"9\",\"5\",\"4\",\"S\",\"J\",\"133\"
\"\",\"\",\"approach-retreat\",\"137\",\"1015059\",\"0.0-137.0\",\"\",\"\",\"2-3\",\"4577\",\"39\",\"1\",\"Training\",\"Stims/Figures/139-J-0-2.bmp\",\"ta:pa:ka\",\"Left\",\"39\",\"9\",\"6\",\"4\",\"P\",\"J\",\"134\"
\"\",\"\",\"approach-retreat\",\"138\",\"1020723\",\"0.0-138.0\",\"\",\"\",\"2-3\",\"4162\",\"37\",\"0\",\"Training\",\"Stims/Figures/128-C-30-3.bmp\",\"ma:la:na\",\"Right\",\"39\",\"9\",\"7\",\"4\",\"S\",\"J\",\"135\"
\"\",\"\",\"approach-retreat\",\"139\",\"1026179\",\"0.0-139.0\",\"\",\"\",\"2-3\",\"3952\",\"39\",\"0\",\"Training\",\"Stims/Figures/27-J-0-1.bmp\",\"tapata\",\"Right\",\"37\",\"9\",\"8\",\"4\",\"P\",\"J\",\"136\"
\"\",\"\",\"approach-retreat\",\"140\",\"1031780\",\"0.0-140.0\",\"\",\"\",\"2-3\",\"4096\",\"40\",\"1\",\"Training\",\"Stims/Figures/111-J-10-3.bmp\",\"paka:ta\",\"Up\",\"40\",\"9\",\"9\",\"4\",\"P\",\"J\",\"137\"
\"\",\"\",\"approach-retreat\",\"141\",\"1037429\",\"0.0-141.0\",\"\",\"\",\"2-3\",\"4144\",\"40\",\"1\",\"Training\",\"Stims/Figures/111-C-30-3.bmp\",\"ma:ma:na\",\"Down\",\"40\",\"9\",\"10\",\"4\",\"S\",\"J\",\"138\"
\"\",\"\",\"approach-retreat\",\"142\",\"1043149\",\"0.0-142.0\",\"\",\"\",\"2-3\",\"4218\",\"37\",\"1\",\"Training\",\"Stims/Figures/128-J-10-3.bmp\",\"pa:ka:ka\",\"Right\",\"37\",\"9\",\"11\",\"4\",\"P\",\"J\",\"139\"
\"\",\"\",\"approach-retreat\",\"143\",\"1048873\",\"0.0-143.0\",\"\",\"\",\"2-3\",\"4212\",\"39\",\"0\",\"Training\",\"Stims/Figures/84-J-0-2.bmp\",\"taka:ka\",\"Right\",\"37\",\"9\",\"12\",\"4\",\"P\",\"J\",\"140\"
\"\",\"\",\"approach-retreat\",\"144\",\"1054477\",\"0.0-144.0\",\"\",\"\",\"2-3\",\"4097\",\"37\",\"1\",\"Training\",\"Stims/Figures/27-C-30-1.bmp\",\"na:ma:na\",\"Left\",\"37\",\"9\",\"13\",\"4\",\"S\",\"J\",\"141\"
\"\",\"\",\"approach-retreat\",\"145\",\"1060229\",\"0.0-145.0\",\"\",\"\",\"2-3\",\"4243\",\"40\",\"0\",\"Training\",\"Stims/Figures/84-C-20-2.bmp\",\"na:lala\",\"Up\",\"38\",\"9\",\"14\",\"4\",\"S\",\"J\",\"142\"
\"\",\"\",\"approach-retreat\",\"146\",\"1065942\",\"0.0-146.0\",\"\",\"\",\"2-3\",\"4203\",\"38\",\"0\",\"Training\",\"Stims/Figures/87-J-10-4.bmp\",\"takaka\",\"Up\",\"40\",\"9\",\"15\",\"4\",\"P\",\"J\",\"143\"
\"\",\"\",\"approach-retreat\",\"147\",\"1071742\",\"0.0-147.0\",\"\",\"\",\"2-3\",\"4290\",\"40\",\"1\",\"Training\",\"Stims/Figures/87-C-20-4.bmp\",\"nama:na\",\"Down\",\"40\",\"9\",\"16\",\"4\",\"S\",\"J\",\"144\"
\"24411\",\"\",\"instructions\",\"148\",\"1096154\",\"0.0-148.0\",\"[{\"\"page_index\"\":0,\"\"viewing_time\"\":24410}]\",\"\",\"\",\"\",\"\",\"\",\"\",\"\",\"\",\"\",\"\",\"\",\"\",\"\",\"\",\"\",\"\"
\"\",\"\",\"approach-retreat\",\"149\",\"1101916\",\"0.0-149.0\",\"\",\"\",\"2-3\",\"4256\",\"38\",\"0\",\"Testing\",\"Stims/Figures/71-J-0-1.bmp\",\"ta:kata\",\"Up\",\"40\",\"1\",\"1\",\"4\",\"P\",\"J\",\"1\"
\"\",\"\",\"approach-retreat\",\"150\",\"1109725\",\"0.0-150.0\",\"\",\"\",\"2-3\",\"6302\",\"40\",\"0\",\"Testing\",\"Stims/Figures/94-J-0-2.bmp\",\"takata\",\"Down\",\"38\",\"1\",\"2\",\"4\",\"P\",\"J\",\"2\"
\"\",\"\",\"approach-retreat\",\"151\",\"1116332\",\"0.0-151.0\",\"\",\"\",\"2-3\",\"5100\",\"37\",\"1\",\"Testing\",\"Stims/Figures/144-C-30-3.bmp\",\"nalala\",\"Left\",\"37\",\"1\",\"3\",\"4\",\"S\",\"J\",\"3\"
\"\",\"\",\"approach-retreat\",\"152\",\"1123941\",\"0.0-152.0\",\"\",\"\",\"2-3\",\"6101\",\"39\",\"0\",\"Testing\",\"Stims/Figures/111-C-30-3.bmp\",\"ma:ma:na\",\"Left\",\"37\",\"1\",\"4\",\"4\",\"S\",\"J\",\"4\"
\"\",\"\",\"approach-retreat\",\"153\",\"1130709\",\"0.0-153.0\",\"\",\"\",\"2-3\",\"5261\",\"40\",\"0\",\"Testing\",\"Stims/Figures/128-J-10-3.bmp\",\"pa:ka:ka\",\"Down\",\"38\",\"1\",\"5\",\"4\",\"P\",\"J\",\"5\"
\"\",\"\",\"approach-retreat\",\"154\",\"1138939\",\"0.0-154.0\",\"\",\"\",\"2-3\",\"6723\",\"39\",\"1\",\"Testing\",\"Stims/Figures/93-C-30-1.bmp\",\"ma:lana\",\"Right\",\"39\",\"1\",\"6\",\"4\",\"S\",\"J\",\"6\"
\"\",\"\",\"approach-retreat\",\"155\",\"1145467\",\"0.0-155.0\",\"\",\"\",\"2-3\",\"5023\",\"37\",\"1\",\"Testing\",\"Stims/Figures/144-J-10-3.bmp\",\"pa:pata\",\"Right\",\"37\",\"1\",\"7\",\"4\",\"P\",\"J\",\"7\"
\"\",\"\",\"approach-retreat\",\"156\",\"1153019\",\"0.0-156.0\",\"\",\"\",\"2-3\",\"6049\",\"37\",\"1\",\"Testing\",\"Stims/Figures/7-C-20-4.bmp\",\"ma:ma:la\",\"Left\",\"37\",\"1\",\"8\",\"4\",\"S\",\"J\",\"8\"
\"\",\"\",\"approach-retreat\",\"157\",\"1159316\",\"0.0-157.0\",\"\",\"\",\"2-3\",\"4793\",\"39\",\"0\",\"Testing\",\"Stims/Figures/84-C-20-2.bmp\",\"na:lala\",\"Left\",\"37\",\"1\",\"9\",\"4\",\"S\",\"J\",\"9\"
\"\",\"\",\"approach-retreat\",\"158\",\"1170405\",\"0.0-158.0\",\"\",\"\",\"2-3\",\"9583\",\"40\",\"1\",\"Testing\",\"Stims/Figures/111-J-10-3.bmp\",\"paka:ta\",\"Up\",\"40\",\"1\",\"10\",\"4\",\"P\",\"J\",\"10\"
\"\",\"\",\"approach-retreat\",\"159\",\"1176317\",\"0.0-159.0\",\"\",\"\",\"2-3\",\"4404\",\"38\",\"0\",\"Testing\",\"Stims/Figures/27-J-0-1.bmp\",\"tapata\",\"Up\",\"40\",\"1\",\"11\",\"4\",\"P\",\"J\",\"11\"
\"\",\"\",\"approach-retreat\",\"160\",\"1184540\",\"0.0-160.0\",\"\",\"\",\"2-3\",\"6717\",\"40\",\"1\",\"Testing\",\"Stims/Figures/74-C-20-4.bmp\",\"mamala\",\"Down\",\"40\",\"1\",\"12\",\"4\",\"S\",\"J\",\"12\"
\"\",\"\",\"approach-retreat\",\"161\",\"1190229\",\"0.0-161.0\",\"\",\"\",\"2-3\",\"4181\",\"40\",\"0\",\"Testing\",\"Stims/Figures/93-J-0-1.bmp\",\"ta:paka\",\"Down\",\"38\",\"1\",\"13\",\"4\",\"P\",\"J\",\"13\"
\"\",\"\",\"approach-retreat\",\"162\",\"1196683\",\"0.0-162.0\",\"\",\"\",\"2-3\",\"4950\",\"40\",\"0\",\"Testing\",\"Stims/Figures/71-C-30-1.bmp\",\"nala:la\",\"Up\",\"38\",\"1\",\"14\",\"4\",\"S\",\"J\",\"14\"
\"\",\"\",\"approach-retreat\",\"163\",\"1202395\",\"0.0-163.0\",\"\",\"\",\"2-3\",\"4209\",\"39\",\"0\",\"Testing\",\"Stims/Figures/84-J-0-2.bmp\",\"taka:ka\",\"Right\",\"37\",\"1\",\"15\",\"4\",\"P\",\"J\",\"15\"
\"\",\"\",\"approach-retreat\",\"164\",\"1208234\",\"0.0-164.0\",\"\",\"\",\"2-3\",\"4336\",\"37\",\"1\",\"Testing\",\"Stims/Figures/74-J-10-4.bmp\",\"tapa:ta\",\"Right\",\"37\",\"1\",\"16\",\"4\",\"P\",\"J\",\"16\"
\"\",\"\",\"approach-retreat\",\"165\",\"1214234\",\"0.0-165.0\",\"\",\"\",\"2-3\",\"4496\",\"37\",\"0\",\"Testing\",\"Stims/Figures/128-C-30-3.bmp\",\"ma:la:na\",\"Right\",\"39\",\"1\",\"17\",\"4\",\"S\",\"J\",\"17\"
\"\",\"\",\"approach-retreat\",\"166\",\"1219973\",\"0.0-166.0\",\"\",\"\",\"2-3\",\"4236\",\"39\",\"1\",\"Testing\",\"Stims/Figures/87-C-20-4.bmp\",\"nama:na\",\"Right\",\"39\",\"1\",\"18\",\"4\",\"S\",\"J\",\"18\"
\"\",\"\",\"approach-retreat\",\"167\",\"1225996\",\"0.0-167.0\",\"\",\"\",\"2-3\",\"4508\",\"39\",\"1\",\"Testing\",\"Stims/Figures/7-J-10-4.bmp\",\"pa:pa:ta\",\"Left\",\"39\",\"1\",\"19\",\"4\",\"P\",\"J\",\"19\"
\"\",\"\",\"approach-retreat\",\"168\",\"1231670\",\"0.0-168.0\",\"\",\"\",\"2-3\",\"4165\",\"37\",\"0\",\"Testing\",\"Stims/Figures/87-J-10-4.bmp\",\"takaka\",\"Left\",\"39\",\"1\",\"20\",\"4\",\"P\",\"J\",\"20\"
\"\",\"\",\"approach-retreat\",\"169\",\"1237931\",\"0.0-169.0\",\"\",\"\",\"2-3\",\"4755\",\"38\",\"0\",\"Testing\",\"Stims/Figures/139-J-0-2.bmp\",\"ta:pa:ka\",\"Up\",\"40\",\"1\",\"21\",\"4\",\"P\",\"J\",\"21\"
\"\",\"\",\"approach-retreat\",\"170\",\"1245780\",\"0.0-170.0\",\"\",\"\",\"2-3\",\"6343\",\"40\",\"1\",\"Testing\",\"Stims/Figures/94-C-20-2.bmp\",\"ma:lala\",\"Down\",\"40\",\"1\",\"22\",\"4\",\"S\",\"J\",\"22\"
\"\",\"\",\"approach-retreat\",\"171\",\"1254626\",\"0.0-171.0\",\"\",\"\",\"2-3\",\"7340\",\"40\",\"0\",\"Testing\",\"Stims/Figures/27-C-30-1.bmp\",\"na:ma:na\",\"Up\",\"38\",\"1\",\"23\",\"4\",\"S\",\"J\",\"23\"
\"\",\"\",\"approach-retreat\",\"172\",\"1261700\",\"0.0-172.0\",\"\",\"\",\"2-3\",\"5570\",\"38\",\"0\",\"Testing\",\"Stims/Figures/139-C-20-2.bmp\",\"namana\",\"Down\",\"40\",\"1\",\"24\",\"4\",\"S\",\"J\",\"24\"
\"\",\"\",\"approach-retreat\",\"173\",\"1267458\",\"0.0-173.0\",\"\",\"\",\"2-3\",\"4255\",\"39\",\"1\",\"Testing\",\"Stims/Figures/74-J-10-4.bmp\",\"tapa:ta\",\"Left\",\"39\",\"2\",\"1\",\"4\",\"P\",\"J\",\"25\"
\"\",\"\",\"approach-retreat\",\"174\",\"1276773\",\"0.0-174.0\",\"\",\"\",\"2-3\",\"7811\",\"37\",\"1\",\"Testing\",\"Stims/Figures/139-C-20-2.bmp\",\"namana\",\"Left\",\"37\",\"2\",\"2\",\"4\",\"S\",\"J\",\"26\"
\"\",\"\",\"approach-retreat\",\"175\",\"1283348\",\"0.0-175.0\",\"\",\"\",\"2-3\",\"5071\",\"40\",\"1\",\"Testing\",\"Stims/Figures/71-J-0-1.bmp\",\"ta:kata\",\"Up\",\"40\",\"2\",\"3\",\"4\",\"P\",\"J\",\"27\"
\"\",\"\",\"approach-retreat\",\"176\",\"1289908\",\"0.0-176.0\",\"\",\"\",\"2-3\",\"5054\",\"40\",\"1\",\"Testing\",\"Stims/Figures/111-C-30-3.bmp\",\"ma:ma:na\",\"Down\",\"40\",\"2\",\"4\",\"4\",\"S\",\"J\",\"28\"
\"\",\"\",\"approach-retreat\",\"177\",\"1296859\",\"0.0-177.0\",\"\",\"\",\"2-3\",\"5443\",\"39\",\"1\",\"Testing\",\"Stims/Figures/144-C-30-3.bmp\",\"nalala\",\"Right\",\"39\",\"2\",\"5\",\"4\",\"S\",\"J\",\"29\"
\"\",\"\",\"approach-retreat\",\"178\",\"1302837\",\"0.0-178.0\",\"\",\"\",\"2-3\",\"4470\",\"40\",\"0\",\"Testing\",\"Stims/Figures/111-J-10-3.bmp\",\"paka:ta\",\"Down\",\"38\",\"2\",\"6\",\"4\",\"P\",\"J\",\"30\"
\"\",\"\",\"approach-retreat\",\"179\",\"1310227\",\"0.0-179.0\",\"\",\"\",\"2-3\",\"5884\",\"39\",\"1\",\"Testing\",\"Stims/Figures/27-C-30-1.bmp\",\"na:ma:na\",\"Right\",\"39\",\"2\",\"7\",\"4\",\"S\",\"J\",\"31\"
\"\",\"\",\"approach-retreat\",\"180\",\"1316043\",\"0.0-180.0\",\"\",\"\",\"2-3\",\"4308\",\"37\",\"0\",\"Testing\",\"Stims/Figures/84-J-0-2.bmp\",\"taka:ka\",\"Left\",\"39\",\"2\",\"8\",\"4\",\"P\",\"J\",\"32\"
\"\",\"\",\"approach-retreat\",\"181\",\"1323290\",\"0.0-181.0\",\"\",\"\",\"2-3\",\"5745\",\"39\",\"1\",\"Testing\",\"Stims/Figures/94-J-0-2.bmp\",\"takata\",\"Left\",\"39\",\"2\",\"9\",\"4\",\"P\",\"J\",\"33\"
\"\",\"\",\"approach-retreat\",\"182\",\"1332242\",\"0.0-182.0\",\"\",\"\",\"2-3\",\"7449\",\"38\",\"1\",\"Testing\",\"Stims/Figures/128-C-30-3.bmp\",\"ma:la:na\",\"Up\",\"38\",\"2\",\"10\",\"4\",\"S\",\"J\",\"34\"
\"\",\"\",\"approach-retreat\",\"183\",\"1338012\",\"0.0-183.0\",\"\",\"\",\"2-3\",\"4265\",\"40\",\"0\",\"Testing\",\"Stims/Figures/27-J-0-1.bmp\",\"tapata\",\"Down\",\"38\",\"2\",\"11\",\"4\",\"P\",\"J\",\"35\"
\"\",\"\",\"approach-retreat\",\"184\",\"1343780\",\"0.0-184.0\",\"\",\"\",\"2-3\",\"4261\",\"40\",\"0\",\"Testing\",\"Stims/Figures/74-C-20-4.bmp\",\"mamala\",\"Up\",\"38\",\"2\",\"12\",\"4\",\"S\",\"J\",\"36\"
\"\",\"\",\"approach-retreat\",\"185\",\"1349571\",\"0.0-185.0\",\"\",\"\",\"2-3\",\"4284\",\"37\",\"0\",\"Testing\",\"Stims/Figures/93-C-30-1.bmp\",\"ma:lana\",\"Right\",\"39\",\"2\",\"13\",\"4\",\"S\",\"J\",\"37\"
\"\",\"\",\"approach-retreat\",\"186\",\"1357452\",\"0.0-186.0\",\"\",\"\",\"2-3\",\"6375\",\"38\",\"0\",\"Testing\",\"Stims/Figures/94-C-20-2.bmp\",\"ma:lala\",\"Down\",\"40\",\"2\",\"14\",\"4\",\"S\",\"J\",\"38\"
\"\",\"\",\"approach-retreat\",\"187\",\"1364132\",\"0.0-187.0\",\"\",\"\",\"2-3\",\"5172\",\"39\",\"0\",\"Testing\",\"Stims/Figures/128-J-10-3.bmp\",\"pa:ka:ka\",\"Right\",\"37\",\"2\",\"15\",\"4\",\"P\",\"J\",\"39\"
\"\",\"\",\"approach-retreat\",\"188\",\"1370029\",\"0.0-188.0\",\"\",\"\",\"2-3\",\"4388\",\"40\",\"1\",\"Testing\",\"Stims/Figures/87-J-10-4.bmp\",\"takaka\",\"Up\",\"40\",\"2\",\"16\",\"4\",\"P\",\"J\",\"40\"
\"\",\"\",\"approach-retreat\",\"189\",\"1375794\",\"0.0-189.0\",\"\",\"\",\"2-3\",\"4256\",\"40\",\"0\",\"Testing\",\"Stims/Figures/84-C-20-2.bmp\",\"na:lala\",\"Up\",\"38\",\"2\",\"17\",\"4\",\"S\",\"J\",\"41\"
\"\",\"\",\"approach-retreat\",\"190\",\"1381411\",\"0.0-190.0\",\"\",\"\",\"2-3\",\"4113\",\"37\",\"0\",\"Testing\",\"Stims/Figures/139-J-0-2.bmp\",\"ta:pa:ka\",\"Left\",\"39\",\"2\",\"18\",\"4\",\"P\",\"J\",\"42\"
\"\",\"\",\"approach-retreat\",\"191\",\"1387130\",\"0.0-191.0\",\"\",\"\",\"2-3\",\"4217\",\"40\",\"1\",\"Testing\",\"Stims/Figures/87-C-20-4.bmp\",\"nama:na\",\"Down\",\"40\",\"2\",\"19\",\"4\",\"S\",\"J\",\"43\"
\"\",\"\",\"approach-retreat\",\"192\",\"1392866\",\"0.0-192.0\",\"\",\"\",\"2-3\",\"4234\",\"37\",\"0\",\"Testing\",\"Stims/Figures/7-C-20-4.bmp\",\"ma:ma:la\",\"Right\",\"39\",\"2\",\"20\",\"4\",\"S\",\"J\",\"44\"
\"\",\"\",\"approach-retreat\",\"193\",\"1398523\",\"0.0-193.0\",\"\",\"\",\"2-3\",\"4153\",\"38\",\"0\",\"Testing\",\"Stims/Figures/93-J-0-1.bmp\",\"ta:paka\",\"Up\",\"40\",\"2\",\"21\",\"4\",\"P\",\"J\",\"45\"
\"\",\"\",\"approach-retreat\",\"194\",\"1404348\",\"0.0-194.0\",\"\",\"\",\"2-3\",\"4319\",\"37\",\"0\",\"Testing\",\"Stims/Figures/7-J-10-4.bmp\",\"pa:pa:ta\",\"Left\",\"39\",\"2\",\"22\",\"4\",\"P\",\"J\",\"46\"
\"\",\"\",\"approach-retreat\",\"195\",\"1410317\",\"0.0-195.0\",\"\",\"\",\"2-3\",\"4461\",\"40\",\"1\",\"Testing\",\"Stims/Figures/71-C-30-1.bmp\",\"nala:la\",\"Down\",\"40\",\"2\",\"23\",\"4\",\"S\",\"J\",\"47\"
\"\",\"\",\"approach-retreat\",\"196\",\"1415844\",\"0.0-196.0\",\"\",\"\",\"2-3\",\"4022\",\"39\",\"0\",\"Testing\",\"Stims/Figures/144-J-10-3.bmp\",\"pa:pata\",\"Right\",\"37\",\"2\",\"24\",\"4\",\"P\",\"J\",\"48\"
\"\",\"\",\"approach-retreat\",\"197\",\"1421557\",\"0.0-197.0\",\"\",\"\",\"2-3\",\"4204\",\"37\",\"0\",\"Testing\",\"Stims/Figures/139-C-20-2.bmp\",\"namana\",\"Right\",\"39\",\"3\",\"1\",\"4\",\"S\",\"J\",\"49\"
\"\",\"\",\"approach-retreat\",\"198\",\"1427413\",\"0.0-198.0\",\"\",\"\",\"2-3\",\"4349\",\"40\",\"0\",\"Testing\",\"Stims/Figures/111-C-30-3.bmp\",\"ma:ma:na\",\"Up\",\"38\",\"3\",\"2\",\"4\",\"S\",\"J\",\"50\"
\"\",\"\",\"approach-retreat\",\"199\",\"1434372\",\"0.0-199.0\",\"\",\"\",\"2-3\",\"5453\",\"38\",\"0\",\"Testing\",\"Stims/Figures/87-C-20-4.bmp\",\"nama:na\",\"Down\",\"40\",\"3\",\"3\",\"4\",\"S\",\"J\",\"51\"
\"\",\"\",\"approach-retreat\",\"200\",\"1439987\",\"0.0-200.0\",\"\",\"\",\"2-3\",\"4112\",\"40\",\"0\",\"Testing\",\"Stims/Figures/139-J-0-2.bmp\",\"ta:pa:ka\",\"Down\",\"38\",\"3\",\"4\",\"4\",\"P\",\"J\",\"52\"
\"\",\"\",\"approach-retreat\",\"201\",\"1446115\",\"0.0-201.0\",\"\",\"\",\"2-3\",\"4625\",\"37\",\"0\",\"Testing\",\"Stims/Figures/84-C-20-2.bmp\",\"na:lala\",\"Right\",\"39\",\"3\",\"5\",\"4\",\"S\",\"J\",\"53\"
\"\",\"\",\"approach-retreat\",\"202\",\"1452003\",\"0.0-202.0\",\"\",\"\",\"2-3\",\"4385\",\"40\",\"0\",\"Testing\",\"Stims/Figures/144-J-10-3.bmp\",\"pa:pata\",\"Down\",\"38\",\"3\",\"6\",\"4\",\"P\",\"J\",\"54\"
\"\",\"\",\"approach-retreat\",\"203\",\"1458092\",\"0.0-203.0\",\"\",\"\",\"2-3\",\"4586\",\"37\",\"1\",\"Testing\",\"Stims/Figures/128-C-30-3.bmp\",\"ma:la:na\",\"Left\",\"37\",\"3\",\"7\",\"4\",\"S\",\"J\",\"55\"
\"\",\"\",\"approach-retreat\",\"204\",\"1463965\",\"0.0-204.0\",\"\",\"\",\"2-3\",\"4365\",\"38\",\"0\",\"Testing\",\"Stims/Figures/7-J-10-4.bmp\",\"pa:pa:ta\",\"Up\",\"40\",\"3\",\"8\",\"4\",\"P\",\"J\",\"56\"
\"\",\"\",\"approach-retreat\",\"205\",\"1469685\",\"0.0-205.0\",\"\",\"\",\"2-3\",\"4212\",\"37\",\"0\",\"Testing\",\"Stims/Figures/27-J-0-1.bmp\",\"tapata\",\"Left\",\"39\",\"3\",\"9\",\"4\",\"P\",\"J\",\"57\"
\"\",\"\",\"approach-retreat\",\"206\",\"1475645\",\"0.0-206.0\",\"\",\"\",\"2-3\",\"4453\",\"39\",\"1\",\"Testing\",\"Stims/Figures/71-J-0-1.bmp\",\"ta:kata\",\"Left\",\"39\",\"3\",\"10\",\"4\",\"P\",\"J\",\"58\"
\"\",\"\",\"approach-retreat\",\"207\",\"1481508\",\"0.0-207.0\",\"\",\"\",\"2-3\",\"4357\",\"37\",\"0\",\"Testing\",\"Stims/Figures/74-C-20-4.bmp\",\"mamala\",\"Right\",\"39\",\"3\",\"11\",\"4\",\"S\",\"J\",\"59\"
\"\",\"\",\"approach-retreat\",\"208\",\"1487389\",\"0.0-208.0\",\"\",\"\",\"2-3\",\"4374\",\"40\",\"0\",\"Testing\",\"Stims/Figures/84-J-0-2.bmp\",\"taka:ka\",\"Down\",\"38\",\"3\",\"12\",\"4\",\"P\",\"J\",\"60\"
\"\",\"\",\"approach-retreat\",\"209\",\"1493276\",\"0.0-209.0\",\"\",\"\",\"2-3\",\"4380\",\"37\",\"0\",\"Testing\",\"Stims/Figures/7-C-20-4.bmp\",\"ma:ma:la\",\"Right\",\"39\",\"3\",\"13\",\"4\",\"S\",\"J\",\"61\"
\"\",\"\",\"approach-retreat\",\"210\",\"1500067\",\"0.0-210.0\",\"\",\"\",\"2-3\",\"5287\",\"37\",\"1\",\"Testing\",\"Stims/Figures/74-J-10-4.bmp\",\"tapa:ta\",\"Right\",\"37\",\"3\",\"14\",\"4\",\"P\",\"J\",\"62\"
\"\",\"\",\"approach-retreat\",\"211\",\"1506458\",\"0.0-211.0\",\"\",\"\",\"2-3\",\"4889\",\"39\",\"0\",\"Testing\",\"Stims/Figures/144-C-30-3.bmp\",\"nalala\",\"Left\",\"37\",\"3\",\"15\",\"4\",\"S\",\"J\",\"63\"
\"\",\"\",\"approach-retreat\",\"212\",\"1512219\",\"0.0-212.0\",\"\",\"\",\"2-3\",\"4258\",\"38\",\"0\",\"Testing\",\"Stims/Figures/94-C-20-2.bmp\",\"ma:lala\",\"Down\",\"40\",\"3\",\"16\",\"4\",\"S\",\"J\",\"64\"
\"\",\"\",\"approach-retreat\",\"213\",\"1518596\",\"0.0-213.0\",\"\",\"\",\"2-3\",\"4873\",\"39\",\"1\",\"Testing\",\"Stims/Figures/93-C-30-1.bmp\",\"ma:lana\",\"Right\",\"39\",\"3\",\"17\",\"4\",\"S\",\"J\",\"65\"
\"\",\"\",\"approach-retreat\",\"214\",\"1524645\",\"0.0-214.0\",\"\",\"\",\"2-3\",\"4540\",\"40\",\"0\",\"Testing\",\"Stims/Figures/27-C-30-1.bmp\",\"na:ma:na\",\"Up\",\"38\",\"3\",\"18\",\"4\",\"S\",\"J\",\"66\"
\"\",\"\",\"approach-retreat\",\"215\",\"1531668\",\"0.0-215.0\",\"\",\"\",\"2-3\",\"5517\",\"39\",\"1\",\"Testing\",\"Stims/Figures/94-J-0-2.bmp\",\"takata\",\"Left\",\"39\",\"3\",\"19\",\"4\",\"P\",\"J\",\"67\"
\"\",\"\",\"approach-retreat\",\"216\",\"1538977\",\"0.0-216.0\",\"\",\"\",\"2-3\",\"5802\",\"38\",\"0\",\"Testing\",\"Stims/Figures/71-C-30-1.bmp\",\"nala:la\",\"Down\",\"40\",\"3\",\"20\",\"4\",\"S\",\"J\",\"68\"
\"\",\"\",\"approach-retreat\",\"217\",\"1545276\",\"0.0-217.0\",\"\",\"\",\"2-3\",\"4793\",\"38\",\"0\",\"Testing\",\"Stims/Figures/93-J-0-1.bmp\",\"ta:paka\",\"Up\",\"40\",\"3\",\"21\",\"4\",\"P\",\"J\",\"69\"
\"\",\"\",\"approach-retreat\",\"218\",\"1551085\",\"0.0-218.0\",\"\",\"\",\"2-3\",\"4301\",\"40\",\"1\",\"Testing\",\"Stims/Figures/87-J-10-4.bmp\",\"takaka\",\"Up\",\"40\",\"3\",\"22\",\"4\",\"P\",\"J\",\"70\"
\"\",\"\",\"approach-retreat\",\"219\",\"1556939\",\"0.0-219.0\",\"\",\"\",\"2-3\",\"4347\",\"37\",\"0\",\"Testing\",\"Stims/Figures/128-J-10-3.bmp\",\"pa:ka:ka\",\"Left\",\"39\",\"3\",\"23\",\"4\",\"P\",\"J\",\"71\"
\"\",\"\",\"approach-retreat\",\"220\",\"1563091\",\"0.0-220.0\",\"\",\"\",\"2-3\",\"4650\",\"40\",\"1\",\"Testing\",\"Stims/Figures/111-J-10-3.bmp\",\"paka:ta\",\"Up\",\"40\",\"3\",\"24\",\"4\",\"P\",\"J\",\"72\"
\"\",\"\",\"approach-retreat\",\"221\",\"1569179\",\"0.0-221.0\",\"\",\"\",\"2-3\",\"4584\",\"38\",\"1\",\"Testing\",\"Stims/Figures/84-C-20-2.bmp\",\"na:lala\",\"Up\",\"38\",\"4\",\"1\",\"4\",\"S\",\"J\",\"73\"
\"\",\"\",\"approach-retreat\",\"222\",\"1575052\",\"0.0-222.0\",\"\",\"\",\"2-3\",\"4370\",\"37\",\"0\",\"Testing\",\"Stims/Figures/94-J-0-2.bmp\",\"takata\",\"Left\",\"39\",\"4\",\"2\",\"4\",\"P\",\"J\",\"74\"
\"\",\"\",\"approach-retreat\",\"223\",\"1580692\",\"0.0-223.0\",\"\",\"\",\"2-3\",\"4135\",\"40\",\"0\",\"Testing\",\"Stims/Figures/27-C-30-1.bmp\",\"na:ma:na\",\"Up\",\"38\",\"4\",\"3\",\"4\",\"S\",\"J\",\"75\"
\"\",\"\",\"approach-retreat\",\"224\",\"1586692\",\"0.0-224.0\",\"\",\"\",\"2-3\",\"4494\",\"37\",\"1\",\"Testing\",\"Stims/Figures/27-J-0-1.bmp\",\"tapata\",\"Right\",\"37\",\"4\",\"4\",\"4\",\"P\",\"J\",\"76\"
\"\",\"\",\"approach-retreat\",\"225\",\"1592700\",\"0.0-225.0\",\"\",\"\",\"2-3\",\"4501\",\"39\",\"0\",\"Testing\",\"Stims/Figures/87-C-20-4.bmp\",\"nama:na\",\"Left\",\"37\",\"4\",\"5\",\"4\",\"S\",\"J\",\"77\"
\"\",\"\",\"approach-retreat\",\"226\",\"1599229\",\"0.0-226.0\",\"\",\"\",\"2-3\",\"5023\",\"40\",\"1\",\"Testing\",\"Stims/Figures/139-C-20-2.bmp\",\"namana\",\"Down\",\"40\",\"4\",\"6\",\"4\",\"S\",\"J\",\"78\"
\"\",\"\",\"approach-retreat\",\"227\",\"1605412\",\"0.0-227.0\",\"\",\"\",\"2-3\",\"4676\",\"37\",\"0\",\"Testing\",\"Stims/Figures/128-J-10-3.bmp\",\"pa:ka:ka\",\"Left\",\"39\",\"4\",\"7\",\"4\",\"P\",\"J\",\"79\"
\"\",\"\",\"approach-retreat\",\"228\",\"1611613\",\"0.0-228.0\",\"\",\"\",\"2-3\",\"4693\",\"38\",\"0\",\"Testing\",\"Stims/Figures/128-C-30-3.bmp\",\"ma:la:na\",\"Down\",\"40\",\"4\",\"8\",\"4\",\"S\",\"J\",\"80\"
\"\",\"\",\"approach-retreat\",\"229\",\"1617522\",\"0.0-229.0\",\"\",\"\",\"2-3\",\"4407\",\"37\",\"0\",\"Testing\",\"Stims/Figures/7-J-10-4.bmp\",\"pa:pa:ta\",\"Left\",\"39\",\"4\",\"9\",\"4\",\"P\",\"J\",\"81\"
\"\",\"\",\"approach-retreat\",\"230\",\"1625179\",\"0.0-230.0\",\"\",\"\",\"2-3\",\"6153\",\"39\",\"0\",\"Testing\",\"Stims/Figures/84-J-0-2.bmp\",\"taka:ka\",\"Right\",\"37\",\"4\",\"10\",\"4\",\"P\",\"J\",\"82\"
\"\",\"\",\"approach-retreat\",\"231\",\"1631258\",\"0.0-231.0\",\"\",\"\",\"2-3\",\"4576\",\"38\",\"1\",\"Testing\",\"Stims/Figures/74-C-20-4.bmp\",\"mamala\",\"Up\",\"38\",\"4\",\"11\",\"4\",\"S\",\"J\",\"83\"
\"\",\"\",\"approach-retreat\",\"232\",\"1638148\",\"0.0-232.0\",\"\",\"\",\"2-3\",\"5387\",\"38\",\"1\",\"Testing\",\"Stims/Figures/111-J-10-3.bmp\",\"paka:ta\",\"Down\",\"38\",\"4\",\"12\",\"4\",\"P\",\"J\",\"84\"
\"\",\"\",\"approach-retreat\",\"233\",\"1644821\",\"0.0-233.0\",\"\",\"\",\"2-3\",\"5164\",\"38\",\"0\",\"Testing\",\"Stims/Figures/111-C-30-3.bmp\",\"ma:ma:na\",\"Down\",\"40\",\"4\",\"13\",\"4\",\"S\",\"J\",\"85\"
\"\",\"\",\"approach-retreat\",\"234\",\"1650709\",\"0.0-234.0\",\"\",\"\",\"2-3\",\"4385\",\"38\",\"1\",\"Testing\",\"Stims/Figures/93-C-30-1.bmp\",\"ma:lana\",\"Up\",\"38\",\"4\",\"14\",\"4\",\"S\",\"J\",\"86\"
\"\",\"\",\"approach-retreat\",\"235\",\"1656900\",\"0.0-235.0\",\"\",\"\",\"2-3\",\"4685\",\"37\",\"0\",\"Testing\",\"Stims/Figures/93-J-0-1.bmp\",\"ta:paka\",\"Left\",\"39\",\"4\",\"15\",\"4\",\"P\",\"J\",\"87\"
\"\",\"\",\"approach-retreat\",\"236\",\"1662588\",\"0.0-236.0\",\"\",\"\",\"2-3\",\"4181\",\"40\",\"0\",\"Testing\",\"Stims/Figures/139-J-0-2.bmp\",\"ta:pa:ka\",\"Down\",\"38\",\"4\",\"16\",\"4\",\"P\",\"J\",\"88\"
\"\",\"\",\"approach-retreat\",\"237\",\"1668412\",\"0.0-237.0\",\"\",\"\",\"2-3\",\"4317\",\"37\",\"1\",\"Testing\",\"Stims/Figures/71-J-0-1.bmp\",\"ta:kata\",\"Right\",\"37\",\"4\",\"17\",\"4\",\"P\",\"J\",\"89\"
\"\",\"\",\"approach-retreat\",\"238\",\"1674427\",\"0.0-238.0\",\"\",\"\",\"2-3\",\"4508\",\"37\",\"1\",\"Testing\",\"Stims/Figures/7-C-20-4.bmp\",\"ma:ma:la\",\"Left\",\"37\",\"4\",\"18\",\"4\",\"S\",\"J\",\"90\"
\"\",\"\",\"approach-retreat\",\"239\",\"1681026\",\"0.0-239.0\",\"\",\"\",\"2-3\",\"5097\",\"40\",\"1\",\"Testing\",\"Stims/Figures/87-J-10-4.bmp\",\"takaka\",\"Up\",\"40\",\"4\",\"19\",\"4\",\"P\",\"J\",\"91\"
\"\",\"\",\"approach-retreat\",\"240\",\"1686676\",\"0.0-240.0\",\"\",\"\",\"2-3\",\"4146\",\"37\",\"0\",\"Testing\",\"Stims/Figures/144-C-30-3.bmp\",\"nalala\",\"Right\",\"39\",\"4\",\"20\",\"4\",\"S\",\"J\",\"92\"
\"\",\"\",\"approach-retreat\",\"241\",\"1692627\",\"0.0-241.0\",\"\",\"\",\"2-3\",\"4448\",\"38\",\"0\",\"Testing\",\"Stims/Figures/74-J-10-4.bmp\",\"tapa:ta\",\"Up\",\"40\",\"4\",\"21\",\"4\",\"P\",\"J\",\"93\"
\"\",\"\",\"approach-retreat\",\"242\",\"1698683\",\"0.0-242.0\",\"\",\"\",\"2-3\",\"4553\",\"39\",\"1\",\"Testing\",\"Stims/Figures/71-C-30-1.bmp\",\"nala:la\",\"Right\",\"39\",\"4\",\"22\",\"4\",\"S\",\"J\",\"94\"
\"\",\"\",\"approach-retreat\",\"243\",\"1708821\",\"0.0-243.0\",\"\",\"\",\"2-3\",\"8630\",\"37\",\"0\",\"Testing\",\"Stims/Figures/94-C-20-2.bmp\",\"ma:lala\",\"Right\",\"39\",\"4\",\"23\",\"4\",\"S\",\"J\",\"95\"
\"\",\"\",\"approach-retreat\",\"244\",\"1714660\",\"0.0-244.0\",\"\",\"\",\"2-3\",\"4332\",\"40\",\"0\",\"Testing\",\"Stims/Figures/144-J-10-3.bmp\",\"pa:pata\",\"Down\",\"38\",\"4\",\"24\",\"4\",\"P\",\"J\",\"96\"
\"86462\",\"\",\"survey-text\",\"245\",\"1801128\",\"0.0-245.0\",\"\",\"{\"\"Q0\"\":\"\"PS1286/2017\"\"}\",\"\",\"\",\"\",\"\",\"\",\"\",\"\",\"\",\"\",\"\",\"\",\"\",\"\",\"\",\"\"
