"rt","key_press","trial_type","trial_index","time_elapsed","internal_node_id","view_history","responses","Id","Rt","ResKeyCode","ResCorr","TrialType2","Image","Label","Location","CorrectResponse","Block","BlockTrial","Condition","LabelType","Subcondition","trialNum"
"49449","32","text","0","49452","0.0-0.0-0.0","","","","","","","","","","","","","","","","",""
"285919","","instructions","1","335375","0.0-1.0","[{""page_index"":0,""viewing_time"":285918}]","","","","","","","","","","","","","","","",""
"62856","","survey-multi-choice","2","398264","0.0-2.0","","{""Q0"":""Da"",""Q1"":""Da"",""Q2"":""Da"",""Q3"":""Da"",""Q4"":""Da"",""Q5"":""Da""}","","","","","","","","","","","","","","",""
"","","bio","3","422209","0.0-3.0","","{""age"":""19"",""gender"":""f"",""specify"":""""}","","","","","","","","","","","","","","",""
"","","approach-retreat","4","432209","0.0-4.0","","","3-5","8493","39","1","Training","Stims/Figures/87-C-20-4.bmp","na:ma:la","Left","39","1","1","1","S","C","1"
"","","approach-retreat","5","438346","0.0-5.0","","","3-5","4626","40","0","Training","Stims/Figures/44-J-10-3.bmp","ta:pa:ta","Up","38","1","2","1","P","C","2"
"","","approach-retreat","6","446294","0.0-6.0","","","3-5","6434","38","0","Training","Stims/Figures/86-J-0-1.bmp","ta:pa:ta","Down","40","1","3","1","P","C","3"
"","","approach-retreat","7","453937","0.0-7.0","","","3-5","6131","39","0","Training","Stims/Figures/44-C-30-3.bmp","na:ma:la","Right","37","1","4","1","S","C","4"
"","","approach-retreat","8","460911","0.0-8.0","","","3-5","5463","39","1","Training","Stims/Figures/118-C-20-2.bmp","na:ma:la","Left","39","1","5","1","S","C","5"
"","","approach-retreat","9","468248","0.0-9.0","","","3-5","5825","37","0","Training","Stims/Figures/139-J-0-2.bmp","ta:pa:ta","Right","39","1","6","1","P","C","6"
"","","approach-retreat","10","475553","0.0-10.0","","","3-5","5792","38","1","Training","Stims/Figures/139-C-20-2.bmp","na:ma:la","Down","38","1","7","1","S","C","7"
"","","approach-retreat","11","483235","0.0-11.0","","","3-5","6168","38","0","Training","Stims/Figures/74-C-20-4.bmp","na:ma:la","Up","40","1","8","1","S","C","8"
"","","approach-retreat","12","492690","0.0-12.0","","","3-5","7944","38","0","Training","Stims/Figures/57-J-0-1.bmp","ta:pa:ta","Down","40","1","9","1","P","C","9"
"","","approach-retreat","13","498995","0.0-13.0","","","3-5","4795","37","1","Training","Stims/Figures/128-J-10-3.bmp","ta:pa:ta","Left","37","1","10","1","P","C","10"
"","","approach-retreat","14","505598","0.0-14.0","","","3-5","5088","37","1","Training","Stims/Figures/86-C-30-1.bmp","na:ma:la","Right","37","1","11","1","S","C","11"
"","","approach-retreat","15","511500","0.0-15.0","","","3-5","4386","39","1","Training","Stims/Figures/87-J-10-4.bmp","ta:pa:ta","Right","39","1","12","1","P","C","12"
"","","approach-retreat","16","517399","0.0-16.0","","","3-5","4388","38","1","Training","Stims/Figures/118-J-0-2.bmp","ta:pa:ta","Up","38","1","13","1","P","C","13"
"","","approach-retreat","17","523097","0.0-17.0","","","3-5","4189","38","1","Training","Stims/Figures/74-J-10-4.bmp","ta:pa:ta","Up","38","1","14","1","P","C","14"
"","","approach-retreat","18","534975","0.0-18.0","","","3-5","10368","38","1","Training","Stims/Figures/57-C-30-1.bmp","na:ma:la","Down","38","1","15","1","S","C","15"
"","","approach-retreat","19","541686","0.0-19.0","","","3-5","5198","39","1","Training","Stims/Figures/128-C-30-3.bmp","na:ma:la","Left","39","1","16","1","S","C","16"
"","","approach-retreat","20","548478","0.0-20.0","","","3-5","5279","40","1","Training","Stims/Figures/74-C-20-4.bmp","na:ma:la","Up","40","2","1","1","S","C","17"
"","","approach-retreat","21","555772","0.0-21.0","","","3-5","5782","38","1","Training","Stims/Figures/139-C-20-2.bmp","na:ma:la","Down","38","2","2","1","S","C","18"
"","","approach-retreat","22","563075","0.0-22.0","","","3-5","5789","40","1","Training","Stims/Figures/87-C-20-4.bmp","na:ma:la","Up","40","2","3","1","S","C","19"
"","","approach-retreat","23","569695","0.0-23.0","","","3-5","5108","40","1","Training","Stims/Figures/87-J-10-4.bmp","ta:pa:ta","Down","40","2","4","1","P","C","20"
"","","approach-retreat","24","577225","0.0-24.0","","","3-5","6019","39","1","Training","Stims/Figures/128-C-30-3.bmp","na:ma:la","Left","39","2","5","1","S","C","21"
"","","approach-retreat","25","583624","0.0-25.0","","","3-5","4887","39","1","Training","Stims/Figures/44-J-10-3.bmp","ta:pa:ta","Right","39","2","6","1","P","C","22"
"","","approach-retreat","26","589510","0.0-26.0","","","3-5","4376","38","1","Training","Stims/Figures/139-J-0-2.bmp","ta:pa:ta","Up","38","2","7","1","P","C","23"
"","","approach-retreat","27","595313","0.0-27.0","","","3-5","4291","37","1","Training","Stims/Figures/128-J-10-3.bmp","ta:pa:ta","Left","37","2","8","1","P","C","24"
"","","approach-retreat","28","601180","0.0-28.0","","","3-5","4355","40","1","Training","Stims/Figures/74-J-10-4.bmp","ta:pa:ta","Down","40","2","9","1","P","C","25"
"","","approach-retreat","29","607049","0.0-29.0","","","3-5","4358","37","1","Training","Stims/Figures/57-J-0-1.bmp","ta:pa:ta","Left","37","2","10","1","P","C","26"
"","","approach-retreat","30","612878","0.0-30.0","","","3-5","4319","39","1","Training","Stims/Figures/118-J-0-2.bmp","ta:pa:ta","Right","39","2","11","1","P","C","27"
"","","approach-retreat","31","619672","0.0-31.0","","","3-5","5283","37","1","Training","Stims/Figures/118-C-20-2.bmp","na:ma:la","Right","37","2","12","1","S","C","28"
"","","approach-retreat","32","626142","0.0-32.0","","","3-5","4961","38","1","Training","Stims/Figures/57-C-30-1.bmp","na:ma:la","Down","38","2","13","1","S","C","29"
"","","approach-retreat","33","632397","0.0-33.0","","","3-5","4742","39","1","Training","Stims/Figures/44-C-30-3.bmp","na:ma:la","Left","39","2","14","1","S","C","30"
"","","approach-retreat","34","638033","0.0-34.0","","","3-5","4124","38","1","Training","Stims/Figures/86-J-0-1.bmp","ta:pa:ta","Up","38","2","15","1","P","C","31"
"","","approach-retreat","35","644917","0.0-35.0","","","3-5","5375","37","1","Training","Stims/Figures/86-C-30-1.bmp","na:ma:la","Right","37","2","16","1","S","C","32"
"","","approach-retreat","36","652004","0.0-36.0","","","3-5","5575","38","1","Training","Stims/Figures/86-C-30-1.bmp","na:ma:la","Down","38","3","1","1","S","C","33"
"","","approach-retreat","37","658478","0.0-37.0","","","3-5","4964","37","1","Training","Stims/Figures/86-J-0-1.bmp","ta:pa:ta","Left","37","3","2","1","P","C","34"
"","","approach-retreat","38","664336","0.0-38.0","","","3-5","4344","38","1","Training","Stims/Figures/128-J-10-3.bmp","ta:pa:ta","Up","38","3","3","1","P","C","35"
"","","approach-retreat","39","670705","0.0-39.0","","","3-5","4859","37","1","Training","Stims/Figures/57-J-0-1.bmp","ta:pa:ta","Left","37","3","4","1","P","C","36"
"","","approach-retreat","40","676299","0.0-40.0","","","3-5","4082","40","1","Training","Stims/Figures/57-C-30-1.bmp","na:ma:la","Up","40","3","5","1","S","C","37"
"","","approach-retreat","41","682048","0.0-41.0","","","3-5","4240","37","1","Training","Stims/Figures/139-C-20-2.bmp","na:ma:la","Right","37","3","6","1","S","C","38"
"","","approach-retreat","42","687816","0.0-42.0","","","3-5","4257","39","1","Training","Stims/Figures/74-J-10-4.bmp","ta:pa:ta","Right","39","3","7","1","P","C","39"
"","","approach-retreat","43","693518","0.0-43.0","","","3-5","4190","37","0","Training","Stims/Figures/118-C-20-2.bmp","na:ma:la","Left","39","3","8","1","S","C","40"
"","","approach-retreat","44","704415","0.0-44.0","","","3-5","9387","40","1","Training","Stims/Figures/139-J-0-2.bmp","ta:pa:ta","Down","40","3","9","1","P","C","41"
"","","approach-retreat","45","712093","0.0-45.0","","","3-5","6165","37","1","Training","Stims/Figures/44-C-30-3.bmp","na:ma:la","Right","37","3","10","1","S","C","42"
"","","approach-retreat","46","717837","0.0-46.0","","","3-5","4234","38","1","Training","Stims/Figures/118-J-0-2.bmp","ta:pa:ta","Up","38","3","11","1","P","C","43"
"","","approach-retreat","47","723893","0.0-47.0","","","3-5","4546","40","1","Training","Stims/Figures/87-C-20-4.bmp","na:ma:la","Up","40","3","12","1","S","C","44"
"","","approach-retreat","48","729670","0.0-48.0","","","3-5","4265","37","1","Training","Stims/Figures/128-C-30-3.bmp","na:ma:la","Right","37","3","13","1","S","C","45"
"","","approach-retreat","49","735674","0.0-49.0","","","3-5","4493","37","1","Training","Stims/Figures/44-J-10-3.bmp","ta:pa:ta","Left","37","3","14","1","P","C","46"
"","","approach-retreat","50","741693","0.0-50.0","","","3-5","4509","40","1","Training","Stims/Figures/87-J-10-4.bmp","ta:pa:ta","Down","40","3","15","1","P","C","47"
"","","approach-retreat","51","747972","0.0-51.0","","","3-5","4766","38","1","Training","Stims/Figures/74-C-20-4.bmp","na:ma:la","Down","38","3","16","1","S","C","48"
"","","approach-retreat","52","753771","0.0-52.0","","","3-5","4283","38","1","Training","Stims/Figures/87-J-10-4.bmp","ta:pa:ta","Up","38","4","1","1","P","C","49"
"","","approach-retreat","53","760201","0.0-53.0","","","3-5","4919","39","1","Training","Stims/Figures/86-C-30-1.bmp","na:ma:la","Left","39","4","2","1","S","C","50"
"","","approach-retreat","54","766473","0.0-54.0","","","3-5","4761","38","1","Training","Stims/Figures/57-J-0-1.bmp","ta:pa:ta","Up","38","4","3","1","P","C","51"
"","","approach-retreat","55","772484","0.0-55.0","","","3-5","4500","39","1","Training","Stims/Figures/74-C-20-4.bmp","na:ma:la","Left","39","4","4","1","S","C","52"
"","","approach-retreat","56","778365","0.0-56.0","","","3-5","4370","39","1","Training","Stims/Figures/139-J-0-2.bmp","ta:pa:ta","Right","39","4","5","1","P","C","53"
"","","approach-retreat","57","784883","0.0-57.0","","","3-5","5006","40","1","Training","Stims/Figures/118-C-20-2.bmp","na:ma:la","Up","40","4","6","1","S","C","54"
"","","approach-retreat","58","790741","0.0-58.0","","","3-5","4346","37","1","Training","Stims/Figures/87-C-20-4.bmp","na:ma:la","Right","37","4","7","1","S","C","55"
"","","approach-retreat","59","796982","0.0-59.0","","","3-5","4731","39","1","Training","Stims/Figures/44-C-30-3.bmp","na:ma:la","Left","39","4","8","1","S","C","56"
"","","approach-retreat","60","803142","0.0-60.0","","","3-5","4648","38","1","Training","Stims/Figures/128-C-30-3.bmp","na:ma:la","Down","38","4","9","1","S","C","57"
"","","approach-retreat","61","808981","0.0-61.0","","","3-5","4329","39","1","Training","Stims/Figures/44-J-10-3.bmp","ta:pa:ta","Right","39","4","10","1","P","C","58"
"","","approach-retreat","62","814553","0.0-62.0","","","3-5","4058","38","1","Training","Stims/Figures/118-J-0-2.bmp","ta:pa:ta","Up","38","4","11","1","P","C","59"
"","","approach-retreat","63","820829","0.0-63.0","","","3-5","4765","37","1","Training","Stims/Figures/57-C-30-1.bmp","na:ma:la","Right","37","4","12","1","S","C","60"
"","","approach-retreat","64","826655","0.0-64.0","","","3-5","4319","40","1","Training","Stims/Figures/86-J-0-1.bmp","ta:pa:ta","Down","40","4","13","1","P","C","61"
"","","approach-retreat","65","832492","0.0-65.0","","","3-5","4326","37","1","Training","Stims/Figures/74-J-10-4.bmp","ta:pa:ta","Left","37","4","14","1","P","C","62"
"","","approach-retreat","66","838271","0.0-66.0","","","3-5","4268","40","1","Training","Stims/Figures/128-J-10-3.bmp","ta:pa:ta","Down","40","4","15","1","P","C","63"
"","","approach-retreat","67","844472","0.0-67.0","","","3-5","4689","38","1","Training","Stims/Figures/139-C-20-2.bmp","na:ma:la","Down","38","4","16","1","S","C","64"
"","","approach-retreat","68","850167","0.0-68.0","","","3-5","4183","39","1","Training","Stims/Figures/74-C-20-4.bmp","na:ma:la","Left","39","5","1","1","S","C","65"
"","","approach-retreat","69","855817","0.0-69.0","","","3-5","4139","39","1","Training","Stims/Figures/87-J-10-4.bmp","ta:pa:ta","Right","39","5","2","1","P","C","66"
"","","approach-retreat","70","861644","0.0-70.0","","","3-5","4318","37","1","Training","Stims/Figures/139-J-0-2.bmp","ta:pa:ta","Left","37","5","3","1","P","C","67"
"","","approach-retreat","71","867474","0.0-71.0","","","3-5","4320","39","1","Training","Stims/Figures/44-C-30-3.bmp","na:ma:la","Left","39","5","4","1","S","C","68"
"","","approach-retreat","72","873316","0.0-72.0","","","3-5","4331","37","1","Training","Stims/Figures/128-C-30-3.bmp","na:ma:la","Right","37","5","5","1","S","C","69"
"","","approach-retreat","73","879187","0.0-73.0","","","3-5","4361","38","1","Training","Stims/Figures/57-J-0-1.bmp","ta:pa:ta","Up","38","5","6","1","P","C","70"
"","","approach-retreat","74","884938","0.0-74.0","","","3-5","4240","39","1","Training","Stims/Figures/74-J-10-4.bmp","ta:pa:ta","Right","39","5","7","1","P","C","71"
"","","approach-retreat","75","890835","0.0-75.0","","","3-5","4388","40","1","Training","Stims/Figures/128-J-10-3.bmp","ta:pa:ta","Down","40","5","8","1","P","C","72"
"","","approach-retreat","76","897375","0.0-76.0","","","3-5","5029","40","1","Training","Stims/Figures/87-C-20-4.bmp","na:ma:la","Up","40","5","9","1","S","C","73"
"","","approach-retreat","77","903027","0.0-77.0","","","3-5","4142","39","1","Training","Stims/Figures/118-J-0-2.bmp","ta:pa:ta","Right","39","5","10","1","P","C","74"
"","","approach-retreat","78","911129","0.0-78.0","","","3-5","6589","38","1","Training","Stims/Figures/139-C-20-2.bmp","na:ma:la","Down","38","5","11","1","S","C","75"
"","","approach-retreat","79","917285","0.0-79.0","","","3-5","4644","39","1","Training","Stims/Figures/118-C-20-2.bmp","na:ma:la","Left","39","5","12","1","S","C","76"
"","","approach-retreat","80","924133","0.0-80.0","","","3-5","5331","38","1","Training","Stims/Figures/57-C-30-1.bmp","na:ma:la","Down","38","5","13","1","S","C","77"
"","","approach-retreat","81","930533","0.0-81.0","","","3-5","4889","40","1","Training","Stims/Figures/86-C-30-1.bmp","na:ma:la","Up","40","5","14","1","S","C","78"
"","","approach-retreat","82","936501","0.0-82.0","","","3-5","4457","38","0","Training","Stims/Figures/86-J-0-1.bmp","ta:pa:ta","Down","40","5","15","1","P","C","79"
"","","approach-retreat","83","943282","0.0-83.0","","","3-5","5267","38","1","Training","Stims/Figures/44-J-10-3.bmp","ta:pa:ta","Up","38","5","16","1","P","C","80"
"","","approach-retreat","84","949863","0.0-84.0","","","3-5","5070","40","1","Training","Stims/Figures/118-C-20-2.bmp","na:ma:la","Up","40","6","1","1","S","C","81"
"","","approach-retreat","85","955976","0.0-85.0","","","3-5","4601","40","1","Training","Stims/Figures/57-C-30-1.bmp","na:ma:la","Up","40","6","2","1","S","C","82"
"","","approach-retreat","86","962505","0.0-86.0","","","3-5","5016","38","1","Training","Stims/Figures/74-C-20-4.bmp","na:ma:la","Down","38","6","3","1","S","C","83"
"","","approach-retreat","87","969931","0.0-87.0","","","3-5","5913","37","1","Training","Stims/Figures/128-J-10-3.bmp","ta:pa:ta","Left","37","6","4","1","P","C","84"
"","","approach-retreat","88","975841","0.0-88.0","","","3-5","4400","38","1","Training","Stims/Figures/44-J-10-3.bmp","ta:pa:ta","Up","38","6","5","1","P","C","85"
"","","approach-retreat","89","981841","0.0-89.0","","","3-5","4489","39","1","Training","Stims/Figures/87-J-10-4.bmp","ta:pa:ta","Right","39","6","6","1","P","C","86"
"","","approach-retreat","90","987839","0.0-90.0","","","3-5","4488","40","1","Training","Stims/Figures/57-J-0-1.bmp","ta:pa:ta","Down","40","6","7","1","P","C","87"
"","","approach-retreat","91","994133","0.0-91.0","","","3-5","4790","40","1","Training","Stims/Figures/128-C-30-3.bmp","na:ma:la","Up","40","6","8","1","S","C","88"
"","","approach-retreat","92","1000821","0.0-92.0","","","3-5","5177","37","1","Training","Stims/Figures/139-C-20-2.bmp","na:ma:la","Right","37","6","9","1","S","C","89"
"","","approach-retreat","93","1007061","0.0-93.0","","","3-5","4729","38","1","Training","Stims/Figures/87-C-20-4.bmp","na:ma:la","Down","38","6","10","1","S","C","90"
"","","approach-retreat","94","1012835","0.0-94.0","","","3-5","4261","40","1","Training","Stims/Figures/118-J-0-2.bmp","ta:pa:ta","Down","40","6","11","1","P","C","91"
"","","approach-retreat","95","1018497","0.0-95.0","","","3-5","4151","37","1","Training","Stims/Figures/86-J-0-1.bmp","ta:pa:ta","Left","37","6","12","1","P","C","92"
"","","approach-retreat","96","1024138","0.0-96.0","","","3-5","4131","39","1","Training","Stims/Figures/139-J-0-2.bmp","ta:pa:ta","Right","39","6","13","1","P","C","93"
"","","approach-retreat","97","1029890","0.0-97.0","","","3-5","4243","37","1","Training","Stims/Figures/74-J-10-4.bmp","ta:pa:ta","Left","37","6","14","1","P","C","94"
"","","approach-retreat","98","1035632","0.0-98.0","","","3-5","4231","37","1","Training","Stims/Figures/44-C-30-3.bmp","na:ma:la","Right","37","6","15","1","S","C","95"
"","","approach-retreat","99","1041590","0.0-99.0","","","3-5","4448","39","1","Training","Stims/Figures/86-C-30-1.bmp","na:ma:la","Left","39","6","16","1","S","C","96"
"","","approach-retreat","100","1047286","0.0-100.0","","","3-5","4186","39","1","Training","Stims/Figures/128-J-10-3.bmp","ta:pa:ta","Right","39","7","1","1","P","C","97"
"","","approach-retreat","101","1053312","0.0-101.0","","","3-5","4515","37","1","Training","Stims/Figures/139-J-0-2.bmp","ta:pa:ta","Left","37","7","2","1","P","C","98"
"","","approach-retreat","102","1059023","0.0-102.0","","","3-5","4200","40","1","Training","Stims/Figures/57-J-0-1.bmp","ta:pa:ta","Down","40","7","3","1","P","C","99"
"","","approach-retreat","103","1064807","0.0-103.0","","","3-5","4274","40","1","Training","Stims/Figures/57-C-30-1.bmp","na:ma:la","Up","40","7","4","1","S","C","100"
"","","approach-retreat","104","1070570","0.0-104.0","","","3-5","4253","37","1","Training","Stims/Figures/86-J-0-1.bmp","ta:pa:ta","Left","37","7","5","1","P","C","101"
"","","approach-retreat","105","1076308","0.0-105.0","","","3-5","4227","37","1","Training","Stims/Figures/128-C-30-3.bmp","na:ma:la","Right","37","7","6","1","S","C","102"
"","","approach-retreat","106","1081974","0.0-106.0","","","3-5","4156","38","1","Training","Stims/Figures/87-J-10-4.bmp","ta:pa:ta","Up","38","7","7","1","P","C","103"
"","","approach-retreat","107","1088263","0.0-107.0","","","3-5","4779","40","1","Training","Stims/Figures/44-J-10-3.bmp","ta:pa:ta","Down","40","7","8","1","P","C","104"
"","","approach-retreat","108","1094569","0.0-108.0","","","3-5","4793","38","1","Training","Stims/Figures/86-C-30-1.bmp","na:ma:la","Down","38","7","9","1","S","C","105"
"","","approach-retreat","109","1100337","0.0-109.0","","","3-5","4258","39","1","Training","Stims/Figures/118-C-20-2.bmp","na:ma:la","Left","39","7","10","1","S","C","106"
"","","approach-retreat","110","1105992","0.0-110.0","","","3-5","4143","37","1","Training","Stims/Figures/44-C-30-3.bmp","na:ma:la","Right","37","7","11","1","S","C","107"
"","","approach-retreat","111","1111791","0.0-111.0","","","3-5","4288","40","1","Training","Stims/Figures/139-C-20-2.bmp","na:ma:la","Up","40","7","12","1","S","C","108"
"","","approach-retreat","112","1117417","0.0-112.0","","","3-5","4115","40","1","Training","Stims/Figures/87-C-20-4.bmp","na:ma:la","Up","40","7","13","1","S","C","109"
"","","approach-retreat","113","1124419","0.0-113.0","","","3-5","5492","39","1","Training","Stims/Figures/74-C-20-4.bmp","na:ma:la","Left","39","7","14","1","S","C","110"
"","","approach-retreat","114","1130484","0.0-114.0","","","3-5","4552","39","1","Training","Stims/Figures/118-J-0-2.bmp","ta:pa:ta","Right","39","7","15","1","P","C","111"
"","","approach-retreat","115","1136162","0.0-115.0","","","3-5","4168","40","1","Training","Stims/Figures/74-J-10-4.bmp","ta:pa:ta","Down","40","7","16","1","P","C","112"
"","","approach-retreat","116","1142439","0.0-116.0","","","3-5","4767","40","1","Training","Stims/Figures/86-C-30-1.bmp","na:ma:la","Up","40","8","1","1","S","C","113"
"","","approach-retreat","117","1148143","0.0-117.0","","","3-5","4193","40","1","Training","Stims/Figures/44-C-30-3.bmp","na:ma:la","Up","40","8","2","1","S","C","114"
"","","approach-retreat","118","1154033","0.0-118.0","","","3-5","4380","37","1","Training","Stims/Figures/57-C-30-1.bmp","na:ma:la","Right","37","8","3","1","S","C","115"
"","","approach-retreat","119","1160187","0.0-119.0","","","3-5","4643","37","1","Training","Stims/Figures/44-J-10-3.bmp","ta:pa:ta","Left","37","8","4","1","P","C","116"
"","","approach-retreat","120","1166591","0.0-120.0","","","3-5","4892","38","1","Training","Stims/Figures/128-C-30-3.bmp","na:ma:la","Down","38","8","5","1","S","C","117"
"","","approach-retreat","121","1172702","0.0-121.0","","","3-5","4599","38","1","Training","Stims/Figures/74-J-10-4.bmp","ta:pa:ta","Up","38","8","6","1","P","C","118"
"","","approach-retreat","122","1178380","0.0-122.0","","","3-5","4167","39","1","Training","Stims/Figures/118-J-0-2.bmp","ta:pa:ta","Right","39","8","7","1","P","C","119"
"","","approach-retreat","123","1184524","0.0-123.0","","","3-5","4635","39","1","Training","Stims/Figures/118-C-20-2.bmp","na:ma:la","Left","39","8","8","1","S","C","120"
"","","approach-retreat","124","1190329","0.0-124.0","","","3-5","4292","40","1","Training","Stims/Figures/87-J-10-4.bmp","ta:pa:ta","Down","40","8","9","1","P","C","121"
"","","approach-retreat","125","1196149","0.0-125.0","","","3-5","4309","40","1","Training","Stims/Figures/128-J-10-3.bmp","ta:pa:ta","Down","40","8","10","1","P","C","122"
"","","approach-retreat","126","1201730","0.0-126.0","","","3-5","4071","39","1","Training","Stims/Figures/86-J-0-1.bmp","ta:pa:ta","Right","39","8","11","1","P","C","123"
"","","approach-retreat","127","1207474","0.0-127.0","","","3-5","4234","37","1","Training","Stims/Figures/57-J-0-1.bmp","ta:pa:ta","Left","37","8","12","1","P","C","124"
"","","approach-retreat","128","1213740","0.0-128.0","","","3-5","4754","40","1","Training","Stims/Figures/87-C-20-4.bmp","na:ma:la","Up","40","8","13","1","S","C","125"
"","","approach-retreat","129","1219705","0.0-129.0","","","3-5","4454","37","1","Training","Stims/Figures/74-C-20-4.bmp","na:ma:la","Right","37","8","14","1","S","C","126"
"","","approach-retreat","130","1226300","0.0-130.0","","","3-5","5085","37","1","Training","Stims/Figures/139-J-0-2.bmp","ta:pa:ta","Left","37","8","15","1","P","C","127"
"","","approach-retreat","131","1232275","0.0-131.0","","","3-5","4463","38","1","Training","Stims/Figures/139-C-20-2.bmp","na:ma:la","Down","38","8","16","1","S","C","128"
"","","approach-retreat","132","1237839","0.0-132.0","","","3-5","4053","39","1","Training","Stims/Figures/44-J-10-3.bmp","ta:pa:ta","Right","39","9","1","1","P","C","129"
"","","approach-retreat","133","1243493","0.0-133.0","","","3-5","4143","39","1","Training","Stims/Figures/57-J-0-1.bmp","ta:pa:ta","Right","39","9","2","1","P","C","130"
"","","approach-retreat","134","1251082","0.0-134.0","","","3-5","6078","40","1","Training","Stims/Figures/87-J-10-4.bmp","ta:pa:ta","Down","40","9","3","1","P","C","131"
"","","approach-retreat","135","1257366","0.0-135.0","","","3-5","4772","38","1","Training","Stims/Figures/128-C-30-3.bmp","na:ma:la","Down","38","9","4","1","S","C","132"
"","","approach-retreat","136","1263155","0.0-136.0","","","3-5","4277","38","1","Training","Stims/Figures/118-C-20-2.bmp","na:ma:la","Down","38","9","5","1","S","C","133"
"","","approach-retreat","137","1268885","0.0-137.0","","","3-5","4221","39","1","Training","Stims/Figures/86-C-30-1.bmp","na:ma:la","Left","39","9","6","1","S","C","134"
"","","approach-retreat","138","1274614","0.0-138.0","","","3-5","4219","37","1","Training","Stims/Figures/118-J-0-2.bmp","ta:pa:ta","Left","37","9","7","1","P","C","135"
"","","approach-retreat","139","1280267","0.0-139.0","","","3-5","4136","40","1","Training","Stims/Figures/74-J-10-4.bmp","ta:pa:ta","Down","40","9","8","1","P","C","136"
"","","approach-retreat","140","1285949","0.0-140.0","","","3-5","4171","37","1","Training","Stims/Figures/86-J-0-1.bmp","ta:pa:ta","Left","37","9","9","1","P","C","137"
"","","approach-retreat","141","1292008","0.0-141.0","","","3-5","4549","40","1","Training","Stims/Figures/139-C-20-2.bmp","na:ma:la","Up","40","9","10","1","S","C","138"
"","","approach-retreat","142","1297710","0.0-142.0","","","3-5","4190","37","1","Training","Stims/Figures/87-C-20-4.bmp","na:ma:la","Right","37","9","11","1","S","C","139"
"","","approach-retreat","143","1303528","0.0-143.0","","","3-5","4307","38","1","Training","Stims/Figures/128-J-10-3.bmp","ta:pa:ta","Up","38","9","12","1","P","C","140"
"","","approach-retreat","144","1310087","0.0-144.0","","","3-5","5049","40","1","Training","Stims/Figures/74-C-20-4.bmp","na:ma:la","Up","40","9","13","1","S","C","141"
"","","approach-retreat","145","1315929","0.0-145.0","","","3-5","4331","39","1","Training","Stims/Figures/44-C-30-3.bmp","na:ma:la","Left","39","9","14","1","S","C","142"
"","","approach-retreat","146","1321640","0.0-146.0","","","3-5","4200","40","1","Training","Stims/Figures/57-C-30-1.bmp","na:ma:la","Up","40","9","15","1","S","C","143"
"","","approach-retreat","147","1327190","0.0-147.0","","","3-5","4042","39","1","Training","Stims/Figures/139-J-0-2.bmp","ta:pa:ta","Right","39","9","16","1","P","C","144"
"119411","","instructions","148","1446601","0.0-148.0","[{""page_index"":0,""viewing_time"":119410}]","","","","","","","","","","","","","","","",""
"","","approach-retreat","149","1460383","0.0-149.0","","","3-5","12273","39","0","Testing","Stims/Figures/74-J-10-4.bmp","ta:pa:ta","Left","37","1","1","1","P","C","1"
"","","approach-retreat","150","1475490","0.0-150.0","","","3-5","13599","37","1","Testing","Stims/Figures/144-C-30-3.bmp","na:ma:la","Right","37","1","2","1","S","C","2"
"","","approach-retreat","151","1487570","0.0-151.0","","","3-5","10570","37","0","Testing","Stims/Figures/71-J-0-1.bmp","ta:pa:ta","Right","39","1","3","1","P","C","3"
"","","approach-retreat","152","1493982","0.0-152.0","","","3-5","4901","38","1","Testing","Stims/Figures/139-J-0-2.bmp","ta:pa:ta","Up","38","1","4","1","P","C","4"
"","","approach-retreat","153","1510357","0.0-153.0","","","3-5","14865","39","1","Testing","Stims/Figures/57-C-30-1.bmp","na:ma:la","Left","39","1","5","1","S","C","5"
"","","approach-retreat","154","1518881","0.0-154.0","","","3-5","7016","40","0","Testing","Stims/Figures/144-J-10-3.bmp","ta:pa:ta","Up","38","1","6","1","P","C","6"
"","","approach-retreat","155","1525756","0.0-155.0","","","3-5","5366","37","1","Testing","Stims/Figures/86-J-0-1.bmp","ta:pa:ta","Left","37","1","7","1","P","C","7"
"","","approach-retreat","156","1532052","0.0-156.0","","","3-5","4778","39","0","Testing","Stims/Figures/86-C-30-1.bmp","na:ma:la","Right","37","1","8","1","S","C","8"
"","","approach-retreat","157","1537806","0.0-157.0","","","3-5","4246","39","0","Testing","Stims/Figures/128-C-30-3.bmp","na:ma:la","Right","37","1","9","1","S","C","9"
"","","approach-retreat","158","1543961","0.0-158.0","","","3-5","4647","38","0","Testing","Stims/Figures/87-C-20-4.bmp","na:ma:la","Up","40","1","10","1","S","C","10"
"","","approach-retreat","159","1550828","0.0-159.0","","","3-5","5360","40","1","Testing","Stims/Figures/71-C-30-1.bmp","na:ma:la","Up","40","1","11","1","S","C","11"
"","","approach-retreat","160","1558309","0.0-160.0","","","3-5","5971","39","0","Testing","Stims/Figures/128-J-10-3.bmp","ta:pa:ta","Left","37","1","12","1","P","C","12"
"","","approach-retreat","161","1564991","0.0-161.0","","","3-5","5174","38","1","Testing","Stims/Figures/139-C-20-2.bmp","na:ma:la","Down","38","1","13","1","S","C","13"
"","","approach-retreat","162","1571762","0.0-162.0","","","3-5","5262","40","1","Testing","Stims/Figures/57-J-0-1.bmp","ta:pa:ta","Down","40","1","14","1","P","C","14"
"","","approach-retreat","163","1577684","0.0-163.0","","","3-5","4414","38","0","Testing","Stims/Figures/84-J-0-2.bmp","ta:pa:ta","Down","40","1","15","1","P","C","15"
"","","approach-retreat","164","1584846","0.0-164.0","","","3-5","5654","38","0","Testing","Stims/Figures/44-C-30-3.bmp","na:ma:la","Up","40","1","16","1","S","C","16"
"","","approach-retreat","165","1591960","0.0-165.0","","","3-5","5604","38","0","Testing","Stims/Figures/44-J-10-3.bmp","ta:pa:ta","Down","40","1","17","1","P","C","17"
"","","approach-retreat","166","1598207","0.0-166.0","","","3-5","4739","38","0","Testing","Stims/Figures/84-C-20-2.bmp","na:ma:la","Up","40","1","18","1","S","C","18"
"","","approach-retreat","167","1604593","0.0-167.0","","","3-5","4872","40","0","Testing","Stims/Figures/74-C-20-4.bmp","na:ma:la","Down","38","1","19","1","S","C","19"
"","","approach-retreat","168","1610877","0.0-168.0","","","3-5","4775","37","1","Testing","Stims/Figures/102-C-20-4.bmp","na:ma:la","Right","37","1","20","1","S","C","20"
"","","approach-retreat","169","1616876","0.0-169.0","","","3-5","4491","39","1","Testing","Stims/Figures/102-J-10-4.bmp","ta:pa:ta","Right","39","1","21","1","P","C","21"
"","","approach-retreat","170","1623944","0.0-170.0","","","3-5","5561","39","1","Testing","Stims/Figures/118-C-20-2.bmp","na:ma:la","Left","39","1","22","1","S","C","22"
"","","approach-retreat","171","1629745","0.0-171.0","","","3-5","4293","40","1","Testing","Stims/Figures/118-J-0-2.bmp","ta:pa:ta","Down","40","1","23","1","P","C","23"
"","","approach-retreat","172","1636339","0.0-172.0","","","3-5","5085","37","1","Testing","Stims/Figures/87-J-10-4.bmp","ta:pa:ta","Left","37","1","24","1","P","C","24"
"","","approach-retreat","173","1642492","0.0-173.0","","","3-5","4644","40","1","Testing","Stims/Figures/71-C-30-1.bmp","na:ma:la","Up","40","2","1","1","S","C","25"
"","","approach-retreat","174","1648594","0.0-174.0","","","3-5","4593","37","1","Testing","Stims/Figures/71-J-0-1.bmp","ta:pa:ta","Left","37","2","2","1","P","C","26"
"","","approach-retreat","175","1654553","0.0-175.0","","","3-5","4450","39","0","Testing","Stims/Figures/57-C-30-1.bmp","na:ma:la","Right","37","2","3","1","S","C","27"
"","","approach-retreat","176","1660741","0.0-176.0","","","3-5","4679","37","1","Testing","Stims/Figures/128-C-30-3.bmp","na:ma:la","Right","37","2","4","1","S","C","28"
"","","approach-retreat","177","1666720","0.0-177.0","","","3-5","4471","38","1","Testing","Stims/Figures/86-J-0-1.bmp","ta:pa:ta","Up","38","2","5","1","P","C","29"
"","","approach-retreat","178","1672837","0.0-178.0","","","3-5","4611","39","1","Testing","Stims/Figures/86-C-30-1.bmp","na:ma:la","Left","39","2","6","1","S","C","30"
"","","approach-retreat","179","1680384","0.0-179.0","","","3-5","6038","38","0","Testing","Stims/Figures/84-C-20-2.bmp","na:ma:la","Up","40","2","7","1","S","C","31"
"","","approach-retreat","180","1687017","0.0-180.0","","","3-5","5125","40","0","Testing","Stims/Figures/144-C-30-3.bmp","na:ma:la","Down","38","2","8","1","S","C","32"
"","","approach-retreat","181","1693051","0.0-181.0","","","3-5","4528","37","0","Testing","Stims/Figures/139-C-20-2.bmp","na:ma:la","Left","39","2","9","1","S","C","33"
"","","approach-retreat","182","1698934","0.0-182.0","","","3-5","4374","39","0","Testing","Stims/Figures/87-J-10-4.bmp","ta:pa:ta","Left","37","2","10","1","P","C","34"
"","","approach-retreat","183","1705154","0.0-183.0","","","3-5","4714","39","1","Testing","Stims/Figures/102-J-10-4.bmp","ta:pa:ta","Right","39","2","11","1","P","C","35"
"","","approach-retreat","184","1710962","0.0-184.0","","","3-5","4301","40","1","Testing","Stims/Figures/139-J-0-2.bmp","ta:pa:ta","Down","40","2","12","1","P","C","36"
"","","approach-retreat","185","1717029","0.0-185.0","","","3-5","4559","40","1","Testing","Stims/Figures/84-J-0-2.bmp","ta:pa:ta","Down","40","2","13","1","P","C","37"
"","","approach-retreat","186","1722614","0.0-186.0","","","3-5","4078","40","0","Testing","Stims/Figures/44-C-30-3.bmp","na:ma:la","Down","38","2","14","1","S","C","38"
"","","approach-retreat","187","1728508","0.0-187.0","","","3-5","4384","37","1","Testing","Stims/Figures/57-J-0-1.bmp","ta:pa:ta","Left","37","2","15","1","P","C","39"
"","","approach-retreat","188","1734450","0.0-188.0","","","3-5","4434","38","1","Testing","Stims/Figures/102-C-20-4.bmp","na:ma:la","Down","38","2","16","1","S","C","40"
"","","approach-retreat","189","1740395","0.0-189.0","","","3-5","4439","40","1","Testing","Stims/Figures/44-J-10-3.bmp","ta:pa:ta","Down","40","2","17","1","P","C","41"
"","","approach-retreat","190","1748945","0.0-190.0","","","3-5","7043","39","0","Testing","Stims/Figures/118-C-20-2.bmp","na:ma:la","Right","37","2","18","1","S","C","42"
"","","approach-retreat","191","1760155","0.0-191.0","","","3-5","9705","40","0","Testing","Stims/Figures/118-J-0-2.bmp","ta:pa:ta","Up","38","2","19","1","P","C","43"
"","","approach-retreat","192","1766421","0.0-192.0","","","3-5","4758","37","0","Testing","Stims/Figures/87-C-20-4.bmp","na:ma:la","Left","39","2","20","1","S","C","44"
"","","approach-retreat","193","1772473","0.0-193.0","","","3-5","4542","39","1","Testing","Stims/Figures/74-J-10-4.bmp","ta:pa:ta","Right","39","2","21","1","P","C","45"
"","","approach-retreat","194","1778235","0.0-194.0","","","3-5","4255","37","1","Testing","Stims/Figures/74-C-20-4.bmp","na:ma:la","Right","37","2","22","1","S","C","46"
"","","approach-retreat","195","1784165","0.0-195.0","","","3-5","4423","38","1","Testing","Stims/Figures/144-J-10-3.bmp","ta:pa:ta","Up","38","2","23","1","P","C","47"
"","","approach-retreat","196","1790166","0.0-196.0","","","3-5","4493","38","1","Testing","Stims/Figures/128-J-10-3.bmp","ta:pa:ta","Up","38","2","24","1","P","C","48"
"","","approach-retreat","197","1796141","0.0-197.0","","","3-5","4466","37","1","Testing","Stims/Figures/71-C-30-1.bmp","na:ma:la","Right","37","3","1","1","S","C","49"
"","","approach-retreat","198","1802394","0.0-198.0","","","3-5","4746","40","0","Testing","Stims/Figures/87-C-20-4.bmp","na:ma:la","Down","38","3","2","1","S","C","50"
"","","approach-retreat","199","1808154","0.0-199.0","","","3-5","4251","37","1","Testing","Stims/Figures/118-J-0-2.bmp","ta:pa:ta","Left","37","3","3","1","P","C","51"
"","","approach-retreat","200","1816839","0.0-200.0","","","3-5","7178","40","1","Testing","Stims/Figures/71-J-0-1.bmp","ta:pa:ta","Down","40","3","4","1","P","C","52"
"","","approach-retreat","201","1822983","0.0-201.0","","","3-5","4637","39","1","Testing","Stims/Figures/84-J-0-2.bmp","ta:pa:ta","Right","39","3","5","1","P","C","53"
"","","approach-retreat","202","1828976","0.0-202.0","","","3-5","4482","39","0","Testing","Stims/Figures/144-C-30-3.bmp","na:ma:la","Right","37","3","6","1","S","C","54"
"","","approach-retreat","203","1834841","0.0-203.0","","","3-5","4357","38","1","Testing","Stims/Figures/102-J-10-4.bmp","ta:pa:ta","Up","38","3","7","1","P","C","55"
"","","approach-retreat","204","1840538","0.0-204.0","","","3-5","4190","40","1","Testing","Stims/Figures/139-J-0-2.bmp","ta:pa:ta","Down","40","3","8","1","P","C","56"
"","","approach-retreat","205","1846309","0.0-205.0","","","3-5","4262","37","0","Testing","Stims/Figures/57-C-30-1.bmp","na:ma:la","Left","39","3","9","1","S","C","57"
"","","approach-retreat","206","1853308","0.0-206.0","","","3-5","5493","40","0","Testing","Stims/Figures/44-J-10-3.bmp","ta:pa:ta","Up","38","3","10","1","P","C","58"
"","","approach-retreat","207","1861445","0.0-207.0","","","3-5","6627","38","0","Testing","Stims/Figures/57-J-0-1.bmp","ta:pa:ta","Down","40","3","11","1","P","C","59"
"","","approach-retreat","208","1868032","0.0-208.0","","","3-5","5079","39","0","Testing","Stims/Figures/86-J-0-1.bmp","ta:pa:ta","Left","37","3","12","1","P","C","60"
"","","approach-retreat","209","1874292","0.0-209.0","","","3-5","4753","40","0","Testing","Stims/Figures/74-C-20-4.bmp","na:ma:la","Down","38","3","13","1","S","C","61"
"","","approach-retreat","210","1880929","0.0-210.0","","","3-5","5127","40","0","Testing","Stims/Figures/128-C-30-3.bmp","na:ma:la","Down","38","3","14","1","S","C","62"
"","","approach-retreat","211","1887157","0.0-211.0","","","3-5","4716","40","1","Testing","Stims/Figures/44-C-30-3.bmp","na:ma:la","Up","40","3","15","1","S","C","63"
"","","approach-retreat","212","1893756","0.0-212.0","","","3-5","5091","37","1","Testing","Stims/Figures/128-J-10-3.bmp","ta:pa:ta","Left","37","3","16","1","P","C","64"
"","","approach-retreat","213","1899831","0.0-213.0","","","3-5","4566","37","0","Testing","Stims/Figures/139-C-20-2.bmp","na:ma:la","Left","39","3","17","1","S","C","65"
"","","approach-retreat","214","1906304","0.0-214.0","","","3-5","4964","38","1","Testing","Stims/Figures/144-J-10-3.bmp","ta:pa:ta","Up","38","3","18","1","P","C","66"
"","","approach-retreat","215","1912121","0.0-215.0","","","3-5","4309","37","1","Testing","Stims/Figures/102-C-20-4.bmp","na:ma:la","Right","37","3","19","1","S","C","67"
"","","approach-retreat","216","1918228","0.0-216.0","","","3-5","4598","38","1","Testing","Stims/Figures/87-J-10-4.bmp","ta:pa:ta","Up","38","3","20","1","P","C","68"
"","","approach-retreat","217","1925016","0.0-217.0","","","3-5","5280","39","0","Testing","Stims/Figures/118-C-20-2.bmp","na:ma:la","Right","37","3","21","1","S","C","69"
"","","approach-retreat","218","1931676","0.0-218.0","","","3-5","5152","39","0","Testing","Stims/Figures/84-C-20-2.bmp","na:ma:la","Right","37","3","22","1","S","C","70"
"","","approach-retreat","219","1937942","0.0-219.0","","","3-5","4759","40","0","Testing","Stims/Figures/74-J-10-4.bmp","ta:pa:ta","Up","38","3","23","1","P","C","71"
"","","approach-retreat","220","1947508","0.0-220.0","","","3-5","8054","39","1","Testing","Stims/Figures/86-C-30-1.bmp","na:ma:la","Left","39","3","24","1","S","C","72"
"","","approach-retreat","221","1954733","0.0-221.0","","","3-5","5716","39","1","Testing","Stims/Figures/86-C-30-1.bmp","na:ma:la","Left","39","4","1","1","S","C","73"
"","","approach-retreat","222","1963327","0.0-222.0","","","3-5","7087","37","1","Testing","Stims/Figures/139-C-20-2.bmp","na:ma:la","Right","37","4","2","1","S","C","74"
"","","approach-retreat","223","1975754","0.0-223.0","","","3-5","10918","37","0","Testing","Stims/Figures/102-C-20-4.bmp","na:ma:la","Left","39","4","3","1","S","C","75"
"","","approach-retreat","224","1982145","0.0-224.0","","","3-5","4881","39","0","Testing","Stims/Figures/102-J-10-4.bmp","ta:pa:ta","Left","37","4","4","1","P","C","76"
"","","approach-retreat","225","1990436","0.0-225.0","","","3-5","6783","38","1","Testing","Stims/Figures/128-J-10-3.bmp","ta:pa:ta","Up","38","4","5","1","P","C","77"
"","","approach-retreat","226","1996714","0.0-226.0","","","3-5","4765","38","0","Testing","Stims/Figures/144-C-30-3.bmp","na:ma:la","Up","40","4","6","1","S","C","78"
"","","approach-retreat","227","2007687","0.0-227.0","","","3-5","9464","40","0","Testing","Stims/Figures/44-J-10-3.bmp","ta:pa:ta","Up","38","4","7","1","P","C","79"
"","","approach-retreat","228","2015621","0.0-228.0","","","3-5","6425","38","0","Testing","Stims/Figures/87-J-10-4.bmp","ta:pa:ta","Down","40","4","8","1","P","C","80"
"","","approach-retreat","229","2021653","0.0-229.0","","","3-5","4525","40","0","Testing","Stims/Figures/87-C-20-4.bmp","na:ma:la","Down","38","4","9","1","S","C","81"
"","","approach-retreat","230","2031644","0.0-230.0","","","3-5","8481","39","0","Testing","Stims/Figures/44-C-30-3.bmp","na:ma:la","Right","37","4","10","1","S","C","82"
"","","approach-retreat","231","2037986","0.0-231.0","","","3-5","4833","40","1","Testing","Stims/Figures/118-J-0-2.bmp","ta:pa:ta","Down","40","4","11","1","P","C","83"
"","","approach-retreat","232","2044356","0.0-232.0","","","3-5","4860","40","0","Testing","Stims/Figures/84-C-20-2.bmp","na:ma:la","Down","38","4","12","1","S","C","84"
"","","approach-retreat","233","2051158","0.0-233.0","","","3-5","5292","38","0","Testing","Stims/Figures/57-C-30-1.bmp","na:ma:la","Up","40","4","13","1","S","C","85"
"","","approach-retreat","234","2057459","0.0-234.0","","","3-5","4792","39","1","Testing","Stims/Figures/86-J-0-1.bmp","ta:pa:ta","Right","39","4","14","1","P","C","86"
"","","approach-retreat","235","2063372","0.0-235.0","","","3-5","4405","37","0","Testing","Stims/Figures/57-J-0-1.bmp","ta:pa:ta","Right","39","4","15","1","P","C","87"
"","","approach-retreat","236","2069351","0.0-236.0","","","3-5","4473","37","1","Testing","Stims/Figures/84-J-0-2.bmp","ta:pa:ta","Left","37","4","16","1","P","C","88"
"","","approach-retreat","237","2075159","0.0-237.0","","","3-5","4300","39","1","Testing","Stims/Figures/118-C-20-2.bmp","na:ma:la","Left","39","4","17","1","S","C","89"
"","","approach-retreat","238","2081011","0.0-238.0","","","3-5","4344","37","0","Testing","Stims/Figures/144-J-10-3.bmp","ta:pa:ta","Right","39","4","18","1","P","C","90"
"","","approach-retreat","239","2087233","0.0-239.0","","","3-5","4715","38","1","Testing","Stims/Figures/71-C-30-1.bmp","na:ma:la","Down","38","4","19","1","S","C","91"
"","","approach-retreat","240","2093146","0.0-240.0","","","3-5","4405","40","0","Testing","Stims/Figures/139-J-0-2.bmp","ta:pa:ta","Up","38","4","20","1","P","C","92"
"","","approach-retreat","241","2098931","0.0-241.0","","","3-5","4275","39","1","Testing","Stims/Figures/74-J-10-4.bmp","ta:pa:ta","Right","39","4","21","1","P","C","93"
"","","approach-retreat","242","2104766","0.0-242.0","","","3-5","4327","37","0","Testing","Stims/Figures/128-C-30-3.bmp","na:ma:la","Left","39","4","22","1","S","C","94"
"","","approach-retreat","243","2110675","0.0-243.0","","","3-5","4402","40","1","Testing","Stims/Figures/71-J-0-1.bmp","ta:pa:ta","Down","40","4","23","1","P","C","95"
"","","approach-retreat","244","2117494","0.0-244.0","","","3-5","5310","38","0","Testing","Stims/Figures/74-C-20-4.bmp","na:ma:la","Up","40","4","24","1","S","C","96"
"","","survey-text","245","2163291","0.0-245.0","","","3-5","51108","38","0","Testing","Stims/Figures/74-C-20-4.bmp","na:ma:la","Up","40","4","24","1","S","C",""
