\"rt\",\"key_press\",\"trial_type\",\"trial_index\",\"time_elapsed\",\"internal_node_id\",\"view_history\",\"responses\",\"Id\",\"Rt\",\"ResKeyCode\",\"ResCorr\",\"TrialType2\",\"Image\",\"Label\",\"Location\",\"CorrectResponse\",\"Block\",\"BlockTrial\",\"Condition\",\"LabelType\",\"Subcondition\",\"trialNum\"
\"29298\",\"32\",\"text\",\"0\",\"29298\",\"0.0-0.0-0.0\",\"\",\"\",\"\",\"\",\"\",\"\",\"\",\"\",\"\",\"\",\"\",\"\",\"\",\"\",\"\",\"\",\"\"
\"69804\",\"\",\"instructions\",\"1\",\"99103\",\"0.0-1.0\",\"[{\"\"page_index\"\":0,\"\"viewing_time\"\":69804}]\",\"\",\"\",\"\",\"\",\"\",\"\",\"\",\"\",\"\",\"\",\"\",\"\",\"\",\"\",\"\",\"\"
\"44036\",\"\",\"survey-multi-choice\",\"2\",\"143151\",\"0.0-2.0\",\"\",\"{\"\"Q0\"\":\"\"Da\"\",\"\"Q1\"\":\"\"Da\"\",\"\"Q2\"\":\"\"Da\"\",\"\"Q3\"\":\"\"Da\"\",\"\"Q4\"\":\"\"Da\"\",\"\"Q5\"\":\"\"Da\"\"}\",\"\",\"\",\"\",\"\",\"\",\"\",\"\",\"\",\"\",\"\",\"\",\"\",\"\",\"\",\"\"
\"\",\"\",\"bio\",\"3\",\"165945\",\"0.0-3.0\",\"\",\"{\"\"age\"\":\"\"20\"\",\"\"gender\"\":\"\"m\"\",\"\"specify\"\":\"\"\"\"}\",\"\",\"\",\"\",\"\",\"\",\"\",\"\",\"\",\"\",\"\",\"\",\"\",\"\",\"\",\"\"
\"\",\"\",\"approach-retreat\",\"4\",\"172660\",\"0.0-4.0\",\"\",\"\",\"2-4\",\"5211\",\"39\",\"0\",\"Training\",\"Stims/Figures/111-C-30-3.bmp\",\"pa:ka:ka\",\"Left\",\"37\",\"1\",\"1\",\"9\",\"P\",\"J\",\"1\"
\"\",\"\",\"approach-retreat\",\"5\",\"179140\",\"0.0-5.0\",\"\",\"\",\"2-4\",\"4974\",\"37\",\"0\",\"Training\",\"Stims/Figures/93-C-30-1.bmp\",\"pa:ka:ta\",\"Right\",\"39\",\"1\",\"2\",\"9\",\"P\",\"J\",\"2\"
\"\",\"\",\"approach-retreat\",\"6\",\"185101\",\"0.0-6.0\",\"\",\"\",\"2-4\",\"4449\",\"40\",\"0\",\"Training\",\"Stims/Figures/118-C-20-2.bmp\",\"zaha:za\",\"Up\",\"38\",\"1\",\"3\",\"9\",\"C2\",\"J\",\"3\"
\"\",\"\",\"approach-retreat\",\"7\",\"191209\",\"0.0-7.0\",\"\",\"\",\"2-4\",\"4604\",\"37\",\"0\",\"Training\",\"Stims/Figures/102-J-10-4.bmp\",\"nalala\",\"Left\",\"39\",\"1\",\"4\",\"9\",\"S\",\"J\",\"4\"
\"\",\"\",\"approach-retreat\",\"8\",\"197030\",\"0.0-8.0\",\"\",\"\",\"2-4\",\"4316\",\"39\",\"0\",\"Training\",\"Stims/Figures/102-C-20-4.bmp\",\"fa:sha:va\",\"Left\",\"37\",\"1\",\"5\",\"9\",\"C1\",\"J\",\"5\"
\"\",\"\",\"approach-retreat\",\"9\",\"202836\",\"0.0-9.0\",\"\",\"\",\"2-4\",\"4304\",\"38\",\"1\",\"Training\",\"Stims/Figures/144-J-10-3.bmp\",\"za:haha\",\"Down\",\"38\",\"1\",\"6\",\"9\",\"C2\",\"J\",\"6\"
\"\",\"\",\"approach-retreat\",\"10\",\"208401\",\"0.0-10.0\",\"\",\"\",\"2-4\",\"4061\",\"38\",\"0\",\"Training\",\"Stims/Figures/139-C-20-2.bmp\",\"fafava\",\"Down\",\"40\",\"1\",\"7\",\"9\",\"C1\",\"J\",\"7\"
\"\",\"\",\"approach-retreat\",\"11\",\"214886\",\"0.0-11.0\",\"\",\"\",\"2-4\",\"4984\",\"37\",\"1\",\"Training\",\"Stims/Figures/71-J-0-1.bmp\",\"vafa:sha\",\"Right\",\"37\",\"1\",\"8\",\"9\",\"C1\",\"J\",\"8\"
\"\",\"\",\"approach-retreat\",\"12\",\"221347\",\"0.0-12.0\",\"\",\"\",\"2-4\",\"4953\",\"40\",\"1\",\"Training\",\"Stims/Figures/87-J-10-4.bmp\",\"ta:ka:ta\",\"Up\",\"40\",\"1\",\"9\",\"9\",\"P\",\"J\",\"9\"
\"\",\"\",\"approach-retreat\",\"13\",\"227634\",\"0.0-13.0\",\"\",\"\",\"2-4\",\"4781\",\"37\",\"1\",\"Training\",\"Stims/Figures/118-J-0-2.bmp\",\"zasaza\",\"Right\",\"37\",\"1\",\"10\",\"9\",\"C2\",\"J\",\"10\"
\"\",\"\",\"approach-retreat\",\"14\",\"233434\",\"0.0-14.0\",\"\",\"\",\"2-4\",\"4290\",\"38\",\"1\",\"Training\",\"Stims/Figures/71-C-30-1.bmp\",\"pakata\",\"Up\",\"38\",\"1\",\"11\",\"9\",\"P\",\"J\",\"11\"
\"\",\"\",\"approach-retreat\",\"15\",\"239398\",\"0.0-15.0\",\"\",\"\",\"2-4\",\"4461\",\"40\",\"0\",\"Training\",\"Stims/Figures/139-J-0-2.bmp\",\"va:fa:sha\",\"Down\",\"38\",\"1\",\"12\",\"9\",\"C1\",\"J\",\"12\"
\"\",\"\",\"approach-retreat\",\"16\",\"245698\",\"0.0-16.0\",\"\",\"\",\"2-4\",\"4793\",\"40\",\"0\",\"Training\",\"Stims/Figures/111-J-10-3.bmp\",\"na:la:na\",\"Down\",\"38\",\"1\",\"13\",\"9\",\"S\",\"J\",\"13\"
\"\",\"\",\"approach-retreat\",\"17\",\"257213\",\"0.0-17.0\",\"\",\"\",\"2-4\",\"10004\",\"37\",\"0\",\"Training\",\"Stims/Figures/144-C-30-3.bmp\",\"fasha:sha\",\"Right\",\"39\",\"1\",\"14\",\"9\",\"C1\",\"J\",\"14\"
\"\",\"\",\"approach-retreat\",\"18\",\"262415\",\"0.0-18.0\",\"\",\"\",\"2-4\",\"3700\",\"38\",\"0\",\"Training\",\"Stims/Figures/93-J-0-1.bmp\",\"zahaha\",\"Up\",\"40\",\"1\",\"15\",\"9\",\"C2\",\"J\",\"15\"
\"\",\"\",\"approach-retreat\",\"19\",\"271188\",\"0.0-19.0\",\"\",\"\",\"2-4\",\"7262\",\"39\",\"0\",\"Training\",\"Stims/Figures/87-C-20-4.bmp\",\"vashava\",\"Left\",\"37\",\"1\",\"16\",\"9\",\"C1\",\"J\",\"16\"
\"\",\"\",\"approach-retreat\",\"20\",\"278855\",\"0.0-20.0\",\"\",\"\",\"2-4\",\"6163\",\"40\",\"0\",\"Training\",\"Stims/Figures/111-C-30-3.bmp\",\"pa:ka:ka\",\"Up\",\"38\",\"2\",\"1\",\"9\",\"P\",\"J\",\"17\"
\"\",\"\",\"approach-retreat\",\"21\",\"285309\",\"0.0-21.0\",\"\",\"\",\"2-4\",\"4948\",\"37\",\"0\",\"Training\",\"Stims/Figures/102-C-20-4.bmp\",\"fa:sha:va\",\"Right\",\"39\",\"2\",\"2\",\"9\",\"C1\",\"J\",\"18\"
\"\",\"\",\"approach-retreat\",\"22\",\"290979\",\"0.0-22.0\",\"\",\"\",\"2-4\",\"4165\",\"38\",\"1\",\"Training\",\"Stims/Figures/144-J-10-3.bmp\",\"za:haha\",\"Down\",\"38\",\"2\",\"3\",\"9\",\"C2\",\"J\",\"19\"
\"\",\"\",\"approach-retreat\",\"23\",\"296312\",\"0.0-23.0\",\"\",\"\",\"2-4\",\"3827\",\"38\",\"1\",\"Training\",\"Stims/Figures/118-J-0-2.bmp\",\"zasaza\",\"Down\",\"38\",\"2\",\"4\",\"9\",\"C2\",\"J\",\"20\"
\"\",\"\",\"approach-retreat\",\"24\",\"302412\",\"0.0-24.0\",\"\",\"\",\"2-4\",\"4589\",\"39\",\"0\",\"Training\",\"Stims/Figures/102-J-10-4.bmp\",\"nalala\",\"Right\",\"37\",\"2\",\"5\",\"9\",\"S\",\"J\",\"21\"
\"\",\"\",\"approach-retreat\",\"25\",\"308420\",\"0.0-25.0\",\"\",\"\",\"2-4\",\"4504\",\"37\",\"0\",\"Training\",\"Stims/Figures/87-J-10-4.bmp\",\"ta:ka:ta\",\"Left\",\"39\",\"2\",\"6\",\"9\",\"P\",\"J\",\"22\"
\"\",\"\",\"approach-retreat\",\"26\",\"314452\",\"0.0-26.0\",\"\",\"\",\"2-4\",\"4522\",\"40\",\"0\",\"Training\",\"Stims/Figures/118-C-20-2.bmp\",\"zaha:za\",\"Up\",\"38\",\"2\",\"7\",\"9\",\"C2\",\"J\",\"23\"
\"\",\"\",\"approach-retreat\",\"27\",\"320163\",\"0.0-27.0\",\"\",\"\",\"2-4\",\"4207\",\"37\",\"0\",\"Training\",\"Stims/Figures/139-C-20-2.bmp\",\"fafava\",\"Right\",\"39\",\"2\",\"8\",\"9\",\"C1\",\"J\",\"24\"
\"\",\"\",\"approach-retreat\",\"28\",\"327258\",\"0.0-28.0\",\"\",\"\",\"2-4\",\"5584\",\"39\",\"1\",\"Training\",\"Stims/Figures/139-J-0-2.bmp\",\"va:fa:sha\",\"Left\",\"39\",\"2\",\"9\",\"9\",\"C1\",\"J\",\"25\"
\"\",\"\",\"approach-retreat\",\"29\",\"333290\",\"0.0-29.0\",\"\",\"\",\"2-4\",\"4525\",\"38\",\"1\",\"Training\",\"Stims/Figures/71-C-30-1.bmp\",\"pakata\",\"Up\",\"38\",\"2\",\"10\",\"9\",\"P\",\"J\",\"26\"
\"\",\"\",\"approach-retreat\",\"30\",\"339203\",\"0.0-30.0\",\"\",\"\",\"2-4\",\"4406\",\"39\",\"1\",\"Training\",\"Stims/Figures/93-C-30-1.bmp\",\"pa:ka:ta\",\"Right\",\"39\",\"2\",\"11\",\"9\",\"P\",\"J\",\"27\"
\"\",\"\",\"approach-retreat\",\"31\",\"344970\",\"0.0-31.0\",\"\",\"\",\"2-4\",\"4259\",\"38\",\"0\",\"Training\",\"Stims/Figures/144-C-30-3.bmp\",\"fasha:sha\",\"Down\",\"40\",\"2\",\"12\",\"9\",\"C1\",\"J\",\"28\"
\"\",\"\",\"approach-retreat\",\"32\",\"351063\",\"0.0-32.0\",\"\",\"\",\"2-4\",\"4587\",\"37\",\"1\",\"Training\",\"Stims/Figures/87-C-20-4.bmp\",\"vashava\",\"Left\",\"37\",\"2\",\"13\",\"9\",\"C1\",\"J\",\"29\"
\"\",\"\",\"approach-retreat\",\"33\",\"357024\",\"0.0-33.0\",\"\",\"\",\"2-4\",\"4450\",\"37\",\"0\",\"Training\",\"Stims/Figures/93-J-0-1.bmp\",\"zahaha\",\"Left\",\"39\",\"2\",\"14\",\"9\",\"C2\",\"J\",\"30\"
\"\",\"\",\"approach-retreat\",\"34\",\"365897\",\"0.0-34.0\",\"\",\"\",\"2-4\",\"7366\",\"40\",\"0\",\"Training\",\"Stims/Figures/111-J-10-3.bmp\",\"na:la:na\",\"Down\",\"38\",\"2\",\"15\",\"9\",\"S\",\"J\",\"31\"
\"\",\"\",\"approach-retreat\",\"35\",\"374032\",\"0.0-35.0\",\"\",\"\",\"2-4\",\"6630\",\"40\",\"1\",\"Training\",\"Stims/Figures/71-J-0-1.bmp\",\"vafa:sha\",\"Up\",\"40\",\"2\",\"16\",\"9\",\"C1\",\"J\",\"32\"
\"\",\"\",\"approach-retreat\",\"36\",\"381926\",\"0.0-36.0\",\"\",\"\",\"2-4\",\"6385\",\"38\",\"1\",\"Training\",\"Stims/Figures/87-C-20-4.bmp\",\"vashava\",\"Up\",\"38\",\"3\",\"1\",\"9\",\"C1\",\"J\",\"33\"
\"\",\"\",\"approach-retreat\",\"37\",\"387998\",\"0.0-37.0\",\"\",\"\",\"2-4\",\"4566\",\"37\",\"0\",\"Training\",\"Stims/Figures/102-J-10-4.bmp\",\"nalala\",\"Left\",\"39\",\"3\",\"2\",\"9\",\"S\",\"J\",\"34\"
\"\",\"\",\"approach-retreat\",\"38\",\"394296\",\"0.0-38.0\",\"\",\"\",\"2-4\",\"4786\",\"37\",\"0\",\"Training\",\"Stims/Figures/118-C-20-2.bmp\",\"zaha:za\",\"Right\",\"39\",\"3\",\"3\",\"9\",\"C2\",\"J\",\"35\"
\"\",\"\",\"approach-retreat\",\"39\",\"399931\",\"0.0-39.0\",\"\",\"\",\"2-4\",\"4125\",\"37\",\"0\",\"Training\",\"Stims/Figures/111-C-30-3.bmp\",\"pa:ka:ka\",\"Right\",\"39\",\"3\",\"4\",\"9\",\"P\",\"J\",\"36\"
\"\",\"\",\"approach-retreat\",\"40\",\"421207\",\"0.0-40.0\",\"\",\"\",\"2-4\",\"19767\",\"39\",\"1\",\"Training\",\"Stims/Figures/71-J-0-1.bmp\",\"vafa:sha\",\"Left\",\"39\",\"3\",\"5\",\"9\",\"C1\",\"J\",\"37\"
\"\",\"\",\"approach-retreat\",\"41\",\"426708\",\"0.0-41.0\",\"\",\"\",\"2-4\",\"3991\",\"38\",\"1\",\"Training\",\"Stims/Figures/87-J-10-4.bmp\",\"ta:ka:ta\",\"Down\",\"38\",\"3\",\"6\",\"9\",\"P\",\"J\",\"38\"
\"\",\"\",\"approach-retreat\",\"42\",\"432434\",\"0.0-42.0\",\"\",\"\",\"2-4\",\"4222\",\"39\",\"1\",\"Training\",\"Stims/Figures/102-C-20-4.bmp\",\"fa:sha:va\",\"Right\",\"39\",\"3\",\"7\",\"9\",\"C1\",\"J\",\"39\"
\"\",\"\",\"approach-retreat\",\"43\",\"438074\",\"0.0-43.0\",\"\",\"\",\"2-4\",\"4131\",\"37\",\"1\",\"Training\",\"Stims/Figures/139-C-20-2.bmp\",\"fafava\",\"Left\",\"37\",\"3\",\"8\",\"9\",\"C1\",\"J\",\"40\"
\"\",\"\",\"approach-retreat\",\"44\",\"444460\",\"0.0-44.0\",\"\",\"\",\"2-4\",\"4878\",\"38\",\"0\",\"Training\",\"Stims/Figures/139-J-0-2.bmp\",\"va:fa:sha\",\"Up\",\"40\",\"3\",\"9\",\"9\",\"C1\",\"J\",\"41\"
\"\",\"\",\"approach-retreat\",\"45\",\"452642\",\"0.0-45.0\",\"\",\"\",\"2-4\",\"6675\",\"38\",\"1\",\"Training\",\"Stims/Figures/144-J-10-3.bmp\",\"za:haha\",\"Down\",\"38\",\"3\",\"10\",\"9\",\"C2\",\"J\",\"42\"
\"\",\"\",\"approach-retreat\",\"46\",\"458582\",\"0.0-46.0\",\"\",\"\",\"2-4\",\"4436\",\"38\",\"0\",\"Training\",\"Stims/Figures/93-J-0-1.bmp\",\"zahaha\",\"Up\",\"40\",\"3\",\"11\",\"9\",\"C2\",\"J\",\"43\"
\"\",\"\",\"approach-retreat\",\"47\",\"464668\",\"0.0-47.0\",\"\",\"\",\"2-4\",\"4578\",\"40\",\"1\",\"Training\",\"Stims/Figures/71-C-30-1.bmp\",\"pakata\",\"Down\",\"40\",\"3\",\"12\",\"9\",\"P\",\"J\",\"44\"
\"\",\"\",\"approach-retreat\",\"48\",\"470674\",\"0.0-48.0\",\"\",\"\",\"2-4\",\"4498\",\"38\",\"0\",\"Training\",\"Stims/Figures/118-J-0-2.bmp\",\"zasaza\",\"Up\",\"40\",\"3\",\"13\",\"9\",\"C2\",\"J\",\"45\"
\"\",\"\",\"approach-retreat\",\"49\",\"477592\",\"0.0-49.0\",\"\",\"\",\"2-4\",\"5407\",\"37\",\"0\",\"Training\",\"Stims/Figures/144-C-30-3.bmp\",\"fasha:sha\",\"Right\",\"39\",\"3\",\"14\",\"9\",\"C1\",\"J\",\"46\"
\"\",\"\",\"approach-retreat\",\"50\",\"483807\",\"0.0-50.0\",\"\",\"\",\"2-4\",\"4705\",\"38\",\"1\",\"Training\",\"Stims/Figures/111-J-10-3.bmp\",\"na:la:na\",\"Down\",\"38\",\"3\",\"15\",\"9\",\"S\",\"J\",\"47\"
\"\",\"\",\"approach-retreat\",\"51\",\"491413\",\"0.0-51.0\",\"\",\"\",\"2-4\",\"6095\",\"37\",\"1\",\"Training\",\"Stims/Figures/93-C-30-1.bmp\",\"pa:ka:ta\",\"Left\",\"37\",\"3\",\"16\",\"9\",\"P\",\"J\",\"48\"
\"\",\"\",\"approach-retreat\",\"52\",\"497648\",\"0.0-52.0\",\"\",\"\",\"2-4\",\"4733\",\"37\",\"0\",\"Training\",\"Stims/Figures/144-J-10-3.bmp\",\"za:haha\",\"Left\",\"39\",\"4\",\"1\",\"9\",\"C2\",\"J\",\"49\"
\"\",\"\",\"approach-retreat\",\"53\",\"505439\",\"0.0-53.0\",\"\",\"\",\"2-4\",\"6287\",\"38\",\"0\",\"Training\",\"Stims/Figures/71-J-0-1.bmp\",\"vafa:sha\",\"Up\",\"40\",\"4\",\"2\",\"9\",\"C1\",\"J\",\"50\"
\"\",\"\",\"approach-retreat\",\"54\",\"514832\",\"0.0-54.0\",\"\",\"\",\"2-4\",\"7890\",\"40\",\"1\",\"Training\",\"Stims/Figures/111-C-30-3.bmp\",\"pa:ka:ka\",\"Down\",\"40\",\"4\",\"3\",\"9\",\"P\",\"J\",\"51\"
\"\",\"\",\"approach-retreat\",\"55\",\"522533\",\"0.0-55.0\",\"\",\"\",\"2-4\",\"6197\",\"39\",\"1\",\"Training\",\"Stims/Figures/139-C-20-2.bmp\",\"fafava\",\"Right\",\"39\",\"4\",\"4\",\"9\",\"C1\",\"J\",\"52\"
\"\",\"\",\"approach-retreat\",\"56\",\"528477\",\"0.0-56.0\",\"\",\"\",\"2-4\",\"4434\",\"40\",\"0\",\"Training\",\"Stims/Figures/93-J-0-1.bmp\",\"zahaha\",\"Down\",\"38\",\"4\",\"5\",\"9\",\"C2\",\"J\",\"53\"
\"\",\"\",\"approach-retreat\",\"57\",\"534133\",\"0.0-57.0\",\"\",\"\",\"2-4\",\"4145\",\"37\",\"1\",\"Training\",\"Stims/Figures/71-C-30-1.bmp\",\"pakata\",\"Left\",\"37\",\"4\",\"6\",\"9\",\"P\",\"J\",\"54\"
\"\",\"\",\"approach-retreat\",\"58\",\"540423\",\"0.0-58.0\",\"\",\"\",\"2-4\",\"4788\",\"37\",\"0\",\"Training\",\"Stims/Figures/144-C-30-3.bmp\",\"fasha:sha\",\"Right\",\"39\",\"4\",\"7\",\"9\",\"C1\",\"J\",\"55\"
\"\",\"\",\"approach-retreat\",\"59\",\"555132\",\"0.0-59.0\",\"\",\"\",\"2-4\",\"13199\",\"38\",\"1\",\"Training\",\"Stims/Figures/102-C-20-4.bmp\",\"fa:sha:va\",\"Up\",\"38\",\"4\",\"8\",\"9\",\"C1\",\"J\",\"56\"
\"\",\"\",\"approach-retreat\",\"60\",\"562980\",\"0.0-60.0\",\"\",\"\",\"2-4\",\"6341\",\"38\",\"1\",\"Training\",\"Stims/Figures/118-J-0-2.bmp\",\"zasaza\",\"Down\",\"38\",\"4\",\"9\",\"9\",\"C2\",\"J\",\"57\"
\"\",\"\",\"approach-retreat\",\"61\",\"570804\",\"0.0-61.0\",\"\",\"\",\"2-4\",\"6314\",\"37\",\"1\",\"Training\",\"Stims/Figures/87-C-20-4.bmp\",\"vashava\",\"Left\",\"37\",\"4\",\"10\",\"9\",\"C1\",\"J\",\"58\"
\"\",\"\",\"approach-retreat\",\"62\",\"576328\",\"0.0-62.0\",\"\",\"\",\"2-4\",\"4016\",\"39\",\"1\",\"Training\",\"Stims/Figures/93-C-30-1.bmp\",\"pa:ka:ta\",\"Right\",\"39\",\"4\",\"11\",\"9\",\"P\",\"J\",\"59\"
\"\",\"\",\"approach-retreat\",\"63\",\"582097\",\"0.0-63.0\",\"\",\"\",\"2-4\",\"4263\",\"39\",\"1\",\"Training\",\"Stims/Figures/111-J-10-3.bmp\",\"na:la:na\",\"Left\",\"39\",\"4\",\"12\",\"9\",\"S\",\"J\",\"60\"
\"\",\"\",\"approach-retreat\",\"64\",\"587883\",\"0.0-64.0\",\"\",\"\",\"2-4\",\"4281\",\"38\",\"0\",\"Training\",\"Stims/Figures/102-J-10-4.bmp\",\"nalala\",\"Up\",\"40\",\"4\",\"13\",\"9\",\"S\",\"J\",\"61\"
\"\",\"\",\"approach-retreat\",\"65\",\"593504\",\"0.0-65.0\",\"\",\"\",\"2-4\",\"4115\",\"37\",\"1\",\"Training\",\"Stims/Figures/139-J-0-2.bmp\",\"va:fa:sha\",\"Right\",\"37\",\"4\",\"14\",\"9\",\"C1\",\"J\",\"62\"
\"\",\"\",\"approach-retreat\",\"66\",\"599680\",\"0.0-66.0\",\"\",\"\",\"2-4\",\"4670\",\"40\",\"1\",\"Training\",\"Stims/Figures/118-C-20-2.bmp\",\"zaha:za\",\"Down\",\"40\",\"4\",\"15\",\"9\",\"C2\",\"J\",\"63\"
\"\",\"\",\"approach-retreat\",\"67\",\"605660\",\"0.0-67.0\",\"\",\"\",\"2-4\",\"4473\",\"38\",\"0\",\"Training\",\"Stims/Figures/87-J-10-4.bmp\",\"ta:ka:ta\",\"Up\",\"40\",\"4\",\"16\",\"9\",\"P\",\"J\",\"64\"
\"\",\"\",\"approach-retreat\",\"68\",\"612831\",\"0.0-68.0\",\"\",\"\",\"2-4\",\"5663\",\"39\",\"0\",\"Training\",\"Stims/Figures/102-C-20-4.bmp\",\"fa:sha:va\",\"Left\",\"37\",\"5\",\"1\",\"9\",\"C1\",\"J\",\"65\"
\"\",\"\",\"approach-retreat\",\"69\",\"619483\",\"0.0-69.0\",\"\",\"\",\"2-4\",\"5147\",\"37\",\"0\",\"Training\",\"Stims/Figures/139-J-0-2.bmp\",\"va:fa:sha\",\"Left\",\"39\",\"5\",\"2\",\"9\",\"C1\",\"J\",\"66\"
\"\",\"\",\"approach-retreat\",\"70\",\"625299\",\"0.0-70.0\",\"\",\"\",\"2-4\",\"4310\",\"37\",\"1\",\"Training\",\"Stims/Figures/118-J-0-2.bmp\",\"zasaza\",\"Right\",\"37\",\"5\",\"3\",\"9\",\"C2\",\"J\",\"67\"
\"\",\"\",\"approach-retreat\",\"71\",\"631955\",\"0.0-71.0\",\"\",\"\",\"2-4\",\"5150\",\"38\",\"1\",\"Training\",\"Stims/Figures/102-J-10-4.bmp\",\"nalala\",\"Down\",\"38\",\"5\",\"4\",\"9\",\"S\",\"J\",\"68\"
\"\",\"\",\"approach-retreat\",\"72\",\"637865\",\"0.0-72.0\",\"\",\"\",\"2-4\",\"4399\",\"38\",\"0\",\"Training\",\"Stims/Figures/144-J-10-3.bmp\",\"za:haha\",\"Up\",\"40\",\"5\",\"5\",\"9\",\"C2\",\"J\",\"69\"
\"\",\"\",\"approach-retreat\",\"73\",\"643627\",\"0.0-73.0\",\"\",\"\",\"2-4\",\"4256\",\"40\",\"1\",\"Training\",\"Stims/Figures/93-J-0-1.bmp\",\"zahaha\",\"Up\",\"40\",\"5\",\"6\",\"9\",\"C2\",\"J\",\"70\"
\"\",\"\",\"approach-retreat\",\"74\",\"650099\",\"0.0-74.0\",\"\",\"\",\"2-4\",\"4963\",\"38\",\"0\",\"Training\",\"Stims/Figures/139-C-20-2.bmp\",\"fafava\",\"Down\",\"40\",\"5\",\"7\",\"9\",\"C1\",\"J\",\"71\"
\"\",\"\",\"approach-retreat\",\"75\",\"655859\",\"0.0-75.0\",\"\",\"\",\"2-4\",\"4257\",\"37\",\"1\",\"Training\",\"Stims/Figures/118-C-20-2.bmp\",\"zaha:za\",\"Left\",\"37\",\"5\",\"8\",\"9\",\"C2\",\"J\",\"72\"
\"\",\"\",\"approach-retreat\",\"76\",\"661856\",\"0.0-76.0\",\"\",\"\",\"2-4\",\"4495\",\"38\",\"0\",\"Training\",\"Stims/Figures/71-J-0-1.bmp\",\"vafa:sha\",\"Up\",\"40\",\"5\",\"9\",\"9\",\"C1\",\"J\",\"73\"
\"\",\"\",\"approach-retreat\",\"77\",\"667702\",\"0.0-77.0\",\"\",\"\",\"2-4\",\"4334\",\"39\",\"0\",\"Training\",\"Stims/Figures/111-J-10-3.bmp\",\"na:la:na\",\"Right\",\"37\",\"5\",\"10\",\"9\",\"S\",\"J\",\"74\"
\"\",\"\",\"approach-retreat\",\"78\",\"677327\",\"0.0-78.0\",\"\",\"\",\"2-4\",\"8116\",\"40\",\"0\",\"Training\",\"Stims/Figures/87-J-10-4.bmp\",\"ta:ka:ta\",\"Down\",\"38\",\"5\",\"11\",\"9\",\"P\",\"J\",\"75\"
\"\",\"\",\"approach-retreat\",\"79\",\"682974\",\"0.0-79.0\",\"\",\"\",\"2-4\",\"4136\",\"39\",\"0\",\"Training\",\"Stims/Figures/87-C-20-4.bmp\",\"vashava\",\"Left\",\"37\",\"5\",\"12\",\"9\",\"C1\",\"J\",\"76\"
\"\",\"\",\"approach-retreat\",\"80\",\"691091\",\"0.0-80.0\",\"\",\"\",\"2-4\",\"6610\",\"37\",\"0\",\"Training\",\"Stims/Figures/144-C-30-3.bmp\",\"fasha:sha\",\"Right\",\"39\",\"5\",\"13\",\"9\",\"C1\",\"J\",\"77\"
\"\",\"\",\"approach-retreat\",\"81\",\"699307\",\"0.0-81.0\",\"\",\"\",\"2-4\",\"6706\",\"38\",\"1\",\"Training\",\"Stims/Figures/71-C-30-1.bmp\",\"pakata\",\"Up\",\"38\",\"5\",\"14\",\"9\",\"P\",\"J\",\"78\"
\"\",\"\",\"approach-retreat\",\"82\",\"708737\",\"0.0-82.0\",\"\",\"\",\"2-4\",\"7925\",\"39\",\"1\",\"Training\",\"Stims/Figures/111-C-30-3.bmp\",\"pa:ka:ka\",\"Right\",\"39\",\"5\",\"15\",\"9\",\"P\",\"J\",\"79\"
\"\",\"\",\"approach-retreat\",\"83\",\"715301\",\"0.0-83.0\",\"\",\"\",\"2-4\",\"5061\",\"38\",\"0\",\"Training\",\"Stims/Figures/93-C-30-1.bmp\",\"pa:ka:ta\",\"Down\",\"40\",\"5\",\"16\",\"9\",\"P\",\"J\",\"80\"
\"\",\"\",\"approach-retreat\",\"84\",\"720978\",\"0.0-84.0\",\"\",\"\",\"2-4\",\"4174\",\"40\",\"1\",\"Training\",\"Stims/Figures/71-C-30-1.bmp\",\"pakata\",\"Down\",\"40\",\"6\",\"1\",\"9\",\"P\",\"J\",\"81\"
\"\",\"\",\"approach-retreat\",\"85\",\"729365\",\"0.0-85.0\",\"\",\"\",\"2-4\",\"6879\",\"38\",\"1\",\"Training\",\"Stims/Figures/93-C-30-1.bmp\",\"pa:ka:ta\",\"Up\",\"38\",\"6\",\"2\",\"9\",\"P\",\"J\",\"82\"
\"\",\"\",\"approach-retreat\",\"86\",\"735839\",\"0.0-86.0\",\"\",\"\",\"2-4\",\"4970\",\"40\",\"0\",\"Training\",\"Stims/Figures/144-C-30-3.bmp\",\"fasha:sha\",\"Up\",\"38\",\"6\",\"3\",\"9\",\"C1\",\"J\",\"83\"
\"\",\"\",\"approach-retreat\",\"87\",\"741600\",\"0.0-87.0\",\"\",\"\",\"2-4\",\"4257\",\"39\",\"0\",\"Training\",\"Stims/Figures/111-J-10-3.bmp\",\"na:la:na\",\"Right\",\"37\",\"6\",\"4\",\"9\",\"S\",\"J\",\"84\"
\"\",\"\",\"approach-retreat\",\"88\",\"747240\",\"0.0-88.0\",\"\",\"\",\"2-4\",\"4132\",\"39\",\"1\",\"Training\",\"Stims/Figures/93-J-0-1.bmp\",\"zahaha\",\"Left\",\"39\",\"6\",\"5\",\"9\",\"C2\",\"J\",\"85\"
\"\",\"\",\"approach-retreat\",\"89\",\"754688\",\"0.0-89.0\",\"\",\"\",\"2-4\",\"5944\",\"39\",\"1\",\"Training\",\"Stims/Figures/102-J-10-4.bmp\",\"nalala\",\"Left\",\"39\",\"6\",\"6\",\"9\",\"S\",\"J\",\"86\"
\"\",\"\",\"approach-retreat\",\"90\",\"760909\",\"0.0-90.0\",\"\",\"\",\"2-4\",\"4717\",\"40\",\"0\",\"Training\",\"Stims/Figures/118-C-20-2.bmp\",\"zaha:za\",\"Up\",\"38\",\"6\",\"7\",\"9\",\"C2\",\"J\",\"87\"
\"\",\"\",\"approach-retreat\",\"91\",\"766756\",\"0.0-91.0\",\"\",\"\",\"2-4\",\"4342\",\"40\",\"0\",\"Training\",\"Stims/Figures/144-J-10-3.bmp\",\"za:haha\",\"Down\",\"38\",\"6\",\"8\",\"9\",\"C2\",\"J\",\"88\"
\"\",\"\",\"approach-retreat\",\"92\",\"773052\",\"0.0-92.0\",\"\",\"\",\"2-4\",\"4793\",\"37\",\"1\",\"Training\",\"Stims/Figures/118-J-0-2.bmp\",\"zasaza\",\"Right\",\"37\",\"6\",\"9\",\"9\",\"C2\",\"J\",\"89\"
\"\",\"\",\"approach-retreat\",\"93\",\"778758\",\"0.0-93.0\",\"\",\"\",\"2-4\",\"4199\",\"37\",\"0\",\"Training\",\"Stims/Figures/139-J-0-2.bmp\",\"va:fa:sha\",\"Left\",\"39\",\"6\",\"10\",\"9\",\"C1\",\"J\",\"90\"
\"\",\"\",\"approach-retreat\",\"94\",\"784496\",\"0.0-94.0\",\"\",\"\",\"2-4\",\"4226\",\"40\",\"1\",\"Training\",\"Stims/Figures/87-C-20-4.bmp\",\"vashava\",\"Down\",\"40\",\"6\",\"11\",\"9\",\"C1\",\"J\",\"91\"
\"\",\"\",\"approach-retreat\",\"95\",\"790359\",\"0.0-95.0\",\"\",\"\",\"2-4\",\"4359\",\"40\",\"1\",\"Training\",\"Stims/Figures/102-C-20-4.bmp\",\"fa:sha:va\",\"Down\",\"40\",\"6\",\"12\",\"9\",\"C1\",\"J\",\"92\"
\"\",\"\",\"approach-retreat\",\"96\",\"795929\",\"0.0-96.0\",\"\",\"\",\"2-4\",\"4061\",\"37\",\"1\",\"Training\",\"Stims/Figures/71-J-0-1.bmp\",\"vafa:sha\",\"Right\",\"37\",\"6\",\"13\",\"9\",\"C1\",\"J\",\"93\"
\"\",\"\",\"approach-retreat\",\"97\",\"801692\",\"0.0-97.0\",\"\",\"\",\"2-4\",\"4258\",\"37\",\"1\",\"Training\",\"Stims/Figures/111-C-30-3.bmp\",\"pa:ka:ka\",\"Left\",\"37\",\"6\",\"14\",\"9\",\"P\",\"J\",\"94\"
\"\",\"\",\"approach-retreat\",\"98\",\"808567\",\"0.0-98.0\",\"\",\"\",\"2-4\",\"5367\",\"38\",\"0\",\"Training\",\"Stims/Figures/87-J-10-4.bmp\",\"ta:ka:ta\",\"Up\",\"40\",\"6\",\"15\",\"9\",\"P\",\"J\",\"95\"
\"\",\"\",\"approach-retreat\",\"99\",\"814104\",\"0.0-99.0\",\"\",\"\",\"2-4\",\"4033\",\"37\",\"0\",\"Training\",\"Stims/Figures/139-C-20-2.bmp\",\"fafava\",\"Right\",\"39\",\"6\",\"16\",\"9\",\"C1\",\"J\",\"96\"
\"\",\"\",\"approach-retreat\",\"100\",\"819588\",\"0.0-100.0\",\"\",\"\",\"2-4\",\"3980\",\"39\",\"1\",\"Training\",\"Stims/Figures/118-J-0-2.bmp\",\"zasaza\",\"Left\",\"39\",\"7\",\"1\",\"9\",\"C2\",\"J\",\"97\"
\"\",\"\",\"approach-retreat\",\"101\",\"825299\",\"0.0-101.0\",\"\",\"\",\"2-4\",\"4203\",\"37\",\"1\",\"Training\",\"Stims/Figures/111-C-30-3.bmp\",\"pa:ka:ka\",\"Left\",\"37\",\"7\",\"2\",\"9\",\"P\",\"J\",\"98\"
\"\",\"\",\"approach-retreat\",\"102\",\"832611\",\"0.0-102.0\",\"\",\"\",\"2-4\",\"5804\",\"37\",\"1\",\"Training\",\"Stims/Figures/87-C-20-4.bmp\",\"vashava\",\"Left\",\"37\",\"7\",\"3\",\"9\",\"C1\",\"J\",\"99\"
\"\",\"\",\"approach-retreat\",\"103\",\"839429\",\"0.0-103.0\",\"\",\"\",\"2-4\",\"5312\",\"38\",\"1\",\"Training\",\"Stims/Figures/118-C-20-2.bmp\",\"zaha:za\",\"Up\",\"38\",\"7\",\"4\",\"9\",\"C2\",\"J\",\"100\"
\"\",\"\",\"approach-retreat\",\"104\",\"845080\",\"0.0-104.0\",\"\",\"\",\"2-4\",\"4142\",\"38\",\"1\",\"Training\",\"Stims/Figures/87-J-10-4.bmp\",\"ta:ka:ta\",\"Down\",\"38\",\"7\",\"5\",\"9\",\"P\",\"J\",\"101\"
\"\",\"\",\"approach-retreat\",\"105\",\"850751\",\"0.0-105.0\",\"\",\"\",\"2-4\",\"4168\",\"40\",\"0\",\"Training\",\"Stims/Figures/102-C-20-4.bmp\",\"fa:sha:va\",\"Up\",\"38\",\"7\",\"6\",\"9\",\"C1\",\"J\",\"102\"
\"\",\"\",\"approach-retreat\",\"106\",\"856379\",\"0.0-106.0\",\"\",\"\",\"2-4\",\"4123\",\"40\",\"0\",\"Training\",\"Stims/Figures/71-C-30-1.bmp\",\"pakata\",\"Up\",\"38\",\"7\",\"7\",\"9\",\"P\",\"J\",\"103\"
\"\",\"\",\"approach-retreat\",\"107\",\"862116\",\"0.0-107.0\",\"\",\"\",\"2-4\",\"4227\",\"40\",\"0\",\"Training\",\"Stims/Figures/111-J-10-3.bmp\",\"na:la:na\",\"Down\",\"38\",\"7\",\"8\",\"9\",\"S\",\"J\",\"104\"
\"\",\"\",\"approach-retreat\",\"108\",\"868439\",\"0.0-108.0\",\"\",\"\",\"2-4\",\"4819\",\"37\",\"0\",\"Training\",\"Stims/Figures/144-J-10-3.bmp\",\"za:haha\",\"Left\",\"39\",\"7\",\"9\",\"9\",\"C2\",\"J\",\"105\"
\"\",\"\",\"approach-retreat\",\"109\",\"874712\",\"0.0-109.0\",\"\",\"\",\"2-4\",\"4769\",\"40\",\"0\",\"Training\",\"Stims/Figures/139-J-0-2.bmp\",\"va:fa:sha\",\"Down\",\"38\",\"7\",\"10\",\"9\",\"C1\",\"J\",\"106\"
\"\",\"\",\"approach-retreat\",\"110\",\"880546\",\"0.0-110.0\",\"\",\"\",\"2-4\",\"4332\",\"37\",\"1\",\"Training\",\"Stims/Figures/71-J-0-1.bmp\",\"vafa:sha\",\"Right\",\"37\",\"7\",\"11\",\"9\",\"C1\",\"J\",\"107\"
\"\",\"\",\"approach-retreat\",\"111\",\"887509\",\"0.0-111.0\",\"\",\"\",\"2-4\",\"5460\",\"39\",\"1\",\"Training\",\"Stims/Figures/144-C-30-3.bmp\",\"fasha:sha\",\"Right\",\"39\",\"7\",\"12\",\"9\",\"C1\",\"J\",\"108\"
\"\",\"\",\"approach-retreat\",\"112\",\"893680\",\"0.0-112.0\",\"\",\"\",\"2-4\",\"4669\",\"37\",\"0\",\"Training\",\"Stims/Figures/139-C-20-2.bmp\",\"fafava\",\"Right\",\"39\",\"7\",\"13\",\"9\",\"C1\",\"J\",\"109\"
\"\",\"\",\"approach-retreat\",\"113\",\"899467\",\"0.0-113.0\",\"\",\"\",\"2-4\",\"4279\",\"38\",\"1\",\"Training\",\"Stims/Figures/93-C-30-1.bmp\",\"pa:ka:ta\",\"Up\",\"38\",\"7\",\"14\",\"9\",\"P\",\"J\",\"110\"
\"\",\"\",\"approach-retreat\",\"114\",\"904974\",\"0.0-114.0\",\"\",\"\",\"2-4\",\"3995\",\"38\",\"1\",\"Training\",\"Stims/Figures/102-J-10-4.bmp\",\"nalala\",\"Down\",\"38\",\"7\",\"15\",\"9\",\"S\",\"J\",\"111\"
\"\",\"\",\"approach-retreat\",\"115\",\"910501\",\"0.0-115.0\",\"\",\"\",\"2-4\",\"4015\",\"37\",\"1\",\"Training\",\"Stims/Figures/93-J-0-1.bmp\",\"zahaha\",\"Right\",\"37\",\"7\",\"16\",\"9\",\"C2\",\"J\",\"112\"
\"\",\"\",\"approach-retreat\",\"116\",\"919032\",\"0.0-116.0\",\"\",\"\",\"2-4\",\"7024\",\"37\",\"1\",\"Training\",\"Stims/Figures/102-C-20-4.bmp\",\"fa:sha:va\",\"Left\",\"37\",\"8\",\"1\",\"9\",\"C1\",\"J\",\"113\"
\"\",\"\",\"approach-retreat\",\"117\",\"926082\",\"0.0-117.0\",\"\",\"\",\"2-4\",\"5545\",\"40\",\"0\",\"Training\",\"Stims/Figures/71-C-30-1.bmp\",\"pakata\",\"Up\",\"38\",\"8\",\"2\",\"9\",\"P\",\"J\",\"114\"
\"\",\"\",\"approach-retreat\",\"118\",\"932015\",\"0.0-118.0\",\"\",\"\",\"2-4\",\"4425\",\"39\",\"1\",\"Training\",\"Stims/Figures/144-J-10-3.bmp\",\"za:haha\",\"Left\",\"39\",\"8\",\"3\",\"9\",\"C2\",\"J\",\"115\"
\"\",\"\",\"approach-retreat\",\"119\",\"937493\",\"0.0-119.0\",\"\",\"\",\"2-4\",\"3967\",\"40\",\"1\",\"Training\",\"Stims/Figures/93-J-0-1.bmp\",\"zahaha\",\"Up\",\"40\",\"8\",\"4\",\"9\",\"C2\",\"J\",\"116\"
\"\",\"\",\"approach-retreat\",\"120\",\"943026\",\"0.0-120.0\",\"\",\"\",\"2-4\",\"4028\",\"37\",\"0\",\"Training\",\"Stims/Figures/93-C-30-1.bmp\",\"pa:ka:ta\",\"Right\",\"39\",\"8\",\"5\",\"9\",\"P\",\"J\",\"117\"
\"\",\"\",\"approach-retreat\",\"121\",\"949249\",\"0.0-121.0\",\"\",\"\",\"2-4\",\"4713\",\"38\",\"0\",\"Training\",\"Stims/Figures/87-J-10-4.bmp\",\"ta:ka:ta\",\"Up\",\"40\",\"8\",\"6\",\"9\",\"P\",\"J\",\"118\"
\"\",\"\",\"approach-retreat\",\"122\",\"957350\",\"0.0-122.0\",\"\",\"\",\"2-4\",\"6598\",\"40\",\"1\",\"Training\",\"Stims/Figures/118-C-20-2.bmp\",\"zaha:za\",\"Down\",\"40\",\"8\",\"7\",\"9\",\"C2\",\"J\",\"119\"
\"\",\"\",\"approach-retreat\",\"123\",\"964889\",\"0.0-123.0\",\"\",\"\",\"2-4\",\"6032\",\"38\",\"0\",\"Training\",\"Stims/Figures/111-J-10-3.bmp\",\"na:la:na\",\"Up\",\"40\",\"8\",\"8\",\"9\",\"S\",\"J\",\"120\"
\"\",\"\",\"approach-retreat\",\"124\",\"971524\",\"0.0-124.0\",\"\",\"\",\"2-4\",\"5131\",\"38\",\"1\",\"Training\",\"Stims/Figures/102-J-10-4.bmp\",\"nalala\",\"Down\",\"38\",\"8\",\"9\",\"9\",\"S\",\"J\",\"121\"
\"\",\"\",\"approach-retreat\",\"125\",\"978487\",\"0.0-125.0\",\"\",\"\",\"2-4\",\"5452\",\"37\",\"1\",\"Training\",\"Stims/Figures/139-C-20-2.bmp\",\"fafava\",\"Left\",\"37\",\"8\",\"10\",\"9\",\"C1\",\"J\",\"122\"
\"\",\"\",\"approach-retreat\",\"126\",\"985494\",\"0.0-126.0\",\"\",\"\",\"2-4\",\"5497\",\"37\",\"1\",\"Training\",\"Stims/Figures/118-J-0-2.bmp\",\"zasaza\",\"Right\",\"37\",\"8\",\"11\",\"9\",\"C2\",\"J\",\"123\"
\"\",\"\",\"approach-retreat\",\"127\",\"991118\",\"0.0-127.0\",\"\",\"\",\"2-4\",\"4122\",\"37\",\"0\",\"Training\",\"Stims/Figures/144-C-30-3.bmp\",\"fasha:sha\",\"Right\",\"39\",\"8\",\"12\",\"9\",\"C1\",\"J\",\"124\"
\"\",\"\",\"approach-retreat\",\"128\",\"996835\",\"0.0-128.0\",\"\",\"\",\"2-4\",\"4209\",\"37\",\"0\",\"Training\",\"Stims/Figures/139-J-0-2.bmp\",\"va:fa:sha\",\"Left\",\"39\",\"8\",\"13\",\"9\",\"C1\",\"J\",\"125\"
\"\",\"\",\"approach-retreat\",\"129\",\"1002651\",\"0.0-129.0\",\"\",\"\",\"2-4\",\"4310\",\"40\",\"1\",\"Training\",\"Stims/Figures/87-C-20-4.bmp\",\"vashava\",\"Down\",\"40\",\"8\",\"14\",\"9\",\"C1\",\"J\",\"126\"
\"\",\"\",\"approach-retreat\",\"130\",\"1012734\",\"0.0-130.0\",\"\",\"\",\"2-4\",\"8574\",\"40\",\"1\",\"Training\",\"Stims/Figures/111-C-30-3.bmp\",\"pa:ka:ka\",\"Down\",\"40\",\"8\",\"15\",\"9\",\"P\",\"J\",\"127\"
\"\",\"\",\"approach-retreat\",\"131\",\"1022202\",\"0.0-131.0\",\"\",\"\",\"2-4\",\"7955\",\"37\",\"1\",\"Training\",\"Stims/Figures/71-J-0-1.bmp\",\"vafa:sha\",\"Right\",\"37\",\"8\",\"16\",\"9\",\"C1\",\"J\",\"128\"
\"\",\"\",\"approach-retreat\",\"132\",\"1029419\",\"0.0-132.0\",\"\",\"\",\"2-4\",\"5707\",\"38\",\"1\",\"Training\",\"Stims/Figures/93-C-30-1.bmp\",\"pa:ka:ta\",\"Up\",\"38\",\"9\",\"1\",\"9\",\"P\",\"J\",\"129\"
\"\",\"\",\"approach-retreat\",\"133\",\"1035675\",\"0.0-133.0\",\"\",\"\",\"2-4\",\"4751\",\"40\",\"1\",\"Training\",\"Stims/Figures/111-C-30-3.bmp\",\"pa:ka:ka\",\"Down\",\"40\",\"9\",\"2\",\"9\",\"P\",\"J\",\"130\"
\"\",\"\",\"approach-retreat\",\"134\",\"1042592\",\"0.0-134.0\",\"\",\"\",\"2-4\",\"5408\",\"37\",\"0\",\"Training\",\"Stims/Figures/87-C-20-4.bmp\",\"vashava\",\"Right\",\"39\",\"9\",\"3\",\"9\",\"C1\",\"J\",\"131\"
\"\",\"\",\"approach-retreat\",\"135\",\"1048219\",\"0.0-135.0\",\"\",\"\",\"2-4\",\"4117\",\"38\",\"1\",\"Training\",\"Stims/Figures/87-J-10-4.bmp\",\"ta:ka:ta\",\"Down\",\"38\",\"9\",\"4\",\"9\",\"P\",\"J\",\"132\"
\"\",\"\",\"approach-retreat\",\"136\",\"1057031\",\"0.0-136.0\",\"\",\"\",\"2-4\",\"7303\",\"39\",\"1\",\"Training\",\"Stims/Figures/144-J-10-3.bmp\",\"za:haha\",\"Left\",\"39\",\"9\",\"5\",\"9\",\"C2\",\"J\",\"133\"
\"\",\"\",\"approach-retreat\",\"137\",\"1063066\",\"0.0-137.0\",\"\",\"\",\"2-4\",\"4529\",\"38\",\"0\",\"Training\",\"Stims/Figures/144-C-30-3.bmp\",\"fasha:sha\",\"Down\",\"40\",\"9\",\"6\",\"9\",\"C1\",\"J\",\"134\"
\"\",\"\",\"approach-retreat\",\"138\",\"1070586\",\"0.0-138.0\",\"\",\"\",\"2-4\",\"6014\",\"37\",\"1\",\"Training\",\"Stims/Figures/139-C-20-2.bmp\",\"fafava\",\"Left\",\"37\",\"9\",\"7\",\"9\",\"C1\",\"J\",\"135\"
\"\",\"\",\"approach-retreat\",\"139\",\"1076064\",\"0.0-139.0\",\"\",\"\",\"2-4\",\"3969\",\"39\",\"1\",\"Training\",\"Stims/Figures/93-J-0-1.bmp\",\"zahaha\",\"Left\",\"39\",\"9\",\"8\",\"9\",\"C2\",\"J\",\"136\"
\"\",\"\",\"approach-retreat\",\"140\",\"1081691\",\"0.0-140.0\",\"\",\"\",\"2-4\",\"4120\",\"38\",\"0\",\"Training\",\"Stims/Figures/71-J-0-1.bmp\",\"vafa:sha\",\"Up\",\"40\",\"9\",\"9\",\"9\",\"C1\",\"J\",\"137\"
\"\",\"\",\"approach-retreat\",\"141\",\"1087516\",\"0.0-141.0\",\"\",\"\",\"2-4\",\"4314\",\"40\",\"1\",\"Training\",\"Stims/Figures/139-J-0-2.bmp\",\"va:fa:sha\",\"Up\",\"40\",\"9\",\"10\",\"9\",\"C1\",\"J\",\"138\"
\"\",\"\",\"approach-retreat\",\"142\",\"1092958\",\"0.0-142.0\",\"\",\"\",\"2-4\",\"3936\",\"39\",\"1\",\"Training\",\"Stims/Figures/118-J-0-2.bmp\",\"zasaza\",\"Left\",\"39\",\"9\",\"11\",\"9\",\"C2\",\"J\",\"139\"
\"\",\"\",\"approach-retreat\",\"143\",\"1098907\",\"0.0-143.0\",\"\",\"\",\"2-4\",\"4437\",\"39\",\"1\",\"Training\",\"Stims/Figures/118-C-20-2.bmp\",\"zaha:za\",\"Right\",\"39\",\"9\",\"12\",\"9\",\"C2\",\"J\",\"140\"
\"\",\"\",\"approach-retreat\",\"144\",\"1104500\",\"0.0-144.0\",\"\",\"\",\"2-4\",\"4081\",\"40\",\"1\",\"Training\",\"Stims/Figures/102-J-10-4.bmp\",\"nalala\",\"Up\",\"40\",\"9\",\"13\",\"9\",\"S\",\"J\",\"141\"
\"\",\"\",\"approach-retreat\",\"145\",\"1110095\",\"0.0-145.0\",\"\",\"\",\"2-4\",\"4083\",\"39\",\"1\",\"Training\",\"Stims/Figures/71-C-30-1.bmp\",\"pakata\",\"Right\",\"39\",\"9\",\"14\",\"9\",\"P\",\"J\",\"142\"
\"\",\"\",\"approach-retreat\",\"146\",\"1116755\",\"0.0-146.0\",\"\",\"\",\"2-4\",\"5153\",\"39\",\"0\",\"Training\",\"Stims/Figures/111-J-10-3.bmp\",\"na:la:na\",\"Right\",\"37\",\"9\",\"15\",\"9\",\"S\",\"J\",\"143\"
\"\",\"\",\"approach-retreat\",\"147\",\"1122623\",\"0.0-147.0\",\"\",\"\",\"2-4\",\"4356\",\"38\",\"0\",\"Training\",\"Stims/Figures/102-C-20-4.bmp\",\"fa:sha:va\",\"Down\",\"40\",\"9\",\"16\",\"9\",\"C1\",\"J\",\"144\"
\"14155\",\"\",\"instructions\",\"148\",\"1136778\",\"0.0-148.0\",\"[{\"\"page_index\"\":0,\"\"viewing_time\"\":14154}]\",\"\",\"\",\"\",\"\",\"\",\"\",\"\",\"\",\"\",\"\",\"\",\"\",\"\",\"\",\"\",\"\"
\"\",\"\",\"approach-retreat\",\"149\",\"1153812\",\"0.0-149.0\",\"\",\"\",\"2-4\",\"15528\",\"37\",\"1\",\"Testing\",\"Stims/Figures/118-J-0-2.bmp\",\"zasaza\",\"Right\",\"37\",\"1\",\"1\",\"9\",\"C2\",\"J\",\"1\"
\"\",\"\",\"approach-retreat\",\"150\",\"1164262\",\"0.0-150.0\",\"\",\"\",\"2-4\",\"8945\",\"40\",\"1\",\"Testing\",\"Stims/Figures/71-C-30-1.bmp\",\"pakata\",\"Down\",\"40\",\"1\",\"2\",\"9\",\"P\",\"J\",\"2\"
\"\",\"\",\"approach-retreat\",\"151\",\"1173046\",\"0.0-151.0\",\"\",\"\",\"2-4\",\"7277\",\"39\",\"1\",\"Testing\",\"Stims/Figures/87-C-20-4.bmp\",\"vashava\",\"Right\",\"39\",\"1\",\"3\",\"9\",\"C1\",\"J\",\"3\"
\"\",\"\",\"approach-retreat\",\"152\",\"1180032\",\"0.0-152.0\",\"\",\"\",\"2-4\",\"5481\",\"38\",\"1\",\"Testing\",\"Stims/Figures/71-J-0-1.bmp\",\"vafa:sha\",\"Down\",\"38\",\"1\",\"4\",\"9\",\"C1\",\"J\",\"4\"
\"\",\"\",\"approach-retreat\",\"153\",\"1191639\",\"0.0-153.0\",\"\",\"\",\"2-4\",\"10100\",\"38\",\"0\",\"Testing\",\"Stims/Figures/128-J-10-3.bmp\",\"mama:na\",\"Up\",\"40\",\"1\",\"5\",\"9\",\"S\",\"J\",\"5\"
\"\",\"\",\"approach-retreat\",\"154\",\"1199163\",\"0.0-154.0\",\"\",\"\",\"2-4\",\"6015\",\"40\",\"1\",\"Testing\",\"Stims/Figures/7-J-10-4.bmp\",\"ma:la:la\",\"Up\",\"40\",\"1\",\"6\",\"9\",\"S\",\"J\",\"6\"
\"\",\"\",\"approach-retreat\",\"155\",\"1207240\",\"0.0-155.0\",\"\",\"\",\"2-4\",\"6566\",\"37\",\"0\",\"Testing\",\"Stims/Figures/144-J-10-3.bmp\",\"za:haha\",\"Left\",\"39\",\"1\",\"7\",\"9\",\"C2\",\"J\",\"7\"
\"\",\"\",\"approach-retreat\",\"156\",\"1215257\",\"0.0-156.0\",\"\",\"\",\"2-4\",\"6509\",\"39\",\"1\",\"Testing\",\"Stims/Figures/118-C-20-2.bmp\",\"zaha:za\",\"Right\",\"39\",\"1\",\"8\",\"9\",\"C2\",\"J\",\"8\"
\"\",\"\",\"approach-retreat\",\"157\",\"1221811\",\"0.0-157.0\",\"\",\"\",\"2-4\",\"5051\",\"38\",\"1\",\"Testing\",\"Stims/Figures/57-C-30-1.bmp\",\"papata\",\"Up\",\"38\",\"1\",\"9\",\"9\",\"P\",\"J\",\"9\"
\"\",\"\",\"approach-retreat\",\"158\",\"1229954\",\"0.0-158.0\",\"\",\"\",\"2-4\",\"6636\",\"37\",\"0\",\"Testing\",\"Stims/Figures/102-C-20-4.bmp\",\"fa:sha:va\",\"Right\",\"39\",\"1\",\"10\",\"9\",\"C1\",\"J\",\"10\"
\"\",\"\",\"approach-retreat\",\"159\",\"1240969\",\"0.0-159.0\",\"\",\"\",\"2-4\",\"9510\",\"39\",\"1\",\"Testing\",\"Stims/Figures/57-J-0-1.bmp\",\"fasha:va\",\"Left\",\"39\",\"1\",\"11\",\"9\",\"C1\",\"J\",\"11\"
\"\",\"\",\"approach-retreat\",\"160\",\"1250317\",\"0.0-160.0\",\"\",\"\",\"2-4\",\"7838\",\"40\",\"1\",\"Testing\",\"Stims/Figures/139-J-0-2.bmp\",\"va:fa:sha\",\"Up\",\"40\",\"1\",\"12\",\"9\",\"C1\",\"J\",\"12\"
\"\",\"\",\"approach-retreat\",\"161\",\"1257306\",\"0.0-161.0\",\"\",\"\",\"2-4\",\"5483\",\"37\",\"1\",\"Testing\",\"Stims/Figures/144-C-30-3.bmp\",\"fasha:sha\",\"Left\",\"37\",\"1\",\"13\",\"9\",\"C1\",\"J\",\"13\"
\"\",\"\",\"approach-retreat\",\"162\",\"1263522\",\"0.0-162.0\",\"\",\"\",\"2-4\",\"4713\",\"38\",\"1\",\"Testing\",\"Stims/Figures/139-C-20-2.bmp\",\"fafava\",\"Up\",\"38\",\"1\",\"14\",\"9\",\"C1\",\"J\",\"14\"
\"\",\"\",\"approach-retreat\",\"163\",\"1270576\",\"0.0-163.0\",\"\",\"\",\"2-4\",\"5547\",\"40\",\"1\",\"Testing\",\"Stims/Figures/94-C-20-2.bmp\",\"mama:la\",\"Down\",\"40\",\"1\",\"15\",\"9\",\"S\",\"J\",\"15\"
\"\",\"\",\"approach-retreat\",\"164\",\"1277500\",\"0.0-164.0\",\"\",\"\",\"2-4\",\"5420\",\"40\",\"0\",\"Testing\",\"Stims/Figures/128-C-30-3.bmp\",\"va:shasha\",\"Up\",\"38\",\"1\",\"16\",\"9\",\"C1\",\"J\",\"16\"
\"\",\"\",\"approach-retreat\",\"165\",\"1283940\",\"0.0-165.0\",\"\",\"\",\"2-4\",\"4936\",\"38\",\"1\",\"Testing\",\"Stims/Figures/87-J-10-4.bmp\",\"ta:ka:ta\",\"Down\",\"38\",\"1\",\"17\",\"9\",\"P\",\"J\",\"17\"
\"\",\"\",\"approach-retreat\",\"166\",\"1290517\",\"0.0-166.0\",\"\",\"\",\"2-4\",\"5071\",\"38\",\"1\",\"Testing\",\"Stims/Figures/111-J-10-3.bmp\",\"na:la:na\",\"Down\",\"38\",\"1\",\"18\",\"9\",\"S\",\"J\",\"18\"
\"\",\"\",\"approach-retreat\",\"167\",\"1297591\",\"0.0-167.0\",\"\",\"\",\"2-4\",\"5562\",\"39\",\"1\",\"Testing\",\"Stims/Figures/94-J-0-2.bmp\",\"sa:ha:ha\",\"Left\",\"39\",\"1\",\"19\",\"9\",\"C2\",\"J\",\"19\"
\"\",\"\",\"approach-retreat\",\"168\",\"1307606\",\"0.0-168.0\",\"\",\"\",\"2-4\",\"8505\",\"39\",\"1\",\"Testing\",\"Stims/Figures/111-C-30-3.bmp\",\"pa:ka:ka\",\"Right\",\"39\",\"1\",\"20\",\"9\",\"P\",\"J\",\"20\"
\"\",\"\",\"approach-retreat\",\"169\",\"1313180\",\"0.0-169.0\",\"\",\"\",\"2-4\",\"4063\",\"38\",\"1\",\"Testing\",\"Stims/Figures/102-J-10-4.bmp\",\"nalala\",\"Down\",\"38\",\"1\",\"21\",\"9\",\"S\",\"J\",\"21\"
\"\",\"\",\"approach-retreat\",\"170\",\"1318985\",\"0.0-170.0\",\"\",\"\",\"2-4\",\"4295\",\"39\",\"1\",\"Testing\",\"Stims/Figures/93-J-0-1.bmp\",\"zahaha\",\"Left\",\"39\",\"1\",\"22\",\"9\",\"C2\",\"J\",\"22\"
\"\",\"\",\"approach-retreat\",\"171\",\"1325267\",\"0.0-171.0\",\"\",\"\",\"2-4\",\"4774\",\"39\",\"1\",\"Testing\",\"Stims/Figures/93-C-30-1.bmp\",\"pa:ka:ta\",\"Right\",\"39\",\"1\",\"23\",\"9\",\"P\",\"J\",\"23\"
\"\",\"\",\"approach-retreat\",\"172\",\"1331184\",\"0.0-172.0\",\"\",\"\",\"2-4\",\"4413\",\"39\",\"0\",\"Testing\",\"Stims/Figures/7-C-20-4.bmp\",\"va:sha:sha\",\"Left\",\"37\",\"1\",\"24\",\"9\",\"C1\",\"J\",\"24\"
\"\",\"\",\"approach-retreat\",\"173\",\"1338629\",\"0.0-173.0\",\"\",\"\",\"2-4\",\"5937\",\"37\",\"0\",\"Testing\",\"Stims/Figures/102-C-20-4.bmp\",\"fa:sha:va\",\"Right\",\"39\",\"2\",\"1\",\"9\",\"C1\",\"J\",\"25\"
\"\",\"\",\"approach-retreat\",\"174\",\"1344795\",\"0.0-174.0\",\"\",\"\",\"2-4\",\"4663\",\"40\",\"1\",\"Testing\",\"Stims/Figures/118-C-20-2.bmp\",\"zaha:za\",\"Down\",\"40\",\"2\",\"2\",\"9\",\"C2\",\"J\",\"26\"
\"\",\"\",\"approach-retreat\",\"175\",\"1353915\",\"0.0-175.0\",\"\",\"\",\"2-4\",\"7615\",\"40\",\"1\",\"Testing\",\"Stims/Figures/87-C-20-4.bmp\",\"vashava\",\"Down\",\"40\",\"2\",\"3\",\"9\",\"C1\",\"J\",\"27\"
\"\",\"\",\"approach-retreat\",\"176\",\"1360998\",\"0.0-176.0\",\"\",\"\",\"2-4\",\"5572\",\"40\",\"1\",\"Testing\",\"Stims/Figures/102-J-10-4.bmp\",\"nalala\",\"Up\",\"40\",\"2\",\"4\",\"9\",\"S\",\"J\",\"28\"
\"\",\"\",\"approach-retreat\",\"177\",\"1367134\",\"0.0-177.0\",\"\",\"\",\"2-4\",\"4627\",\"38\",\"1\",\"Testing\",\"Stims/Figures/93-C-30-1.bmp\",\"pa:ka:ta\",\"Up\",\"38\",\"2\",\"5\",\"9\",\"P\",\"J\",\"29\"
\"\",\"\",\"approach-retreat\",\"178\",\"1373591\",\"0.0-178.0\",\"\",\"\",\"2-4\",\"4945\",\"37\",\"1\",\"Testing\",\"Stims/Figures/128-C-30-3.bmp\",\"va:shasha\",\"Left\",\"37\",\"2\",\"6\",\"9\",\"C1\",\"J\",\"30\"
\"\",\"\",\"approach-retreat\",\"179\",\"1381367\",\"0.0-179.0\",\"\",\"\",\"2-4\",\"6273\",\"37\",\"1\",\"Testing\",\"Stims/Figures/57-C-30-1.bmp\",\"papata\",\"Left\",\"37\",\"2\",\"7\",\"9\",\"P\",\"J\",\"31\"
\"\",\"\",\"approach-retreat\",\"180\",\"1387945\",\"0.0-180.0\",\"\",\"\",\"2-4\",\"5072\",\"37\",\"1\",\"Testing\",\"Stims/Figures/7-J-10-4.bmp\",\"ma:la:la\",\"Right\",\"37\",\"2\",\"8\",\"9\",\"S\",\"J\",\"32\"
\"\",\"\",\"approach-retreat\",\"181\",\"1394518\",\"0.0-181.0\",\"\",\"\",\"2-4\",\"5064\",\"39\",\"1\",\"Testing\",\"Stims/Figures/139-C-20-2.bmp\",\"fafava\",\"Right\",\"39\",\"2\",\"9\",\"9\",\"C1\",\"J\",\"33\"
\"\",\"\",\"approach-retreat\",\"182\",\"1400632\",\"0.0-182.0\",\"\",\"\",\"2-4\",\"4611\",\"39\",\"1\",\"Testing\",\"Stims/Figures/139-J-0-2.bmp\",\"va:fa:sha\",\"Left\",\"39\",\"2\",\"10\",\"9\",\"C1\",\"J\",\"34\"
\"\",\"\",\"approach-retreat\",\"183\",\"1407795\",\"0.0-183.0\",\"\",\"\",\"2-4\",\"5659\",\"39\",\"1\",\"Testing\",\"Stims/Figures/94-J-0-2.bmp\",\"sa:ha:ha\",\"Left\",\"39\",\"2\",\"11\",\"9\",\"C2\",\"J\",\"35\"
\"\",\"\",\"approach-retreat\",\"184\",\"1426455\",\"0.0-184.0\",\"\",\"\",\"2-4\",\"17155\",\"38\",\"1\",\"Testing\",\"Stims/Figures/144-C-30-3.bmp\",\"fasha:sha\",\"Up\",\"38\",\"2\",\"12\",\"9\",\"C1\",\"J\",\"36\"
\"\",\"\",\"approach-retreat\",\"185\",\"1438305\",\"0.0-185.0\",\"\",\"\",\"2-4\",\"10341\",\"39\",\"0\",\"Testing\",\"Stims/Figures/87-J-10-4.bmp\",\"ta:ka:ta\",\"Right\",\"37\",\"2\",\"13\",\"9\",\"P\",\"J\",\"37\"
\"\",\"\",\"approach-retreat\",\"186\",\"1448707\",\"0.0-186.0\",\"\",\"\",\"2-4\",\"8899\",\"39\",\"1\",\"Testing\",\"Stims/Figures/71-C-30-1.bmp\",\"pakata\",\"Right\",\"39\",\"2\",\"14\",\"9\",\"P\",\"J\",\"38\"
\"\",\"\",\"approach-retreat\",\"187\",\"1457789\",\"0.0-187.0\",\"\",\"\",\"2-4\",\"7578\",\"37\",\"0\",\"Testing\",\"Stims/Figures/144-J-10-3.bmp\",\"za:haha\",\"Left\",\"39\",\"2\",\"15\",\"9\",\"C2\",\"J\",\"39\"
\"\",\"\",\"approach-retreat\",\"188\",\"1463955\",\"0.0-188.0\",\"\",\"\",\"2-4\",\"4657\",\"40\",\"1\",\"Testing\",\"Stims/Figures/94-C-20-2.bmp\",\"mama:la\",\"Down\",\"40\",\"2\",\"16\",\"9\",\"S\",\"J\",\"40\"
\"\",\"\",\"approach-retreat\",\"189\",\"1470390\",\"0.0-189.0\",\"\",\"\",\"2-4\",\"4932\",\"40\",\"1\",\"Testing\",\"Stims/Figures/57-J-0-1.bmp\",\"fasha:va\",\"Up\",\"40\",\"2\",\"17\",\"9\",\"C1\",\"J\",\"41\"
\"\",\"\",\"approach-retreat\",\"190\",\"1476475\",\"0.0-190.0\",\"\",\"\",\"2-4\",\"4581\",\"40\",\"1\",\"Testing\",\"Stims/Figures/71-J-0-1.bmp\",\"vafa:sha\",\"Up\",\"40\",\"2\",\"18\",\"9\",\"C1\",\"J\",\"42\"
\"\",\"\",\"approach-retreat\",\"191\",\"1483168\",\"0.0-191.0\",\"\",\"\",\"2-4\",\"5190\",\"38\",\"0\",\"Testing\",\"Stims/Figures/7-C-20-4.bmp\",\"va:sha:sha\",\"Down\",\"40\",\"2\",\"19\",\"9\",\"C1\",\"J\",\"43\"
\"\",\"\",\"approach-retreat\",\"192\",\"1489070\",\"0.0-192.0\",\"\",\"\",\"2-4\",\"4399\",\"39\",\"1\",\"Testing\",\"Stims/Figures/93-J-0-1.bmp\",\"zahaha\",\"Left\",\"39\",\"2\",\"20\",\"9\",\"C2\",\"J\",\"44\"
\"\",\"\",\"approach-retreat\",\"193\",\"1495990\",\"0.0-193.0\",\"\",\"\",\"2-4\",\"5417\",\"39\",\"0\",\"Testing\",\"Stims/Figures/128-J-10-3.bmp\",\"mama:na\",\"Right\",\"37\",\"2\",\"21\",\"9\",\"S\",\"J\",\"45\"
\"\",\"\",\"approach-retreat\",\"194\",\"1503485\",\"0.0-194.0\",\"\",\"\",\"2-4\",\"5991\",\"38\",\"0\",\"Testing\",\"Stims/Figures/111-J-10-3.bmp\",\"na:la:na\",\"Up\",\"40\",\"2\",\"22\",\"9\",\"S\",\"J\",\"46\"
\"\",\"\",\"approach-retreat\",\"195\",\"1510237\",\"0.0-195.0\",\"\",\"\",\"2-4\",\"5245\",\"38\",\"1\",\"Testing\",\"Stims/Figures/118-J-0-2.bmp\",\"zasaza\",\"Down\",\"38\",\"2\",\"23\",\"9\",\"C2\",\"J\",\"47\"
\"\",\"\",\"approach-retreat\",\"196\",\"1516443\",\"0.0-196.0\",\"\",\"\",\"2-4\",\"4699\",\"40\",\"1\",\"Testing\",\"Stims/Figures/111-C-30-3.bmp\",\"pa:ka:ka\",\"Down\",\"40\",\"2\",\"24\",\"9\",\"P\",\"J\",\"48\"
\"\",\"\",\"approach-retreat\",\"197\",\"1522348\",\"0.0-197.0\",\"\",\"\",\"2-4\",\"4399\",\"39\",\"1\",\"Testing\",\"Stims/Figures/71-J-0-1.bmp\",\"vafa:sha\",\"Left\",\"39\",\"3\",\"1\",\"9\",\"C1\",\"J\",\"49\"
\"\",\"\",\"approach-retreat\",\"198\",\"1529401\",\"0.0-198.0\",\"\",\"\",\"2-4\",\"5542\",\"38\",\"1\",\"Testing\",\"Stims/Figures/94-C-20-2.bmp\",\"mama:la\",\"Up\",\"38\",\"3\",\"2\",\"9\",\"S\",\"J\",\"50\"
\"\",\"\",\"approach-retreat\",\"199\",\"1536443\",\"0.0-199.0\",\"\",\"\",\"2-4\",\"5536\",\"39\",\"1\",\"Testing\",\"Stims/Figures/128-C-30-3.bmp\",\"va:shasha\",\"Right\",\"39\",\"3\",\"3\",\"9\",\"C1\",\"J\",\"51\"
\"\",\"\",\"approach-retreat\",\"200\",\"1542768\",\"0.0-200.0\",\"\",\"\",\"2-4\",\"4813\",\"38\",\"1\",\"Testing\",\"Stims/Figures/93-C-30-1.bmp\",\"pa:ka:ta\",\"Up\",\"38\",\"3\",\"4\",\"9\",\"P\",\"J\",\"52\"
\"\",\"\",\"approach-retreat\",\"201\",\"1549475\",\"0.0-201.0\",\"\",\"\",\"2-4\",\"5197\",\"37\",\"1\",\"Testing\",\"Stims/Figures/118-C-20-2.bmp\",\"zaha:za\",\"Left\",\"37\",\"3\",\"5\",\"9\",\"C2\",\"J\",\"53\"
\"\",\"\",\"approach-retreat\",\"202\",\"1555585\",\"0.0-202.0\",\"\",\"\",\"2-4\",\"4606\",\"39\",\"1\",\"Testing\",\"Stims/Figures/102-J-10-4.bmp\",\"nalala\",\"Left\",\"39\",\"3\",\"6\",\"9\",\"S\",\"J\",\"54\"
\"\",\"\",\"approach-retreat\",\"203\",\"1561504\",\"0.0-203.0\",\"\",\"\",\"2-4\",\"4410\",\"38\",\"1\",\"Testing\",\"Stims/Figures/57-C-30-1.bmp\",\"papata\",\"Up\",\"38\",\"3\",\"7\",\"9\",\"P\",\"J\",\"55\"
\"\",\"\",\"approach-retreat\",\"204\",\"1567877\",\"0.0-204.0\",\"\",\"\",\"2-4\",\"4862\",\"37\",\"0\",\"Testing\",\"Stims/Figures/7-C-20-4.bmp\",\"va:sha:sha\",\"Right\",\"39\",\"3\",\"8\",\"9\",\"C1\",\"J\",\"56\"
\"\",\"\",\"approach-retreat\",\"205\",\"1573649\",\"0.0-205.0\",\"\",\"\",\"2-4\",\"4268\",\"38\",\"1\",\"Testing\",\"Stims/Figures/139-J-0-2.bmp\",\"va:fa:sha\",\"Down\",\"38\",\"3\",\"9\",\"9\",\"C1\",\"J\",\"57\"
\"\",\"\",\"approach-retreat\",\"206\",\"1583600\",\"0.0-206.0\",\"\",\"\",\"2-4\",\"8446\",\"38\",\"1\",\"Testing\",\"Stims/Figures/111-C-30-3.bmp\",\"pa:ka:ka\",\"Up\",\"38\",\"3\",\"10\",\"9\",\"P\",\"J\",\"58\"
\"\",\"\",\"approach-retreat\",\"207\",\"1589543\",\"0.0-207.0\",\"\",\"\",\"2-4\",\"4438\",\"38\",\"1\",\"Testing\",\"Stims/Figures/111-J-10-3.bmp\",\"na:la:na\",\"Down\",\"38\",\"3\",\"11\",\"9\",\"S\",\"J\",\"59\"
\"\",\"\",\"approach-retreat\",\"208\",\"1598084\",\"0.0-208.0\",\"\",\"\",\"2-4\",\"7031\",\"39\",\"1\",\"Testing\",\"Stims/Figures/128-J-10-3.bmp\",\"mama:na\",\"Left\",\"39\",\"3\",\"12\",\"9\",\"S\",\"J\",\"60\"
\"\",\"\",\"approach-retreat\",\"209\",\"1604277\",\"0.0-209.0\",\"\",\"\",\"2-4\",\"4682\",\"38\",\"1\",\"Testing\",\"Stims/Figures/7-J-10-4.bmp\",\"ma:la:la\",\"Down\",\"38\",\"3\",\"13\",\"9\",\"S\",\"J\",\"61\"
\"\",\"\",\"approach-retreat\",\"210\",\"1610570\",\"0.0-210.0\",\"\",\"\",\"2-4\",\"4783\",\"40\",\"1\",\"Testing\",\"Stims/Figures/94-J-0-2.bmp\",\"sa:ha:ha\",\"Up\",\"40\",\"3\",\"14\",\"9\",\"C2\",\"J\",\"62\"
\"\",\"\",\"approach-retreat\",\"211\",\"1617645\",\"0.0-211.0\",\"\",\"\",\"2-4\",\"5567\",\"40\",\"0\",\"Testing\",\"Stims/Figures/144-J-10-3.bmp\",\"za:haha\",\"Down\",\"38\",\"3\",\"15\",\"9\",\"C2\",\"J\",\"63\"
\"\",\"\",\"approach-retreat\",\"212\",\"1623927\",\"0.0-212.0\",\"\",\"\",\"2-4\",\"4777\",\"37\",\"1\",\"Testing\",\"Stims/Figures/102-C-20-4.bmp\",\"fa:sha:va\",\"Left\",\"37\",\"3\",\"16\",\"9\",\"C1\",\"J\",\"64\"
\"\",\"\",\"approach-retreat\",\"213\",\"1630254\",\"0.0-213.0\",\"\",\"\",\"2-4\",\"4823\",\"39\",\"0\",\"Testing\",\"Stims/Figures/87-J-10-4.bmp\",\"ta:ka:ta\",\"Right\",\"37\",\"3\",\"17\",\"9\",\"P\",\"J\",\"65\"
\"\",\"\",\"approach-retreat\",\"214\",\"1636995\",\"0.0-214.0\",\"\",\"\",\"2-4\",\"5231\",\"39\",\"1\",\"Testing\",\"Stims/Figures/87-C-20-4.bmp\",\"vashava\",\"Right\",\"39\",\"3\",\"18\",\"9\",\"C1\",\"J\",\"66\"
\"\",\"\",\"approach-retreat\",\"215\",\"1642683\",\"0.0-215.0\",\"\",\"\",\"2-4\",\"4179\",\"40\",\"1\",\"Testing\",\"Stims/Figures/144-C-30-3.bmp\",\"fasha:sha\",\"Down\",\"40\",\"3\",\"19\",\"9\",\"C1\",\"J\",\"67\"
\"\",\"\",\"approach-retreat\",\"216\",\"1652985\",\"0.0-216.0\",\"\",\"\",\"2-4\",\"8794\",\"37\",\"1\",\"Testing\",\"Stims/Figures/118-J-0-2.bmp\",\"zasaza\",\"Right\",\"37\",\"3\",\"20\",\"9\",\"C2\",\"J\",\"68\"
\"\",\"\",\"approach-retreat\",\"217\",\"1659929\",\"0.0-217.0\",\"\",\"\",\"2-4\",\"5435\",\"39\",\"1\",\"Testing\",\"Stims/Figures/139-C-20-2.bmp\",\"fafava\",\"Right\",\"39\",\"3\",\"21\",\"9\",\"C1\",\"J\",\"69\"
\"\",\"\",\"approach-retreat\",\"218\",\"1666789\",\"0.0-218.0\",\"\",\"\",\"2-4\",\"5349\",\"40\",\"1\",\"Testing\",\"Stims/Figures/57-J-0-1.bmp\",\"fasha:va\",\"Up\",\"40\",\"3\",\"22\",\"9\",\"C1\",\"J\",\"70\"
\"\",\"\",\"approach-retreat\",\"219\",\"1673627\",\"0.0-219.0\",\"\",\"\",\"2-4\",\"5336\",\"39\",\"1\",\"Testing\",\"Stims/Figures/93-J-0-1.bmp\",\"zahaha\",\"Left\",\"39\",\"3\",\"23\",\"9\",\"C2\",\"J\",\"71\"
\"\",\"\",\"approach-retreat\",\"220\",\"1680239\",\"0.0-220.0\",\"\",\"\",\"2-4\",\"5102\",\"40\",\"1\",\"Testing\",\"Stims/Figures/71-C-30-1.bmp\",\"pakata\",\"Down\",\"40\",\"3\",\"24\",\"9\",\"P\",\"J\",\"72\"
\"\",\"\",\"approach-retreat\",\"221\",\"1686703\",\"0.0-221.0\",\"\",\"\",\"2-4\",\"4960\",\"37\",\"0\",\"Testing\",\"Stims/Figures/128-J-10-3.bmp\",\"mama:na\",\"Left\",\"39\",\"4\",\"1\",\"9\",\"S\",\"J\",\"73\"
\"\",\"\",\"approach-retreat\",\"222\",\"1693713\",\"0.0-222.0\",\"\",\"\",\"2-4\",\"5507\",\"37\",\"0\",\"Testing\",\"Stims/Figures/144-J-10-3.bmp\",\"za:haha\",\"Left\",\"39\",\"4\",\"2\",\"9\",\"C2\",\"J\",\"74\"
\"\",\"\",\"approach-retreat\",\"223\",\"1700366\",\"0.0-223.0\",\"\",\"\",\"2-4\",\"5143\",\"39\",\"1\",\"Testing\",\"Stims/Figures/118-C-20-2.bmp\",\"zaha:za\",\"Right\",\"39\",\"4\",\"3\",\"9\",\"C2\",\"J\",\"75\"
\"\",\"\",\"approach-retreat\",\"224\",\"1706464\",\"0.0-224.0\",\"\",\"\",\"2-4\",\"4588\",\"38\",\"1\",\"Testing\",\"Stims/Figures/139-J-0-2.bmp\",\"va:fa:sha\",\"Down\",\"38\",\"4\",\"4\",\"9\",\"C1\",\"J\",\"76\"
\"\",\"\",\"approach-retreat\",\"225\",\"1714001\",\"0.0-225.0\",\"\",\"\",\"2-4\",\"6031\",\"38\",\"1\",\"Testing\",\"Stims/Figures/71-C-30-1.bmp\",\"pakata\",\"Up\",\"38\",\"4\",\"5\",\"9\",\"P\",\"J\",\"77\"
\"\",\"\",\"approach-retreat\",\"226\",\"1721542\",\"0.0-226.0\",\"\",\"\",\"2-4\",\"6031\",\"38\",\"1\",\"Testing\",\"Stims/Figures/57-C-30-1.bmp\",\"papata\",\"Up\",\"38\",\"4\",\"6\",\"9\",\"P\",\"J\",\"78\"
\"\",\"\",\"approach-retreat\",\"227\",\"1729977\",\"0.0-227.0\",\"\",\"\",\"2-4\",\"6931\",\"39\",\"1\",\"Testing\",\"Stims/Figures/111-J-10-3.bmp\",\"na:la:na\",\"Left\",\"39\",\"4\",\"7\",\"9\",\"S\",\"J\",\"79\"
\"\",\"\",\"approach-retreat\",\"228\",\"1736275\",\"0.0-228.0\",\"\",\"\",\"2-4\",\"4790\",\"39\",\"1\",\"Testing\",\"Stims/Figures/7-J-10-4.bmp\",\"ma:la:la\",\"Left\",\"39\",\"4\",\"8\",\"9\",\"S\",\"J\",\"80\"
\"\",\"\",\"approach-retreat\",\"229\",\"1741952\",\"0.0-229.0\",\"\",\"\",\"2-4\",\"4172\",\"38\",\"1\",\"Testing\",\"Stims/Figures/93-C-30-1.bmp\",\"pa:ka:ta\",\"Up\",\"38\",\"4\",\"9\",\"9\",\"P\",\"J\",\"81\"
\"\",\"\",\"approach-retreat\",\"230\",\"1750258\",\"0.0-230.0\",\"\",\"\",\"2-4\",\"6794\",\"37\",\"0\",\"Testing\",\"Stims/Figures/102-J-10-4.bmp\",\"nalala\",\"Left\",\"39\",\"4\",\"10\",\"9\",\"S\",\"J\",\"82\"
\"\",\"\",\"approach-retreat\",\"231\",\"1756459\",\"0.0-231.0\",\"\",\"\",\"2-4\",\"4698\",\"40\",\"1\",\"Testing\",\"Stims/Figures/111-C-30-3.bmp\",\"pa:ka:ka\",\"Down\",\"40\",\"4\",\"11\",\"9\",\"P\",\"J\",\"83\"
\"\",\"\",\"approach-retreat\",\"232\",\"1762485\",\"0.0-232.0\",\"\",\"\",\"2-4\",\"4517\",\"40\",\"1\",\"Testing\",\"Stims/Figures/102-C-20-4.bmp\",\"fa:sha:va\",\"Down\",\"40\",\"4\",\"12\",\"9\",\"C1\",\"J\",\"84\"
\"\",\"\",\"approach-retreat\",\"233\",\"1768807\",\"0.0-233.0\",\"\",\"\",\"2-4\",\"4812\",\"40\",\"1\",\"Testing\",\"Stims/Figures/139-C-20-2.bmp\",\"fafava\",\"Down\",\"40\",\"4\",\"13\",\"9\",\"C1\",\"J\",\"85\"
\"\",\"\",\"approach-retreat\",\"234\",\"1775098\",\"0.0-234.0\",\"\",\"\",\"2-4\",\"4781\",\"37\",\"1\",\"Testing\",\"Stims/Figures/94-J-0-2.bmp\",\"sa:ha:ha\",\"Right\",\"37\",\"4\",\"14\",\"9\",\"C2\",\"J\",\"86\"
\"\",\"\",\"approach-retreat\",\"235\",\"1780970\",\"0.0-235.0\",\"\",\"\",\"2-4\",\"4370\",\"40\",\"0\",\"Testing\",\"Stims/Figures/87-J-10-4.bmp\",\"ta:ka:ta\",\"Down\",\"38\",\"4\",\"15\",\"9\",\"P\",\"J\",\"87\"
\"\",\"\",\"approach-retreat\",\"236\",\"1787200\",\"0.0-236.0\",\"\",\"\",\"2-4\",\"4723\",\"37\",\"1\",\"Testing\",\"Stims/Figures/118-J-0-2.bmp\",\"zasaza\",\"Right\",\"37\",\"4\",\"16\",\"9\",\"C2\",\"J\",\"88\"
\"\",\"\",\"approach-retreat\",\"237\",\"1794074\",\"0.0-237.0\",\"\",\"\",\"2-4\",\"5370\",\"39\",\"1\",\"Testing\",\"Stims/Figures/128-C-30-3.bmp\",\"va:shasha\",\"Right\",\"39\",\"4\",\"17\",\"9\",\"C1\",\"J\",\"89\"
\"\",\"\",\"approach-retreat\",\"238\",\"1801264\",\"0.0-238.0\",\"\",\"\",\"2-4\",\"5687\",\"38\",\"1\",\"Testing\",\"Stims/Figures/94-C-20-2.bmp\",\"mama:la\",\"Up\",\"38\",\"4\",\"18\",\"9\",\"S\",\"J\",\"90\"
\"\",\"\",\"approach-retreat\",\"239\",\"1811907\",\"0.0-239.0\",\"\",\"\",\"2-4\",\"9134\",\"39\",\"1\",\"Testing\",\"Stims/Figures/87-C-20-4.bmp\",\"vashava\",\"Right\",\"39\",\"4\",\"19\",\"9\",\"C1\",\"J\",\"91\"
\"\",\"\",\"approach-retreat\",\"240\",\"1818958\",\"0.0-240.0\",\"\",\"\",\"2-4\",\"5545\",\"37\",\"1\",\"Testing\",\"Stims/Figures/93-J-0-1.bmp\",\"zahaha\",\"Right\",\"37\",\"4\",\"20\",\"9\",\"C2\",\"J\",\"92\"
\"\",\"\",\"approach-retreat\",\"241\",\"1826994\",\"0.0-241.0\",\"\",\"\",\"2-4\",\"6528\",\"38\",\"1\",\"Testing\",\"Stims/Figures/144-C-30-3.bmp\",\"fasha:sha\",\"Up\",\"38\",\"4\",\"21\",\"9\",\"C1\",\"J\",\"93\"
\"\",\"\",\"approach-retreat\",\"242\",\"1833387\",\"0.0-242.0\",\"\",\"\",\"2-4\",\"4890\",\"38\",\"1\",\"Testing\",\"Stims/Figures/57-J-0-1.bmp\",\"fasha:va\",\"Down\",\"38\",\"4\",\"22\",\"9\",\"C1\",\"J\",\"94\"
\"\",\"\",\"approach-retreat\",\"243\",\"1849829\",\"0.0-243.0\",\"\",\"\",\"2-4\",\"14931\",\"38\",\"1\",\"Testing\",\"Stims/Figures/7-C-20-4.bmp\",\"va:sha:sha\",\"Up\",\"38\",\"4\",\"23\",\"9\",\"C1\",\"J\",\"95\"
\"\",\"\",\"approach-retreat\",\"244\",\"1856769\",\"0.0-244.0\",\"\",\"\",\"2-4\",\"5436\",\"39\",\"1\",\"Testing\",\"Stims/Figures/71-J-0-1.bmp\",\"vafa:sha\",\"Left\",\"39\",\"4\",\"24\",\"9\",\"C1\",\"J\",\"96\"
\"38282\",\"\",\"survey-text\",\"245\",\"1895052\",\"0.0-245.0\",\"\",\"{\"\"Q0\"\":\"\"PS160032\"\"}\",\"\",\"\",\"\",\"\",\"\",\"\",\"\",\"\",\"\",\"\",\"\",\"\",\"\",\"\",\"\"
