\"rt\",\"key_press\",\"trial_type\",\"trial_index\",\"time_elapsed\",\"internal_node_id\",\"view_history\",\"responses\",\"Id\",\"Rt\",\"ResKeyCode\",\"ResCorr\",\"TrialType2\",\"Image\",\"Label\",\"Location\",\"CorrectResponse\",\"Block\",\"BlockTrial\",\"Condition\",\"LabelType\",\"Subcondition\",\"trialNum\"
\"104670\",\"32\",\"text\",\"0\",\"104671\",\"0.0-0.0-0.0\",\"\",\"\",\"\",\"\",\"\",\"\",\"\",\"\",\"\",\"\",\"\",\"\",\"\",\"\",\"\",\"\",\"\"
\"182998\",\"\",\"instructions\",\"1\",\"287670\",\"0.0-1.0\",\"[{\"\"page_index\"\":0,\"\"viewing_time\"\":182998}]\",\"\",\"\",\"\",\"\",\"\",\"\",\"\",\"\",\"\",\"\",\"\",\"\",\"\",\"\",\"\",\"\"
\"58730\",\"\",\"survey-multi-choice\",\"2\",\"346414\",\"0.0-2.0\",\"\",\"{\"\"Q0\"\":\"\"Da\"\",\"\"Q1\"\":\"\"Da\"\",\"\"Q2\"\":\"\"Da\"\",\"\"Q3\"\":\"\"Da\"\",\"\"Q4\"\":\"\"Da\"\",\"\"Q5\"\":\"\"Da\"\"}\",\"\",\"\",\"\",\"\",\"\",\"\",\"\",\"\",\"\",\"\",\"\",\"\",\"\",\"\",\"\"
\"\",\"\",\"bio\",\"3\",\"356839\",\"0.0-3.0\",\"\",\"{\"\"age\"\":\"\"19\"\",\"\"gender\"\":\"\"f\"\",\"\"specify\"\":\"\"\"\"}\",\"\",\"\",\"\",\"\",\"\",\"\",\"\",\"\",\"\",\"\",\"\",\"\",\"\",\"\",\"\"
\"\",\"\",\"approach-retreat\",\"4\",\"377652\",\"0.0-4.0\",\"\",\"\",\"1-1\",\"19309\",\"38\",\"1\",\"Training\",\"Stims/Figures/85-J-0-2.bmp\",\"ma:la:na\",\"Up\",\"38\",\"1\",\"1\",\"2\",\"S\",\"C\",\"1\"
\"\",\"\",\"approach-retreat\",\"5\",\"385212\",\"0.0-5.0\",\"\",\"\",\"1-1\",\"6055\",\"37\",\"1\",\"Training\",\"Stims/Figures/74-C-20-4.bmp\",\"ta:ka:ka\",\"Right\",\"37\",\"1\",\"2\",\"2\",\"P\",\"C\",\"2\"
\"\",\"\",\"approach-retreat\",\"6\",\"392507\",\"0.0-6.0\",\"\",\"\",\"1-1\",\"5791\",\"39\",\"1\",\"Training\",\"Stims/Figures/111-C-30-3.bmp\",\"ta:ka:ka\",\"Left\",\"39\",\"1\",\"3\",\"2\",\"P\",\"C\",\"3\"
\"\",\"\",\"approach-retreat\",\"7\",\"405532\",\"0.0-7.0\",\"\",\"\",\"1-1\",\"11521\",\"40\",\"0\",\"Training\",\"Stims/Figures/100-C-30-3.bmp\",\"ta:ka:ka\",\"Down\",\"38\",\"1\",\"4\",\"2\",\"P\",\"C\",\"4\"
\"\",\"\",\"approach-retreat\",\"8\",\"411835\",\"0.0-8.0\",\"\",\"\",\"1-1\",\"4800\",\"38\",\"1\",\"Training\",\"Stims/Figures/57-C-30-1.bmp\",\"ta:ka:ka\",\"Down\",\"38\",\"1\",\"5\",\"2\",\"P\",\"C\",\"5\"
\"\",\"\",\"approach-retreat\",\"9\",\"420475\",\"0.0-9.0\",\"\",\"\",\"1-1\",\"7137\",\"40\",\"1\",\"Training\",\"Stims/Figures/85-C-20-2.bmp\",\"ta:ka:ka\",\"Up\",\"40\",\"1\",\"6\",\"2\",\"P\",\"C\",\"6\"
\"\",\"\",\"approach-retreat\",\"10\",\"426299\",\"0.0-10.0\",\"\",\"\",\"1-1\",\"4320\",\"37\",\"1\",\"Training\",\"Stims/Figures/19-C-20-4.bmp\",\"ta:ka:ka\",\"Right\",\"37\",\"1\",\"7\",\"2\",\"P\",\"C\",\"7\"
\"\",\"\",\"approach-retreat\",\"11\",\"440667\",\"0.0-11.0\",\"\",\"\",\"1-1\",\"12864\",\"40\",\"1\",\"Training\",\"Stims/Figures/111-J-10-3.bmp\",\"ma:la:na\",\"Down\",\"40\",\"1\",\"8\",\"2\",\"S\",\"C\",\"8\"
\"\",\"\",\"approach-retreat\",\"12\",\"447483\",\"0.0-12.0\",\"\",\"\",\"1-1\",\"5312\",\"39\",\"1\",\"Training\",\"Stims/Figures/93-J-0-1.bmp\",\"ma:la:na\",\"Right\",\"39\",\"1\",\"9\",\"2\",\"S\",\"C\",\"9\"
\"\",\"\",\"approach-retreat\",\"13\",\"453531\",\"0.0-13.0\",\"\",\"\",\"1-1\",\"4545\",\"37\",\"1\",\"Training\",\"Stims/Figures/57-J-0-1.bmp\",\"ma:la:na\",\"Left\",\"37\",\"1\",\"10\",\"2\",\"S\",\"C\",\"10\"
\"\",\"\",\"approach-retreat\",\"14\",\"460795\",\"0.0-14.0\",\"\",\"\",\"1-1\",\"5760\",\"39\",\"1\",\"Training\",\"Stims/Figures/118-C-20-2.bmp\",\"ta:ka:ka\",\"Left\",\"39\",\"1\",\"11\",\"2\",\"P\",\"C\",\"11\"
\"\",\"\",\"approach-retreat\",\"15\",\"468588\",\"0.0-15.0\",\"\",\"\",\"1-1\",\"6289\",\"37\",\"1\",\"Training\",\"Stims/Figures/74-J-10-4.bmp\",\"ma:la:na\",\"Left\",\"37\",\"1\",\"12\",\"2\",\"S\",\"C\",\"12\"
\"\",\"\",\"approach-retreat\",\"16\",\"475267\",\"0.0-16.0\",\"\",\"\",\"1-1\",\"5177\",\"40\",\"1\",\"Training\",\"Stims/Figures/93-C-30-1.bmp\",\"ta:ka:ka\",\"Up\",\"40\",\"1\",\"13\",\"2\",\"P\",\"C\",\"13\"
\"\",\"\",\"approach-retreat\",\"17\",\"481875\",\"0.0-17.0\",\"\",\"\",\"1-1\",\"5104\",\"40\",\"1\",\"Training\",\"Stims/Figures/118-J-0-2.bmp\",\"ma:la:na\",\"Down\",\"40\",\"1\",\"14\",\"2\",\"S\",\"C\",\"14\"
\"\",\"\",\"approach-retreat\",\"18\",\"488171\",\"0.0-18.0\",\"\",\"\",\"1-1\",\"4792\",\"39\",\"1\",\"Training\",\"Stims/Figures/19-J-10-4.bmp\",\"ma:la:na\",\"Right\",\"39\",\"1\",\"15\",\"2\",\"S\",\"C\",\"15\"
\"\",\"\",\"approach-retreat\",\"19\",\"495027\",\"0.0-19.0\",\"\",\"\",\"1-1\",\"5353\",\"38\",\"1\",\"Training\",\"Stims/Figures/100-J-10-3.bmp\",\"ma:la:na\",\"Up\",\"38\",\"1\",\"16\",\"2\",\"S\",\"C\",\"16\"
\"\",\"\",\"approach-retreat\",\"20\",\"501179\",\"0.0-20.0\",\"\",\"\",\"1-1\",\"4648\",\"39\",\"1\",\"Training\",\"Stims/Figures/19-C-20-4.bmp\",\"ta:ka:ka\",\"Left\",\"39\",\"2\",\"1\",\"2\",\"P\",\"C\",\"17\"
\"\",\"\",\"approach-retreat\",\"21\",\"511227\",\"0.0-21.0\",\"\",\"\",\"1-1\",\"8545\",\"40\",\"1\",\"Training\",\"Stims/Figures/111-J-10-3.bmp\",\"ma:la:na\",\"Down\",\"40\",\"2\",\"2\",\"2\",\"S\",\"C\",\"18\"
\"\",\"\",\"approach-retreat\",\"22\",\"518371\",\"0.0-22.0\",\"\",\"\",\"1-1\",\"5642\",\"39\",\"1\",\"Training\",\"Stims/Figures/74-J-10-4.bmp\",\"ma:la:na\",\"Right\",\"39\",\"2\",\"3\",\"2\",\"S\",\"C\",\"19\"
\"\",\"\",\"approach-retreat\",\"23\",\"524372\",\"0.0-23.0\",\"\",\"\",\"1-1\",\"4496\",\"40\",\"1\",\"Training\",\"Stims/Figures/57-C-30-1.bmp\",\"ta:ka:ka\",\"Up\",\"40\",\"2\",\"4\",\"2\",\"P\",\"C\",\"20\"
\"\",\"\",\"approach-retreat\",\"24\",\"531541\",\"0.0-24.0\",\"\",\"\",\"1-1\",\"5665\",\"38\",\"1\",\"Training\",\"Stims/Figures/118-J-0-2.bmp\",\"ma:la:na\",\"Up\",\"38\",\"2\",\"5\",\"2\",\"S\",\"C\",\"21\"
\"\",\"\",\"approach-retreat\",\"25\",\"537947\",\"0.0-25.0\",\"\",\"\",\"1-1\",\"4903\",\"38\",\"1\",\"Training\",\"Stims/Figures/19-J-10-4.bmp\",\"ma:la:na\",\"Up\",\"38\",\"2\",\"6\",\"2\",\"S\",\"C\",\"22\"
\"\",\"\",\"approach-retreat\",\"26\",\"544003\",\"0.0-26.0\",\"\",\"\",\"1-1\",\"4553\",\"37\",\"1\",\"Training\",\"Stims/Figures/93-C-30-1.bmp\",\"ta:ka:ka\",\"Right\",\"37\",\"2\",\"7\",\"2\",\"P\",\"C\",\"23\"
\"\",\"\",\"approach-retreat\",\"27\",\"551115\",\"0.0-27.0\",\"\",\"\",\"1-1\",\"5608\",\"40\",\"1\",\"Training\",\"Stims/Figures/57-J-0-1.bmp\",\"ma:la:na\",\"Down\",\"40\",\"2\",\"8\",\"2\",\"S\",\"C\",\"24\"
\"\",\"\",\"approach-retreat\",\"28\",\"558083\",\"0.0-28.0\",\"\",\"\",\"1-1\",\"5464\",\"38\",\"1\",\"Training\",\"Stims/Figures/118-C-20-2.bmp\",\"ta:ka:ka\",\"Down\",\"38\",\"2\",\"9\",\"2\",\"P\",\"C\",\"25\"
\"\",\"\",\"approach-retreat\",\"29\",\"567755\",\"0.0-29.0\",\"\",\"\",\"1-1\",\"8169\",\"37\",\"1\",\"Training\",\"Stims/Figures/74-C-20-4.bmp\",\"ta:ka:ka\",\"Right\",\"37\",\"2\",\"10\",\"2\",\"P\",\"C\",\"26\"
\"\",\"\",\"approach-retreat\",\"30\",\"573843\",\"0.0-30.0\",\"\",\"\",\"1-1\",\"4584\",\"39\",\"1\",\"Training\",\"Stims/Figures/111-C-30-3.bmp\",\"ta:ka:ka\",\"Left\",\"39\",\"2\",\"11\",\"2\",\"P\",\"C\",\"27\"
\"\",\"\",\"approach-retreat\",\"31\",\"581259\",\"0.0-31.0\",\"\",\"\",\"1-1\",\"5913\",\"40\",\"1\",\"Training\",\"Stims/Figures/93-J-0-1.bmp\",\"ma:la:na\",\"Down\",\"40\",\"2\",\"12\",\"2\",\"S\",\"C\",\"28\"
\"\",\"\",\"approach-retreat\",\"32\",\"587876\",\"0.0-32.0\",\"\",\"\",\"1-1\",\"5112\",\"37\",\"1\",\"Training\",\"Stims/Figures/85-J-0-2.bmp\",\"ma:la:na\",\"Left\",\"37\",\"2\",\"13\",\"2\",\"S\",\"C\",\"29\"
\"\",\"\",\"approach-retreat\",\"33\",\"593948\",\"0.0-33.0\",\"\",\"\",\"1-1\",\"4568\",\"39\",\"1\",\"Training\",\"Stims/Figures/85-C-20-2.bmp\",\"ta:ka:ka\",\"Left\",\"39\",\"2\",\"14\",\"2\",\"P\",\"C\",\"30\"
\"\",\"\",\"approach-retreat\",\"34\",\"604523\",\"0.0-34.0\",\"\",\"\",\"1-1\",\"9072\",\"40\",\"1\",\"Training\",\"Stims/Figures/100-C-30-3.bmp\",\"ta:ka:ka\",\"Up\",\"40\",\"2\",\"15\",\"2\",\"P\",\"C\",\"31\"
\"\",\"\",\"approach-retreat\",\"35\",\"614371\",\"0.0-35.0\",\"\",\"\",\"1-1\",\"8344\",\"39\",\"1\",\"Training\",\"Stims/Figures/100-J-10-3.bmp\",\"ma:la:na\",\"Right\",\"39\",\"2\",\"16\",\"2\",\"S\",\"C\",\"32\"
\"\",\"\",\"approach-retreat\",\"36\",\"621596\",\"0.0-36.0\",\"\",\"\",\"1-1\",\"5721\",\"38\",\"1\",\"Training\",\"Stims/Figures/118-J-0-2.bmp\",\"ma:la:na\",\"Up\",\"38\",\"3\",\"1\",\"2\",\"S\",\"C\",\"33\"
\"\",\"\",\"approach-retreat\",\"37\",\"631620\",\"0.0-37.0\",\"\",\"\",\"1-1\",\"8520\",\"37\",\"1\",\"Training\",\"Stims/Figures/118-C-20-2.bmp\",\"ta:ka:ka\",\"Right\",\"37\",\"3\",\"2\",\"2\",\"P\",\"C\",\"34\"
\"\",\"\",\"approach-retreat\",\"38\",\"638069\",\"0.0-38.0\",\"\",\"\",\"1-1\",\"4945\",\"40\",\"1\",\"Training\",\"Stims/Figures/93-J-0-1.bmp\",\"ma:la:na\",\"Down\",\"40\",\"3\",\"3\",\"2\",\"S\",\"C\",\"35\"
\"\",\"\",\"approach-retreat\",\"39\",\"645068\",\"0.0-39.0\",\"\",\"\",\"1-1\",\"5496\",\"39\",\"1\",\"Training\",\"Stims/Figures/19-J-10-4.bmp\",\"ma:la:na\",\"Right\",\"39\",\"3\",\"4\",\"2\",\"S\",\"C\",\"36\"
\"\",\"\",\"approach-retreat\",\"40\",\"650803\",\"0.0-40.0\",\"\",\"\",\"1-1\",\"4233\",\"38\",\"1\",\"Training\",\"Stims/Figures/74-C-20-4.bmp\",\"ta:ka:ka\",\"Down\",\"38\",\"3\",\"5\",\"2\",\"P\",\"C\",\"37\"
\"\",\"\",\"approach-retreat\",\"41\",\"656644\",\"0.0-41.0\",\"\",\"\",\"1-1\",\"4336\",\"37\",\"1\",\"Training\",\"Stims/Figures/85-J-0-2.bmp\",\"ma:la:na\",\"Left\",\"37\",\"3\",\"6\",\"2\",\"S\",\"C\",\"38\"
\"\",\"\",\"approach-retreat\",\"42\",\"663884\",\"0.0-42.0\",\"\",\"\",\"1-1\",\"5737\",\"38\",\"1\",\"Training\",\"Stims/Figures/57-J-0-1.bmp\",\"ma:la:na\",\"Up\",\"38\",\"3\",\"7\",\"2\",\"S\",\"C\",\"39\"
\"\",\"\",\"approach-retreat\",\"43\",\"671091\",\"0.0-43.0\",\"\",\"\",\"1-1\",\"5703\",\"39\",\"1\",\"Training\",\"Stims/Figures/93-C-30-1.bmp\",\"ta:ka:ka\",\"Left\",\"39\",\"3\",\"8\",\"2\",\"P\",\"C\",\"40\"
\"\",\"\",\"approach-retreat\",\"44\",\"676988\",\"0.0-44.0\",\"\",\"\",\"1-1\",\"4393\",\"39\",\"1\",\"Training\",\"Stims/Figures/111-C-30-3.bmp\",\"ta:ka:ka\",\"Left\",\"39\",\"3\",\"9\",\"2\",\"P\",\"C\",\"41\"
\"\",\"\",\"approach-retreat\",\"45\",\"684899\",\"0.0-45.0\",\"\",\"\",\"1-1\",\"6409\",\"39\",\"1\",\"Training\",\"Stims/Figures/100-J-10-3.bmp\",\"ma:la:na\",\"Right\",\"39\",\"3\",\"10\",\"2\",\"S\",\"C\",\"42\"
\"\",\"\",\"approach-retreat\",\"46\",\"694100\",\"0.0-46.0\",\"\",\"\",\"1-1\",\"7696\",\"40\",\"1\",\"Training\",\"Stims/Figures/19-C-20-4.bmp\",\"ta:ka:ka\",\"Up\",\"40\",\"3\",\"11\",\"2\",\"P\",\"C\",\"43\"
\"\",\"\",\"approach-retreat\",\"47\",\"706507\",\"0.0-47.0\",\"\",\"\",\"1-1\",\"10905\",\"40\",\"1\",\"Training\",\"Stims/Figures/111-J-10-3.bmp\",\"ma:la:na\",\"Down\",\"40\",\"3\",\"12\",\"2\",\"S\",\"C\",\"44\"
\"\",\"\",\"approach-retreat\",\"48\",\"712971\",\"0.0-48.0\",\"\",\"\",\"1-1\",\"4961\",\"39\",\"1\",\"Training\",\"Stims/Figures/57-C-30-1.bmp\",\"ta:ka:ka\",\"Left\",\"39\",\"3\",\"13\",\"2\",\"P\",\"C\",\"45\"
\"\",\"\",\"approach-retreat\",\"49\",\"719179\",\"0.0-49.0\",\"\",\"\",\"1-1\",\"4705\",\"38\",\"1\",\"Training\",\"Stims/Figures/74-J-10-4.bmp\",\"ma:la:na\",\"Up\",\"38\",\"3\",\"14\",\"2\",\"S\",\"C\",\"46\"
\"\",\"\",\"approach-retreat\",\"50\",\"726523\",\"0.0-50.0\",\"\",\"\",\"1-1\",\"5840\",\"38\",\"1\",\"Training\",\"Stims/Figures/100-C-30-3.bmp\",\"ta:ka:ka\",\"Down\",\"38\",\"3\",\"15\",\"2\",\"P\",\"C\",\"47\"
\"\",\"\",\"approach-retreat\",\"51\",\"733563\",\"0.0-51.0\",\"\",\"\",\"1-1\",\"5536\",\"37\",\"1\",\"Training\",\"Stims/Figures/85-C-20-2.bmp\",\"ta:ka:ka\",\"Right\",\"37\",\"3\",\"16\",\"2\",\"P\",\"C\",\"48\"
\"\",\"\",\"approach-retreat\",\"52\",\"740987\",\"0.0-52.0\",\"\",\"\",\"1-1\",\"5921\",\"40\",\"1\",\"Training\",\"Stims/Figures/118-J-0-2.bmp\",\"ma:la:na\",\"Down\",\"40\",\"4\",\"1\",\"2\",\"S\",\"C\",\"49\"
\"\",\"\",\"approach-retreat\",\"53\",\"746868\",\"0.0-53.0\",\"\",\"\",\"1-1\",\"4377\",\"40\",\"1\",\"Training\",\"Stims/Figures/93-C-30-1.bmp\",\"ta:ka:ka\",\"Up\",\"40\",\"4\",\"2\",\"2\",\"P\",\"C\",\"50\"
\"\",\"\",\"approach-retreat\",\"54\",\"754667\",\"0.0-54.0\",\"\",\"\",\"1-1\",\"6295\",\"39\",\"1\",\"Training\",\"Stims/Figures/100-J-10-3.bmp\",\"ma:la:na\",\"Right\",\"39\",\"4\",\"3\",\"2\",\"S\",\"C\",\"51\"
\"\",\"\",\"approach-retreat\",\"55\",\"761084\",\"0.0-55.0\",\"\",\"\",\"1-1\",\"4913\",\"37\",\"1\",\"Training\",\"Stims/Figures/19-C-20-4.bmp\",\"ta:ka:ka\",\"Right\",\"37\",\"4\",\"4\",\"2\",\"P\",\"C\",\"52\"
\"\",\"\",\"approach-retreat\",\"56\",\"768307\",\"0.0-56.0\",\"\",\"\",\"1-1\",\"5720\",\"39\",\"1\",\"Training\",\"Stims/Figures/111-C-30-3.bmp\",\"ta:ka:ka\",\"Left\",\"39\",\"4\",\"5\",\"2\",\"P\",\"C\",\"53\"
\"\",\"\",\"approach-retreat\",\"57\",\"774420\",\"0.0-57.0\",\"\",\"\",\"1-1\",\"4608\",\"39\",\"1\",\"Training\",\"Stims/Figures/85-J-0-2.bmp\",\"ma:la:na\",\"Right\",\"39\",\"4\",\"6\",\"2\",\"S\",\"C\",\"54\"
\"\",\"\",\"approach-retreat\",\"58\",\"782492\",\"0.0-58.0\",\"\",\"\",\"1-1\",\"6569\",\"40\",\"1\",\"Training\",\"Stims/Figures/93-J-0-1.bmp\",\"ma:la:na\",\"Down\",\"40\",\"4\",\"7\",\"2\",\"S\",\"C\",\"55\"
\"\",\"\",\"approach-retreat\",\"59\",\"789556\",\"0.0-59.0\",\"\",\"\",\"1-1\",\"5560\",\"40\",\"1\",\"Training\",\"Stims/Figures/118-C-20-2.bmp\",\"ta:ka:ka\",\"Up\",\"40\",\"4\",\"8\",\"2\",\"P\",\"C\",\"56\"
\"\",\"\",\"approach-retreat\",\"60\",\"795787\",\"0.0-60.0\",\"\",\"\",\"1-1\",\"4728\",\"40\",\"1\",\"Training\",\"Stims/Figures/57-C-30-1.bmp\",\"ta:ka:ka\",\"Up\",\"40\",\"4\",\"9\",\"2\",\"P\",\"C\",\"57\"
\"\",\"\",\"approach-retreat\",\"61\",\"802196\",\"0.0-61.0\",\"\",\"\",\"1-1\",\"4904\",\"38\",\"1\",\"Training\",\"Stims/Figures/74-C-20-4.bmp\",\"ta:ka:ka\",\"Down\",\"38\",\"4\",\"10\",\"2\",\"P\",\"C\",\"58\"
\"\",\"\",\"approach-retreat\",\"62\",\"808563\",\"0.0-62.0\",\"\",\"\",\"1-1\",\"4865\",\"37\",\"1\",\"Training\",\"Stims/Figures/19-J-10-4.bmp\",\"ma:la:na\",\"Left\",\"37\",\"4\",\"11\",\"2\",\"S\",\"C\",\"59\"
\"\",\"\",\"approach-retreat\",\"63\",\"814260\",\"0.0-63.0\",\"\",\"\",\"1-1\",\"4193\",\"38\",\"1\",\"Training\",\"Stims/Figures/85-C-20-2.bmp\",\"ta:ka:ka\",\"Down\",\"38\",\"4\",\"12\",\"2\",\"P\",\"C\",\"60\"
\"\",\"\",\"approach-retreat\",\"64\",\"820556\",\"0.0-64.0\",\"\",\"\",\"1-1\",\"4792\",\"37\",\"1\",\"Training\",\"Stims/Figures/74-J-10-4.bmp\",\"ma:la:na\",\"Left\",\"37\",\"4\",\"13\",\"2\",\"S\",\"C\",\"61\"
\"\",\"\",\"approach-retreat\",\"65\",\"826067\",\"0.0-65.0\",\"\",\"\",\"1-1\",\"4009\",\"37\",\"1\",\"Training\",\"Stims/Figures/100-C-30-3.bmp\",\"ta:ka:ka\",\"Right\",\"37\",\"4\",\"14\",\"2\",\"P\",\"C\",\"62\"
\"\",\"\",\"approach-retreat\",\"66\",\"832083\",\"0.0-66.0\",\"\",\"\",\"1-1\",\"4513\",\"37\",\"1\",\"Training\",\"Stims/Figures/111-J-10-3.bmp\",\"ma:la:na\",\"Left\",\"37\",\"4\",\"15\",\"2\",\"S\",\"C\",\"63\"
\"\",\"\",\"approach-retreat\",\"67\",\"837532\",\"0.0-67.0\",\"\",\"\",\"1-1\",\"3944\",\"38\",\"1\",\"Training\",\"Stims/Figures/57-J-0-1.bmp\",\"ma:la:na\",\"Up\",\"38\",\"4\",\"16\",\"2\",\"S\",\"C\",\"64\"
\"\",\"\",\"approach-retreat\",\"68\",\"843027\",\"0.0-68.0\",\"\",\"\",\"1-1\",\"3992\",\"37\",\"1\",\"Training\",\"Stims/Figures/100-J-10-3.bmp\",\"ma:la:na\",\"Left\",\"37\",\"5\",\"1\",\"2\",\"S\",\"C\",\"65\"
\"\",\"\",\"approach-retreat\",\"69\",\"848716\",\"0.0-69.0\",\"\",\"\",\"1-1\",\"4185\",\"39\",\"1\",\"Training\",\"Stims/Figures/57-J-0-1.bmp\",\"ma:la:na\",\"Right\",\"39\",\"5\",\"2\",\"2\",\"S\",\"C\",\"66\"
\"\",\"\",\"approach-retreat\",\"70\",\"855027\",\"0.0-70.0\",\"\",\"\",\"1-1\",\"4807\",\"40\",\"1\",\"Training\",\"Stims/Figures/100-C-30-3.bmp\",\"ta:ka:ka\",\"Up\",\"40\",\"5\",\"3\",\"2\",\"P\",\"C\",\"67\"
\"\",\"\",\"approach-retreat\",\"71\",\"861955\",\"0.0-71.0\",\"\",\"\",\"1-1\",\"5425\",\"39\",\"1\",\"Training\",\"Stims/Figures/19-J-10-4.bmp\",\"ma:la:na\",\"Right\",\"39\",\"5\",\"4\",\"2\",\"S\",\"C\",\"68\"
\"\",\"\",\"approach-retreat\",\"72\",\"869724\",\"0.0-72.0\",\"\",\"\",\"1-1\",\"6265\",\"38\",\"1\",\"Training\",\"Stims/Figures/85-C-20-2.bmp\",\"ta:ka:ka\",\"Down\",\"38\",\"5\",\"5\",\"2\",\"P\",\"C\",\"69\"
\"\",\"\",\"approach-retreat\",\"73\",\"875659\",\"0.0-73.0\",\"\",\"\",\"1-1\",\"4432\",\"38\",\"1\",\"Training\",\"Stims/Figures/57-C-30-1.bmp\",\"ta:ka:ka\",\"Down\",\"38\",\"5\",\"6\",\"2\",\"P\",\"C\",\"70\"
\"\",\"\",\"approach-retreat\",\"74\",\"882260\",\"0.0-74.0\",\"\",\"\",\"1-1\",\"5097\",\"39\",\"1\",\"Training\",\"Stims/Figures/111-J-10-3.bmp\",\"ma:la:na\",\"Right\",\"39\",\"5\",\"7\",\"2\",\"S\",\"C\",\"71\"
\"\",\"\",\"approach-retreat\",\"75\",\"888771\",\"0.0-75.0\",\"\",\"\",\"1-1\",\"5009\",\"40\",\"1\",\"Training\",\"Stims/Figures/74-C-20-4.bmp\",\"ta:ka:ka\",\"Up\",\"40\",\"5\",\"8\",\"2\",\"P\",\"C\",\"72\"
\"\",\"\",\"approach-retreat\",\"76\",\"894763\",\"0.0-76.0\",\"\",\"\",\"1-1\",\"4489\",\"39\",\"1\",\"Training\",\"Stims/Figures/93-J-0-1.bmp\",\"ma:la:na\",\"Right\",\"39\",\"5\",\"9\",\"2\",\"S\",\"C\",\"73\"
\"\",\"\",\"approach-retreat\",\"77\",\"901140\",\"0.0-77.0\",\"\",\"\",\"1-1\",\"4873\",\"39\",\"1\",\"Training\",\"Stims/Figures/118-C-20-2.bmp\",\"ta:ka:ka\",\"Left\",\"39\",\"5\",\"10\",\"2\",\"P\",\"C\",\"74\"
\"\",\"\",\"approach-retreat\",\"78\",\"907218\",\"0.0-78.0\",\"\",\"\",\"1-1\",\"4575\",\"37\",\"1\",\"Training\",\"Stims/Figures/85-J-0-2.bmp\",\"ma:la:na\",\"Left\",\"37\",\"5\",\"11\",\"2\",\"S\",\"C\",\"75\"
\"\",\"\",\"approach-retreat\",\"79\",\"913524\",\"0.0-79.0\",\"\",\"\",\"1-1\",\"4801\",\"38\",\"1\",\"Training\",\"Stims/Figures/19-C-20-4.bmp\",\"ta:ka:ka\",\"Down\",\"38\",\"5\",\"12\",\"2\",\"P\",\"C\",\"76\"
\"\",\"\",\"approach-retreat\",\"80\",\"919435\",\"0.0-80.0\",\"\",\"\",\"1-1\",\"4408\",\"38\",\"1\",\"Training\",\"Stims/Figures/93-C-30-1.bmp\",\"ta:ka:ka\",\"Down\",\"38\",\"5\",\"13\",\"2\",\"P\",\"C\",\"77\"
\"\",\"\",\"approach-retreat\",\"81\",\"925155\",\"0.0-81.0\",\"\",\"\",\"1-1\",\"4216\",\"40\",\"1\",\"Training\",\"Stims/Figures/111-C-30-3.bmp\",\"ta:ka:ka\",\"Up\",\"40\",\"5\",\"14\",\"2\",\"P\",\"C\",\"78\"
\"\",\"\",\"approach-retreat\",\"82\",\"930667\",\"0.0-82.0\",\"\",\"\",\"1-1\",\"4010\",\"38\",\"1\",\"Training\",\"Stims/Figures/74-J-10-4.bmp\",\"ma:la:na\",\"Up\",\"38\",\"5\",\"15\",\"2\",\"S\",\"C\",\"79\"
\"\",\"\",\"approach-retreat\",\"83\",\"936691\",\"0.0-83.0\",\"\",\"\",\"1-1\",\"4520\",\"37\",\"1\",\"Training\",\"Stims/Figures/118-J-0-2.bmp\",\"ma:la:na\",\"Left\",\"37\",\"5\",\"16\",\"2\",\"S\",\"C\",\"80\"
\"\",\"\",\"approach-retreat\",\"84\",\"943324\",\"0.0-84.0\",\"\",\"\",\"1-1\",\"5128\",\"37\",\"1\",\"Training\",\"Stims/Figures/111-J-10-3.bmp\",\"ma:la:na\",\"Left\",\"37\",\"6\",\"1\",\"2\",\"S\",\"C\",\"81\"
\"\",\"\",\"approach-retreat\",\"85\",\"950267\",\"0.0-85.0\",\"\",\"\",\"1-1\",\"5441\",\"39\",\"1\",\"Training\",\"Stims/Figures/57-C-30-1.bmp\",\"ta:ka:ka\",\"Left\",\"39\",\"6\",\"2\",\"2\",\"P\",\"C\",\"82\"
\"\",\"\",\"approach-retreat\",\"86\",\"955684\",\"0.0-86.0\",\"\",\"\",\"1-1\",\"3912\",\"39\",\"1\",\"Training\",\"Stims/Figures/93-J-0-1.bmp\",\"ma:la:na\",\"Right\",\"39\",\"6\",\"3\",\"2\",\"S\",\"C\",\"83\"
\"\",\"\",\"approach-retreat\",\"87\",\"961844\",\"0.0-87.0\",\"\",\"\",\"1-1\",\"4657\",\"40\",\"1\",\"Training\",\"Stims/Figures/93-C-30-1.bmp\",\"ta:ka:ka\",\"Up\",\"40\",\"6\",\"4\",\"2\",\"P\",\"C\",\"84\"
\"\",\"\",\"approach-retreat\",\"88\",\"967947\",\"0.0-88.0\",\"\",\"\",\"1-1\",\"4600\",\"39\",\"1\",\"Training\",\"Stims/Figures/85-J-0-2.bmp\",\"ma:la:na\",\"Right\",\"39\",\"6\",\"5\",\"2\",\"S\",\"C\",\"85\"
\"\",\"\",\"approach-retreat\",\"89\",\"973708\",\"0.0-89.0\",\"\",\"\",\"1-1\",\"4258\",\"40\",\"1\",\"Training\",\"Stims/Figures/111-C-30-3.bmp\",\"ta:ka:ka\",\"Up\",\"40\",\"6\",\"6\",\"2\",\"P\",\"C\",\"86\"
\"\",\"\",\"approach-retreat\",\"90\",\"979587\",\"0.0-90.0\",\"\",\"\",\"1-1\",\"4377\",\"40\",\"1\",\"Training\",\"Stims/Figures/118-J-0-2.bmp\",\"ma:la:na\",\"Down\",\"40\",\"6\",\"7\",\"2\",\"S\",\"C\",\"87\"
\"\",\"\",\"approach-retreat\",\"91\",\"985516\",\"0.0-91.0\",\"\",\"\",\"1-1\",\"4426\",\"38\",\"1\",\"Training\",\"Stims/Figures/57-J-0-1.bmp\",\"ma:la:na\",\"Up\",\"38\",\"6\",\"8\",\"2\",\"S\",\"C\",\"88\"
\"\",\"\",\"approach-retreat\",\"92\",\"991300\",\"0.0-92.0\",\"\",\"\",\"1-1\",\"4280\",\"40\",\"1\",\"Training\",\"Stims/Figures/100-J-10-3.bmp\",\"ma:la:na\",\"Down\",\"40\",\"6\",\"9\",\"2\",\"S\",\"C\",\"89\"
\"\",\"\",\"approach-retreat\",\"93\",\"997756\",\"0.0-93.0\",\"\",\"\",\"1-1\",\"4952\",\"39\",\"1\",\"Training\",\"Stims/Figures/74-J-10-4.bmp\",\"ma:la:na\",\"Right\",\"39\",\"6\",\"10\",\"2\",\"S\",\"C\",\"90\"
\"\",\"\",\"approach-retreat\",\"94\",\"1004100\",\"0.0-94.0\",\"\",\"\",\"1-1\",\"4841\",\"39\",\"1\",\"Training\",\"Stims/Figures/74-C-20-4.bmp\",\"ta:ka:ka\",\"Left\",\"39\",\"6\",\"11\",\"2\",\"P\",\"C\",\"91\"
\"\",\"\",\"approach-retreat\",\"95\",\"1010589\",\"0.0-95.0\",\"\",\"\",\"1-1\",\"4984\",\"40\",\"1\",\"Training\",\"Stims/Figures/118-C-20-2.bmp\",\"ta:ka:ka\",\"Up\",\"40\",\"6\",\"12\",\"2\",\"P\",\"C\",\"92\"
\"\",\"\",\"approach-retreat\",\"96\",\"1016619\",\"0.0-96.0\",\"\",\"\",\"1-1\",\"4527\",\"38\",\"1\",\"Training\",\"Stims/Figures/100-C-30-3.bmp\",\"ta:ka:ka\",\"Down\",\"38\",\"6\",\"13\",\"2\",\"P\",\"C\",\"93\"
\"\",\"\",\"approach-retreat\",\"97\",\"1022156\",\"0.0-97.0\",\"\",\"\",\"1-1\",\"4032\",\"37\",\"1\",\"Training\",\"Stims/Figures/85-C-20-2.bmp\",\"ta:ka:ka\",\"Right\",\"37\",\"6\",\"14\",\"2\",\"P\",\"C\",\"94\"
\"\",\"\",\"approach-retreat\",\"98\",\"1027700\",\"0.0-98.0\",\"\",\"\",\"1-1\",\"4041\",\"38\",\"1\",\"Training\",\"Stims/Figures/19-C-20-4.bmp\",\"ta:ka:ka\",\"Down\",\"38\",\"6\",\"15\",\"2\",\"P\",\"C\",\"95\"
\"\",\"\",\"approach-retreat\",\"99\",\"1034253\",\"0.0-99.0\",\"\",\"\",\"1-1\",\"5048\",\"37\",\"1\",\"Training\",\"Stims/Figures/19-J-10-4.bmp\",\"ma:la:na\",\"Left\",\"37\",\"6\",\"16\",\"2\",\"S\",\"C\",\"96\"
\"\",\"\",\"approach-retreat\",\"100\",\"1039667\",\"0.0-100.0\",\"\",\"\",\"1-1\",\"3912\",\"38\",\"1\",\"Training\",\"Stims/Figures/85-C-20-2.bmp\",\"ta:ka:ka\",\"Down\",\"38\",\"7\",\"1\",\"2\",\"P\",\"C\",\"97\"
\"\",\"\",\"approach-retreat\",\"101\",\"1045596\",\"0.0-101.0\",\"\",\"\",\"1-1\",\"4425\",\"38\",\"0\",\"Training\",\"Stims/Figures/19-C-20-4.bmp\",\"ta:ka:ka\",\"Up\",\"40\",\"7\",\"2\",\"2\",\"P\",\"C\",\"98\"
\"\",\"\",\"approach-retreat\",\"102\",\"1051011\",\"0.0-102.0\",\"\",\"\",\"1-1\",\"3911\",\"38\",\"1\",\"Training\",\"Stims/Figures/74-C-20-4.bmp\",\"ta:ka:ka\",\"Down\",\"38\",\"7\",\"3\",\"2\",\"P\",\"C\",\"99\"
\"\",\"\",\"approach-retreat\",\"103\",\"1056924\",\"0.0-103.0\",\"\",\"\",\"1-1\",\"4409\",\"38\",\"1\",\"Training\",\"Stims/Figures/100-J-10-3.bmp\",\"ma:la:na\",\"Up\",\"38\",\"7\",\"4\",\"2\",\"S\",\"C\",\"100\"
\"\",\"\",\"approach-retreat\",\"104\",\"1062508\",\"0.0-104.0\",\"\",\"\",\"1-1\",\"4081\",\"37\",\"1\",\"Training\",\"Stims/Figures/118-J-0-2.bmp\",\"ma:la:na\",\"Left\",\"37\",\"7\",\"5\",\"2\",\"S\",\"C\",\"101\"
\"\",\"\",\"approach-retreat\",\"105\",\"1068427\",\"0.0-105.0\",\"\",\"\",\"1-1\",\"4416\",\"40\",\"1\",\"Training\",\"Stims/Figures/118-C-20-2.bmp\",\"ta:ka:ka\",\"Up\",\"40\",\"7\",\"6\",\"2\",\"P\",\"C\",\"102\"
\"\",\"\",\"approach-retreat\",\"106\",\"1074707\",\"0.0-106.0\",\"\",\"\",\"1-1\",\"4776\",\"37\",\"1\",\"Training\",\"Stims/Figures/111-C-30-3.bmp\",\"ta:ka:ka\",\"Right\",\"37\",\"7\",\"7\",\"2\",\"P\",\"C\",\"103\"
\"\",\"\",\"approach-retreat\",\"107\",\"1080540\",\"0.0-107.0\",\"\",\"\",\"1-1\",\"4329\",\"38\",\"1\",\"Training\",\"Stims/Figures/57-C-30-1.bmp\",\"ta:ka:ka\",\"Down\",\"38\",\"7\",\"8\",\"2\",\"P\",\"C\",\"104\"
\"\",\"\",\"approach-retreat\",\"108\",\"1086276\",\"0.0-108.0\",\"\",\"\",\"1-1\",\"4232\",\"37\",\"1\",\"Training\",\"Stims/Figures/93-C-30-1.bmp\",\"ta:ka:ka\",\"Right\",\"37\",\"7\",\"9\",\"2\",\"P\",\"C\",\"105\"
\"\",\"\",\"approach-retreat\",\"109\",\"1091907\",\"0.0-109.0\",\"\",\"\",\"1-1\",\"4128\",\"39\",\"1\",\"Training\",\"Stims/Figures/93-J-0-1.bmp\",\"ma:la:na\",\"Right\",\"39\",\"7\",\"10\",\"2\",\"S\",\"C\",\"106\"
\"\",\"\",\"approach-retreat\",\"110\",\"1097548\",\"0.0-110.0\",\"\",\"\",\"1-1\",\"4137\",\"37\",\"1\",\"Training\",\"Stims/Figures/19-J-10-4.bmp\",\"ma:la:na\",\"Left\",\"37\",\"7\",\"11\",\"2\",\"S\",\"C\",\"107\"
\"\",\"\",\"approach-retreat\",\"111\",\"1104092\",\"0.0-111.0\",\"\",\"\",\"1-1\",\"5040\",\"37\",\"1\",\"Training\",\"Stims/Figures/74-J-10-4.bmp\",\"ma:la:na\",\"Left\",\"37\",\"7\",\"12\",\"2\",\"S\",\"C\",\"108\"
\"\",\"\",\"approach-retreat\",\"112\",\"1110451\",\"0.0-112.0\",\"\",\"\",\"1-1\",\"4857\",\"37\",\"1\",\"Training\",\"Stims/Figures/111-J-10-3.bmp\",\"ma:la:na\",\"Left\",\"37\",\"7\",\"13\",\"2\",\"S\",\"C\",\"109\"
\"\",\"\",\"approach-retreat\",\"113\",\"1116635\",\"0.0-113.0\",\"\",\"\",\"1-1\",\"4680\",\"37\",\"1\",\"Training\",\"Stims/Figures/100-C-30-3.bmp\",\"ta:ka:ka\",\"Right\",\"37\",\"7\",\"14\",\"2\",\"P\",\"C\",\"110\"
\"\",\"\",\"approach-retreat\",\"114\",\"1123932\",\"0.0-114.0\",\"\",\"\",\"1-1\",\"5793\",\"40\",\"1\",\"Training\",\"Stims/Figures/57-J-0-1.bmp\",\"ma:la:na\",\"Down\",\"40\",\"7\",\"15\",\"2\",\"S\",\"C\",\"111\"
\"\",\"\",\"approach-retreat\",\"115\",\"1129691\",\"0.0-115.0\",\"\",\"\",\"1-1\",\"4257\",\"38\",\"1\",\"Training\",\"Stims/Figures/85-J-0-2.bmp\",\"ma:la:na\",\"Up\",\"38\",\"7\",\"16\",\"2\",\"S\",\"C\",\"112\"
\"\",\"\",\"approach-retreat\",\"116\",\"1135371\",\"0.0-116.0\",\"\",\"\",\"1-1\",\"4176\",\"38\",\"1\",\"Training\",\"Stims/Figures/111-C-30-3.bmp\",\"ta:ka:ka\",\"Down\",\"38\",\"8\",\"1\",\"2\",\"P\",\"C\",\"113\"
\"\",\"\",\"approach-retreat\",\"117\",\"1141811\",\"0.0-117.0\",\"\",\"\",\"1-1\",\"4937\",\"37\",\"1\",\"Training\",\"Stims/Figures/118-J-0-2.bmp\",\"ma:la:na\",\"Left\",\"37\",\"8\",\"2\",\"2\",\"S\",\"C\",\"114\"
\"\",\"\",\"approach-retreat\",\"118\",\"1148052\",\"0.0-118.0\",\"\",\"\",\"1-1\",\"4738\",\"39\",\"1\",\"Training\",\"Stims/Figures/19-C-20-4.bmp\",\"ta:ka:ka\",\"Left\",\"39\",\"8\",\"3\",\"2\",\"P\",\"C\",\"115\"
\"\",\"\",\"approach-retreat\",\"119\",\"1153701\",\"0.0-119.0\",\"\",\"\",\"1-1\",\"4144\",\"40\",\"1\",\"Training\",\"Stims/Figures/118-C-20-2.bmp\",\"ta:ka:ka\",\"Up\",\"40\",\"8\",\"4\",\"2\",\"P\",\"C\",\"116\"
\"\",\"\",\"approach-retreat\",\"120\",\"1159451\",\"0.0-120.0\",\"\",\"\",\"1-1\",\"4248\",\"39\",\"1\",\"Training\",\"Stims/Figures/111-J-10-3.bmp\",\"ma:la:na\",\"Right\",\"39\",\"8\",\"5\",\"2\",\"S\",\"C\",\"117\"
\"\",\"\",\"approach-retreat\",\"121\",\"1165259\",\"0.0-121.0\",\"\",\"\",\"1-1\",\"4305\",\"39\",\"1\",\"Training\",\"Stims/Figures/19-J-10-4.bmp\",\"ma:la:na\",\"Right\",\"39\",\"8\",\"6\",\"2\",\"S\",\"C\",\"118\"
\"\",\"\",\"approach-retreat\",\"122\",\"1170932\",\"0.0-122.0\",\"\",\"\",\"1-1\",\"4169\",\"39\",\"1\",\"Training\",\"Stims/Figures/93-J-0-1.bmp\",\"ma:la:na\",\"Right\",\"39\",\"8\",\"7\",\"2\",\"S\",\"C\",\"119\"
\"\",\"\",\"approach-retreat\",\"123\",\"1176676\",\"0.0-123.0\",\"\",\"\",\"1-1\",\"4241\",\"38\",\"1\",\"Training\",\"Stims/Figures/100-J-10-3.bmp\",\"ma:la:na\",\"Up\",\"38\",\"8\",\"8\",\"2\",\"S\",\"C\",\"120\"
\"\",\"\",\"approach-retreat\",\"124\",\"1182827\",\"0.0-124.0\",\"\",\"\",\"1-1\",\"4648\",\"40\",\"1\",\"Training\",\"Stims/Figures/74-C-20-4.bmp\",\"ta:ka:ka\",\"Up\",\"40\",\"8\",\"9\",\"2\",\"P\",\"C\",\"121\"
\"\",\"\",\"approach-retreat\",\"125\",\"1188772\",\"0.0-125.0\",\"\",\"\",\"1-1\",\"4441\",\"38\",\"1\",\"Training\",\"Stims/Figures/57-C-30-1.bmp\",\"ta:ka:ka\",\"Down\",\"38\",\"8\",\"10\",\"2\",\"P\",\"C\",\"122\"
\"\",\"\",\"approach-retreat\",\"126\",\"1194187\",\"0.0-126.0\",\"\",\"\",\"1-1\",\"3912\",\"38\",\"1\",\"Training\",\"Stims/Figures/85-C-20-2.bmp\",\"ta:ka:ka\",\"Down\",\"38\",\"8\",\"11\",\"2\",\"P\",\"C\",\"123\"
\"\",\"\",\"approach-retreat\",\"127\",\"1199723\",\"0.0-127.0\",\"\",\"\",\"1-1\",\"4033\",\"39\",\"1\",\"Training\",\"Stims/Figures/100-C-30-3.bmp\",\"ta:ka:ka\",\"Left\",\"39\",\"8\",\"12\",\"2\",\"P\",\"C\",\"124\"
\"\",\"\",\"approach-retreat\",\"128\",\"1205523\",\"0.0-128.0\",\"\",\"\",\"1-1\",\"4296\",\"39\",\"1\",\"Training\",\"Stims/Figures/57-J-0-1.bmp\",\"ma:la:na\",\"Right\",\"39\",\"8\",\"13\",\"2\",\"S\",\"C\",\"125\"
\"\",\"\",\"approach-retreat\",\"129\",\"1211564\",\"0.0-129.0\",\"\",\"\",\"1-1\",\"4538\",\"37\",\"1\",\"Training\",\"Stims/Figures/85-J-0-2.bmp\",\"ma:la:na\",\"Left\",\"37\",\"8\",\"14\",\"2\",\"S\",\"C\",\"126\"
\"\",\"\",\"approach-retreat\",\"130\",\"1218443\",\"0.0-130.0\",\"\",\"\",\"1-1\",\"5377\",\"38\",\"1\",\"Training\",\"Stims/Figures/74-J-10-4.bmp\",\"ma:la:na\",\"Up\",\"38\",\"8\",\"15\",\"2\",\"S\",\"C\",\"127\"
\"\",\"\",\"approach-retreat\",\"131\",\"1224300\",\"0.0-131.0\",\"\",\"\",\"1-1\",\"4353\",\"38\",\"1\",\"Training\",\"Stims/Figures/93-C-30-1.bmp\",\"ta:ka:ka\",\"Down\",\"38\",\"8\",\"16\",\"2\",\"P\",\"C\",\"128\"
\"\",\"\",\"approach-retreat\",\"132\",\"1230027\",\"0.0-132.0\",\"\",\"\",\"1-1\",\"4223\",\"39\",\"1\",\"Training\",\"Stims/Figures/93-J-0-1.bmp\",\"ma:la:na\",\"Right\",\"39\",\"9\",\"1\",\"2\",\"S\",\"C\",\"129\"
\"\",\"\",\"approach-retreat\",\"133\",\"1236155\",\"0.0-133.0\",\"\",\"\",\"1-1\",\"4625\",\"40\",\"1\",\"Training\",\"Stims/Figures/118-J-0-2.bmp\",\"ma:la:na\",\"Down\",\"40\",\"9\",\"2\",\"2\",\"S\",\"C\",\"130\"
\"\",\"\",\"approach-retreat\",\"134\",\"1241667\",\"0.0-134.0\",\"\",\"\",\"1-1\",\"4008\",\"38\",\"1\",\"Training\",\"Stims/Figures/74-C-20-4.bmp\",\"ta:ka:ka\",\"Down\",\"38\",\"9\",\"3\",\"2\",\"P\",\"C\",\"131\"
\"\",\"\",\"approach-retreat\",\"135\",\"1247349\",\"0.0-135.0\",\"\",\"\",\"1-1\",\"4178\",\"37\",\"1\",\"Training\",\"Stims/Figures/19-C-20-4.bmp\",\"ta:ka:ka\",\"Right\",\"37\",\"9\",\"4\",\"2\",\"P\",\"C\",\"132\"
\"\",\"\",\"approach-retreat\",\"136\",\"1252836\",\"0.0-136.0\",\"\",\"\",\"1-1\",\"3983\",\"38\",\"1\",\"Training\",\"Stims/Figures/57-C-30-1.bmp\",\"ta:ka:ka\",\"Down\",\"38\",\"9\",\"5\",\"2\",\"P\",\"C\",\"133\"
\"\",\"\",\"approach-retreat\",\"137\",\"1258836\",\"0.0-137.0\",\"\",\"\",\"1-1\",\"4496\",\"40\",\"1\",\"Training\",\"Stims/Figures/100-C-30-3.bmp\",\"ta:ka:ka\",\"Up\",\"40\",\"9\",\"6\",\"2\",\"P\",\"C\",\"134\"
\"\",\"\",\"approach-retreat\",\"138\",\"1264708\",\"0.0-138.0\",\"\",\"\",\"1-1\",\"4369\",\"40\",\"1\",\"Training\",\"Stims/Figures/85-C-20-2.bmp\",\"ta:ka:ka\",\"Up\",\"40\",\"9\",\"7\",\"2\",\"P\",\"C\",\"135\"
\"\",\"\",\"approach-retreat\",\"139\",\"1270708\",\"0.0-139.0\",\"\",\"\",\"1-1\",\"4496\",\"40\",\"1\",\"Training\",\"Stims/Figures/111-C-30-3.bmp\",\"ta:ka:ka\",\"Up\",\"40\",\"9\",\"8\",\"2\",\"P\",\"C\",\"136\"
\"\",\"\",\"approach-retreat\",\"140\",\"1276275\",\"0.0-140.0\",\"\",\"\",\"1-1\",\"4065\",\"39\",\"1\",\"Training\",\"Stims/Figures/93-C-30-1.bmp\",\"ta:ka:ka\",\"Left\",\"39\",\"9\",\"9\",\"2\",\"P\",\"C\",\"137\"
\"\",\"\",\"approach-retreat\",\"141\",\"1282132\",\"0.0-141.0\",\"\",\"\",\"1-1\",\"4353\",\"37\",\"1\",\"Training\",\"Stims/Figures/85-J-0-2.bmp\",\"ma:la:na\",\"Left\",\"37\",\"9\",\"10\",\"2\",\"S\",\"C\",\"138\"
\"\",\"\",\"approach-retreat\",\"142\",\"1287915\",\"0.0-142.0\",\"\",\"\",\"1-1\",\"4281\",\"39\",\"1\",\"Training\",\"Stims/Figures/57-J-0-1.bmp\",\"ma:la:na\",\"Right\",\"39\",\"9\",\"11\",\"2\",\"S\",\"C\",\"139\"
\"\",\"\",\"approach-retreat\",\"143\",\"1293844\",\"0.0-143.0\",\"\",\"\",\"1-1\",\"4426\",\"37\",\"1\",\"Training\",\"Stims/Figures/19-J-10-4.bmp\",\"ma:la:na\",\"Left\",\"37\",\"9\",\"12\",\"2\",\"S\",\"C\",\"140\"
\"\",\"\",\"approach-retreat\",\"144\",\"1299428\",\"0.0-144.0\",\"\",\"\",\"1-1\",\"4080\",\"39\",\"1\",\"Training\",\"Stims/Figures/111-J-10-3.bmp\",\"ma:la:na\",\"Right\",\"39\",\"9\",\"13\",\"2\",\"S\",\"C\",\"141\"
\"\",\"\",\"approach-retreat\",\"145\",\"1305139\",\"0.0-145.0\",\"\",\"\",\"1-1\",\"4207\",\"38\",\"1\",\"Training\",\"Stims/Figures/100-J-10-3.bmp\",\"ma:la:na\",\"Up\",\"38\",\"9\",\"14\",\"2\",\"S\",\"C\",\"142\"
\"\",\"\",\"approach-retreat\",\"146\",\"1310988\",\"0.0-146.0\",\"\",\"\",\"1-1\",\"4345\",\"40\",\"1\",\"Training\",\"Stims/Figures/74-J-10-4.bmp\",\"ma:la:na\",\"Down\",\"40\",\"9\",\"15\",\"2\",\"S\",\"C\",\"143\"
\"\",\"\",\"approach-retreat\",\"147\",\"1316659\",\"0.0-147.0\",\"\",\"\",\"1-1\",\"4169\",\"39\",\"1\",\"Training\",\"Stims/Figures/118-C-20-2.bmp\",\"ta:ka:ka\",\"Left\",\"39\",\"9\",\"16\",\"2\",\"P\",\"C\",\"144\"
\"21282\",\"\",\"instructions\",\"148\",\"1337942\",\"0.0-148.0\",\"[{\"\"page_index\"\":0,\"\"viewing_time\"\":21282}]\",\"\",\"\",\"\",\"\",\"\",\"\",\"\",\"\",\"\",\"\",\"\",\"\",\"\",\"\",\"\",\"\"
\"\",\"\",\"approach-retreat\",\"149\",\"1346458\",\"0.0-149.0\",\"\",\"\",\"1-1\",\"7014\",\"39\",\"0\",\"Testing\",\"Stims/Figures/7-J-10-4.bmp\",\"ma:la:na\",\"Left\",\"37\",\"1\",\"1\",\"2\",\"S\",\"C\",\"1\"
\"\",\"\",\"approach-retreat\",\"150\",\"1352106\",\"0.0-150.0\",\"\",\"\",\"1-1\",\"4145\",\"38\",\"1\",\"Testing\",\"Stims/Figures/93-J-0-1.bmp\",\"ma:la:na\",\"Up\",\"38\",\"1\",\"2\",\"2\",\"S\",\"C\",\"2\"
\"\",\"\",\"approach-retreat\",\"151\",\"1357730\",\"0.0-151.0\",\"\",\"\",\"1-1\",\"4121\",\"40\",\"1\",\"Testing\",\"Stims/Figures/128-C-30-3.bmp\",\"ta:ka:ka\",\"Up\",\"40\",\"1\",\"3\",\"2\",\"P\",\"C\",\"3\"
\"\",\"\",\"approach-retreat\",\"152\",\"1363626\",\"0.0-152.0\",\"\",\"\",\"1-1\",\"4394\",\"39\",\"0\",\"Testing\",\"Stims/Figures/19-C-20-4.bmp\",\"ta:ka:ka\",\"Right\",\"37\",\"1\",\"4\",\"2\",\"P\",\"C\",\"4\"
\"\",\"\",\"approach-retreat\",\"153\",\"1369692\",\"0.0-153.0\",\"\",\"\",\"1-1\",\"4561\",\"38\",\"1\",\"Testing\",\"Stims/Figures/27-J-0-1.bmp\",\"ma:la:na\",\"Up\",\"38\",\"1\",\"5\",\"2\",\"S\",\"C\",\"5\"
\"\",\"\",\"approach-retreat\",\"154\",\"1375595\",\"0.0-154.0\",\"\",\"\",\"1-1\",\"4401\",\"39\",\"1\",\"Testing\",\"Stims/Figures/118-J-0-2.bmp\",\"ma:la:na\",\"Right\",\"39\",\"1\",\"6\",\"2\",\"S\",\"C\",\"6\"
\"\",\"\",\"approach-retreat\",\"155\",\"1381227\",\"0.0-155.0\",\"\",\"\",\"1-1\",\"4129\",\"38\",\"1\",\"Testing\",\"Stims/Figures/93-C-30-1.bmp\",\"ta:ka:ka\",\"Down\",\"38\",\"1\",\"7\",\"2\",\"P\",\"C\",\"7\"
\"\",\"\",\"approach-retreat\",\"156\",\"1388699\",\"0.0-156.0\",\"\",\"\",\"1-1\",\"5969\",\"38\",\"1\",\"Testing\",\"Stims/Figures/100-C-30-3.bmp\",\"ta:ka:ka\",\"Down\",\"38\",\"1\",\"8\",\"2\",\"P\",\"C\",\"8\"
\"\",\"\",\"approach-retreat\",\"157\",\"1395002\",\"0.0-157.0\",\"\",\"\",\"1-1\",\"4801\",\"38\",\"1\",\"Testing\",\"Stims/Figures/19-J-10-4.bmp\",\"ma:la:na\",\"Up\",\"38\",\"1\",\"9\",\"2\",\"S\",\"C\",\"9\"
\"\",\"\",\"approach-retreat\",\"158\",\"1400996\",\"0.0-158.0\",\"\",\"\",\"1-1\",\"4490\",\"39\",\"1\",\"Testing\",\"Stims/Figures/85-C-20-2.bmp\",\"ta:ka:ka\",\"Left\",\"39\",\"1\",\"10\",\"2\",\"P\",\"C\",\"10\"
\"\",\"\",\"approach-retreat\",\"159\",\"1411267\",\"0.0-159.0\",\"\",\"\",\"1-1\",\"8768\",\"37\",\"1\",\"Testing\",\"Stims/Figures/94-C-20-2.bmp\",\"ta:ka:ka\",\"Right\",\"37\",\"1\",\"11\",\"2\",\"P\",\"C\",\"11\"
\"\",\"\",\"approach-retreat\",\"160\",\"1418075\",\"0.0-160.0\",\"\",\"\",\"1-1\",\"5305\",\"37\",\"1\",\"Testing\",\"Stims/Figures/128-J-10-3.bmp\",\"ma:la:na\",\"Left\",\"37\",\"1\",\"12\",\"2\",\"S\",\"C\",\"12\"
\"\",\"\",\"approach-retreat\",\"161\",\"1423892\",\"0.0-161.0\",\"\",\"\",\"1-1\",\"4313\",\"39\",\"1\",\"Testing\",\"Stims/Figures/100-J-10-3.bmp\",\"ma:la:na\",\"Right\",\"39\",\"1\",\"13\",\"2\",\"S\",\"C\",\"13\"
\"\",\"\",\"approach-retreat\",\"162\",\"1430451\",\"0.0-162.0\",\"\",\"\",\"1-1\",\"5056\",\"39\",\"1\",\"Testing\",\"Stims/Figures/74-C-20-4.bmp\",\"ta:ka:ka\",\"Left\",\"39\",\"1\",\"14\",\"2\",\"P\",\"C\",\"14\"
\"\",\"\",\"approach-retreat\",\"163\",\"1436091\",\"0.0-163.0\",\"\",\"\",\"1-1\",\"4138\",\"40\",\"1\",\"Testing\",\"Stims/Figures/27-C-30-1.bmp\",\"ta:ka:ka\",\"Up\",\"40\",\"1\",\"15\",\"2\",\"P\",\"C\",\"15\"
\"\",\"\",\"approach-retreat\",\"164\",\"1442115\",\"0.0-164.0\",\"\",\"\",\"1-1\",\"4521\",\"37\",\"1\",\"Testing\",\"Stims/Figures/57-C-30-1.bmp\",\"ta:ka:ka\",\"Right\",\"37\",\"1\",\"16\",\"2\",\"P\",\"C\",\"16\"
\"\",\"\",\"approach-retreat\",\"165\",\"1447874\",\"0.0-165.0\",\"\",\"\",\"1-1\",\"4256\",\"40\",\"1\",\"Testing\",\"Stims/Figures/57-J-0-1.bmp\",\"ma:la:na\",\"Down\",\"40\",\"1\",\"17\",\"2\",\"S\",\"C\",\"17\"
\"\",\"\",\"approach-retreat\",\"166\",\"1454067\",\"0.0-166.0\",\"\",\"\",\"1-1\",\"4690\",\"38\",\"1\",\"Testing\",\"Stims/Figures/111-J-10-3.bmp\",\"ma:la:na\",\"Up\",\"38\",\"1\",\"18\",\"2\",\"S\",\"C\",\"18\"
\"\",\"\",\"approach-retreat\",\"167\",\"1463235\",\"0.0-167.0\",\"\",\"\",\"1-1\",\"7664\",\"37\",\"1\",\"Testing\",\"Stims/Figures/74-J-10-4.bmp\",\"ma:la:na\",\"Left\",\"37\",\"1\",\"19\",\"2\",\"S\",\"C\",\"19\"
\"\",\"\",\"approach-retreat\",\"168\",\"1468851\",\"0.0-168.0\",\"\",\"\",\"1-1\",\"4113\",\"39\",\"1\",\"Testing\",\"Stims/Figures/94-J-0-2.bmp\",\"ma:la:na\",\"Right\",\"39\",\"1\",\"20\",\"2\",\"S\",\"C\",\"20\"
\"\",\"\",\"approach-retreat\",\"169\",\"1474820\",\"0.0-169.0\",\"\",\"\",\"1-1\",\"4465\",\"38\",\"1\",\"Testing\",\"Stims/Figures/118-C-20-2.bmp\",\"ta:ka:ka\",\"Down\",\"38\",\"1\",\"21\",\"2\",\"P\",\"C\",\"21\"
\"\",\"\",\"approach-retreat\",\"170\",\"1480619\",\"0.0-170.0\",\"\",\"\",\"1-1\",\"4297\",\"39\",\"1\",\"Testing\",\"Stims/Figures/111-C-30-3.bmp\",\"ta:ka:ka\",\"Left\",\"39\",\"1\",\"22\",\"2\",\"P\",\"C\",\"22\"
\"\",\"\",\"approach-retreat\",\"171\",\"1486539\",\"0.0-171.0\",\"\",\"\",\"1-1\",\"4418\",\"40\",\"1\",\"Testing\",\"Stims/Figures/85-J-0-2.bmp\",\"ma:la:na\",\"Down\",\"40\",\"1\",\"23\",\"2\",\"S\",\"C\",\"23\"
\"\",\"\",\"approach-retreat\",\"172\",\"1498244\",\"0.0-172.0\",\"\",\"\",\"1-1\",\"10201\",\"40\",\"0\",\"Testing\",\"Stims/Figures/7-C-20-4.bmp\",\"ta:ka:ka\",\"Down\",\"38\",\"1\",\"24\",\"2\",\"P\",\"C\",\"24\"
\"\",\"\",\"approach-retreat\",\"173\",\"1505227\",\"0.0-173.0\",\"\",\"\",\"1-1\",\"5481\",\"40\",\"1\",\"Testing\",\"Stims/Figures/94-C-20-2.bmp\",\"ta:ka:ka\",\"Up\",\"40\",\"2\",\"1\",\"2\",\"P\",\"C\",\"25\"
\"\",\"\",\"approach-retreat\",\"174\",\"1513716\",\"0.0-174.0\",\"\",\"\",\"1-1\",\"6986\",\"38\",\"1\",\"Testing\",\"Stims/Figures/128-J-10-3.bmp\",\"ma:la:na\",\"Up\",\"38\",\"2\",\"2\",\"2\",\"S\",\"C\",\"26\"
\"\",\"\",\"approach-retreat\",\"175\",\"1519555\",\"0.0-175.0\",\"\",\"\",\"1-1\",\"4337\",\"38\",\"1\",\"Testing\",\"Stims/Figures/118-J-0-2.bmp\",\"ma:la:na\",\"Up\",\"38\",\"2\",\"3\",\"2\",\"S\",\"C\",\"27\"
\"\",\"\",\"approach-retreat\",\"176\",\"1526507\",\"0.0-176.0\",\"\",\"\",\"1-1\",\"5448\",\"40\",\"1\",\"Testing\",\"Stims/Figures/111-J-10-3.bmp\",\"ma:la:na\",\"Down\",\"40\",\"2\",\"4\",\"2\",\"S\",\"C\",\"28\"
\"\",\"\",\"approach-retreat\",\"177\",\"1532268\",\"0.0-177.0\",\"\",\"\",\"1-1\",\"4257\",\"37\",\"1\",\"Testing\",\"Stims/Figures/57-J-0-1.bmp\",\"ma:la:na\",\"Left\",\"37\",\"2\",\"5\",\"2\",\"S\",\"C\",\"29\"
\"\",\"\",\"approach-retreat\",\"178\",\"1548228\",\"0.0-178.0\",\"\",\"\",\"1-1\",\"14457\",\"40\",\"1\",\"Testing\",\"Stims/Figures/7-J-10-4.bmp\",\"ma:la:na\",\"Down\",\"40\",\"2\",\"6\",\"2\",\"S\",\"C\",\"30\"
\"\",\"\",\"approach-retreat\",\"179\",\"1553738\",\"0.0-179.0\",\"\",\"\",\"1-1\",\"4009\",\"37\",\"1\",\"Testing\",\"Stims/Figures/94-J-0-2.bmp\",\"ma:la:na\",\"Left\",\"37\",\"2\",\"7\",\"2\",\"S\",\"C\",\"31\"
\"\",\"\",\"approach-retreat\",\"180\",\"1561795\",\"0.0-180.0\",\"\",\"\",\"1-1\",\"6553\",\"37\",\"1\",\"Testing\",\"Stims/Figures/74-C-20-4.bmp\",\"ta:ka:ka\",\"Right\",\"37\",\"2\",\"8\",\"2\",\"P\",\"C\",\"32\"
\"\",\"\",\"approach-retreat\",\"181\",\"1567435\",\"0.0-181.0\",\"\",\"\",\"1-1\",\"4136\",\"37\",\"1\",\"Testing\",\"Stims/Figures/74-J-10-4.bmp\",\"ma:la:na\",\"Left\",\"37\",\"2\",\"9\",\"2\",\"S\",\"C\",\"33\"
\"\",\"\",\"approach-retreat\",\"182\",\"1573043\",\"0.0-182.0\",\"\",\"\",\"1-1\",\"4107\",\"38\",\"1\",\"Testing\",\"Stims/Figures/100-C-30-3.bmp\",\"ta:ka:ka\",\"Down\",\"38\",\"2\",\"10\",\"2\",\"P\",\"C\",\"34\"
\"\",\"\",\"approach-retreat\",\"183\",\"1579724\",\"0.0-183.0\",\"\",\"\",\"1-1\",\"5176\",\"37\",\"1\",\"Testing\",\"Stims/Figures/93-C-30-1.bmp\",\"ta:ka:ka\",\"Right\",\"37\",\"2\",\"11\",\"2\",\"P\",\"C\",\"35\"
\"\",\"\",\"approach-retreat\",\"184\",\"1585324\",\"0.0-184.0\",\"\",\"\",\"1-1\",\"4096\",\"39\",\"1\",\"Testing\",\"Stims/Figures/100-J-10-3.bmp\",\"ma:la:na\",\"Right\",\"39\",\"2\",\"12\",\"2\",\"S\",\"C\",\"36\"
\"\",\"\",\"approach-retreat\",\"185\",\"1593684\",\"0.0-185.0\",\"\",\"\",\"1-1\",\"6857\",\"37\",\"1\",\"Testing\",\"Stims/Figures/19-C-20-4.bmp\",\"ta:ka:ka\",\"Right\",\"37\",\"2\",\"13\",\"2\",\"P\",\"C\",\"37\"
\"\",\"\",\"approach-retreat\",\"186\",\"1600059\",\"0.0-186.0\",\"\",\"\",\"1-1\",\"4873\",\"38\",\"1\",\"Testing\",\"Stims/Figures/128-C-30-3.bmp\",\"ta:ka:ka\",\"Down\",\"38\",\"2\",\"14\",\"2\",\"P\",\"C\",\"38\"
\"\",\"\",\"approach-retreat\",\"187\",\"1608276\",\"0.0-187.0\",\"\",\"\",\"1-1\",\"6711\",\"38\",\"1\",\"Testing\",\"Stims/Figures/118-C-20-2.bmp\",\"ta:ka:ka\",\"Down\",\"38\",\"2\",\"15\",\"2\",\"P\",\"C\",\"39\"
\"\",\"\",\"approach-retreat\",\"188\",\"1614316\",\"0.0-188.0\",\"\",\"\",\"1-1\",\"4537\",\"39\",\"1\",\"Testing\",\"Stims/Figures/27-C-30-1.bmp\",\"ta:ka:ka\",\"Left\",\"39\",\"2\",\"16\",\"2\",\"P\",\"C\",\"40\"
\"\",\"\",\"approach-retreat\",\"189\",\"1620508\",\"0.0-189.0\",\"\",\"\",\"1-1\",\"4689\",\"37\",\"1\",\"Testing\",\"Stims/Figures/19-J-10-4.bmp\",\"ma:la:na\",\"Left\",\"37\",\"2\",\"17\",\"2\",\"S\",\"C\",\"41\"
\"\",\"\",\"approach-retreat\",\"190\",\"1626220\",\"0.0-190.0\",\"\",\"\",\"1-1\",\"4209\",\"40\",\"1\",\"Testing\",\"Stims/Figures/111-C-30-3.bmp\",\"ta:ka:ka\",\"Up\",\"40\",\"2\",\"18\",\"2\",\"P\",\"C\",\"42\"
\"\",\"\",\"approach-retreat\",\"191\",\"1633547\",\"0.0-191.0\",\"\",\"\",\"1-1\",\"5824\",\"39\",\"1\",\"Testing\",\"Stims/Figures/85-C-20-2.bmp\",\"ta:ka:ka\",\"Left\",\"39\",\"2\",\"19\",\"2\",\"P\",\"C\",\"43\"
\"\",\"\",\"approach-retreat\",\"192\",\"1643148\",\"0.0-192.0\",\"\",\"\",\"1-1\",\"8098\",\"40\",\"0\",\"Testing\",\"Stims/Figures/7-C-20-4.bmp\",\"ta:ka:ka\",\"Down\",\"38\",\"2\",\"20\",\"2\",\"P\",\"C\",\"44\"
\"\",\"\",\"approach-retreat\",\"193\",\"1649139\",\"0.0-193.0\",\"\",\"\",\"1-1\",\"4488\",\"39\",\"1\",\"Testing\",\"Stims/Figures/85-J-0-2.bmp\",\"ma:la:na\",\"Right\",\"39\",\"2\",\"21\",\"2\",\"S\",\"C\",\"45\"
\"\",\"\",\"approach-retreat\",\"194\",\"1654756\",\"0.0-194.0\",\"\",\"\",\"1-1\",\"4113\",\"38\",\"1\",\"Testing\",\"Stims/Figures/27-J-0-1.bmp\",\"ma:la:na\",\"Up\",\"38\",\"2\",\"22\",\"2\",\"S\",\"C\",\"46\"
\"\",\"\",\"approach-retreat\",\"195\",\"1660387\",\"0.0-195.0\",\"\",\"\",\"1-1\",\"4127\",\"39\",\"1\",\"Testing\",\"Stims/Figures/93-J-0-1.bmp\",\"ma:la:na\",\"Right\",\"39\",\"2\",\"23\",\"2\",\"S\",\"C\",\"47\"
\"\",\"\",\"approach-retreat\",\"196\",\"1666419\",\"0.0-196.0\",\"\",\"\",\"1-1\",\"4529\",\"40\",\"1\",\"Testing\",\"Stims/Figures/57-C-30-1.bmp\",\"ta:ka:ka\",\"Up\",\"40\",\"2\",\"24\",\"2\",\"P\",\"C\",\"48\"
\"\",\"\",\"approach-retreat\",\"197\",\"1672315\",\"0.0-197.0\",\"\",\"\",\"1-1\",\"4393\",\"37\",\"1\",\"Testing\",\"Stims/Figures/93-C-30-1.bmp\",\"ta:ka:ka\",\"Right\",\"37\",\"3\",\"1\",\"2\",\"P\",\"C\",\"49\"
\"\",\"\",\"approach-retreat\",\"198\",\"1678044\",\"0.0-198.0\",\"\",\"\",\"1-1\",\"4226\",\"40\",\"1\",\"Testing\",\"Stims/Figures/57-C-30-1.bmp\",\"ta:ka:ka\",\"Up\",\"40\",\"3\",\"2\",\"2\",\"P\",\"C\",\"50\"
\"\",\"\",\"approach-retreat\",\"199\",\"1684242\",\"0.0-199.0\",\"\",\"\",\"1-1\",\"4696\",\"40\",\"1\",\"Testing\",\"Stims/Figures/27-C-30-1.bmp\",\"ta:ka:ka\",\"Up\",\"40\",\"3\",\"3\",\"2\",\"P\",\"C\",\"51\"
\"\",\"\",\"approach-retreat\",\"200\",\"1689900\",\"0.0-200.0\",\"\",\"\",\"1-1\",\"4154\",\"37\",\"1\",\"Testing\",\"Stims/Figures/111-C-30-3.bmp\",\"ta:ka:ka\",\"Right\",\"37\",\"3\",\"4\",\"2\",\"P\",\"C\",\"52\"
\"\",\"\",\"approach-retreat\",\"201\",\"1695539\",\"0.0-201.0\",\"\",\"\",\"1-1\",\"4136\",\"40\",\"1\",\"Testing\",\"Stims/Figures/100-J-10-3.bmp\",\"ma:la:na\",\"Down\",\"40\",\"3\",\"5\",\"2\",\"S\",\"C\",\"53\"
\"\",\"\",\"approach-retreat\",\"202\",\"1701139\",\"0.0-202.0\",\"\",\"\",\"1-1\",\"4097\",\"40\",\"1\",\"Testing\",\"Stims/Figures/85-J-0-2.bmp\",\"ma:la:na\",\"Down\",\"40\",\"3\",\"6\",\"2\",\"S\",\"C\",\"54\"
\"\",\"\",\"approach-retreat\",\"203\",\"1709691\",\"0.0-203.0\",\"\",\"\",\"1-1\",\"7049\",\"40\",\"1\",\"Testing\",\"Stims/Figures/94-C-20-2.bmp\",\"ta:ka:ka\",\"Up\",\"40\",\"3\",\"7\",\"2\",\"P\",\"C\",\"55\"
\"\",\"\",\"approach-retreat\",\"204\",\"1715236\",\"0.0-204.0\",\"\",\"\",\"1-1\",\"4041\",\"37\",\"1\",\"Testing\",\"Stims/Figures/118-J-0-2.bmp\",\"ma:la:na\",\"Left\",\"37\",\"3\",\"8\",\"2\",\"S\",\"C\",\"56\"
\"\",\"\",\"approach-retreat\",\"205\",\"1721875\",\"0.0-205.0\",\"\",\"\",\"1-1\",\"5138\",\"37\",\"1\",\"Testing\",\"Stims/Figures/128-C-30-3.bmp\",\"ta:ka:ka\",\"Right\",\"37\",\"3\",\"9\",\"2\",\"P\",\"C\",\"57\"
\"\",\"\",\"approach-retreat\",\"206\",\"1728275\",\"0.0-206.0\",\"\",\"\",\"1-1\",\"4896\",\"38\",\"1\",\"Testing\",\"Stims/Figures/85-C-20-2.bmp\",\"ta:ka:ka\",\"Down\",\"38\",\"3\",\"10\",\"2\",\"P\",\"C\",\"58\"
\"\",\"\",\"approach-retreat\",\"207\",\"1735811\",\"0.0-207.0\",\"\",\"\",\"1-1\",\"6033\",\"39\",\"1\",\"Testing\",\"Stims/Figures/74-J-10-4.bmp\",\"ma:la:na\",\"Right\",\"39\",\"3\",\"11\",\"2\",\"S\",\"C\",\"59\"
\"\",\"\",\"approach-retreat\",\"208\",\"1743116\",\"0.0-208.0\",\"\",\"\",\"1-1\",\"5802\",\"37\",\"1\",\"Testing\",\"Stims/Figures/94-J-0-2.bmp\",\"ma:la:na\",\"Left\",\"37\",\"3\",\"12\",\"2\",\"S\",\"C\",\"60\"
\"\",\"\",\"approach-retreat\",\"209\",\"1749395\",\"0.0-209.0\",\"\",\"\",\"1-1\",\"4777\",\"38\",\"1\",\"Testing\",\"Stims/Figures/7-C-20-4.bmp\",\"ta:ka:ka\",\"Down\",\"38\",\"3\",\"13\",\"2\",\"P\",\"C\",\"61\"
\"\",\"\",\"approach-retreat\",\"210\",\"1755307\",\"0.0-210.0\",\"\",\"\",\"1-1\",\"4410\",\"40\",\"1\",\"Testing\",\"Stims/Figures/74-C-20-4.bmp\",\"ta:ka:ka\",\"Up\",\"40\",\"3\",\"14\",\"2\",\"P\",\"C\",\"62\"
\"\",\"\",\"approach-retreat\",\"211\",\"1760963\",\"0.0-211.0\",\"\",\"\",\"1-1\",\"4153\",\"37\",\"1\",\"Testing\",\"Stims/Figures/57-J-0-1.bmp\",\"ma:la:na\",\"Left\",\"37\",\"3\",\"15\",\"2\",\"S\",\"C\",\"63\"
\"\",\"\",\"approach-retreat\",\"212\",\"1768083\",\"0.0-212.0\",\"\",\"\",\"1-1\",\"5619\",\"39\",\"1\",\"Testing\",\"Stims/Figures/118-C-20-2.bmp\",\"ta:ka:ka\",\"Left\",\"39\",\"3\",\"16\",\"2\",\"P\",\"C\",\"64\"
\"\",\"\",\"approach-retreat\",\"213\",\"1775588\",\"0.0-213.0\",\"\",\"\",\"1-1\",\"6002\",\"38\",\"1\",\"Testing\",\"Stims/Figures/7-J-10-4.bmp\",\"ma:la:na\",\"Up\",\"38\",\"3\",\"17\",\"2\",\"S\",\"C\",\"65\"
\"\",\"\",\"approach-retreat\",\"214\",\"1786251\",\"0.0-214.0\",\"\",\"\",\"1-1\",\"9161\",\"37\",\"0\",\"Testing\",\"Stims/Figures/128-J-10-3.bmp\",\"ma:la:na\",\"Right\",\"39\",\"3\",\"18\",\"2\",\"S\",\"C\",\"66\"
\"\",\"\",\"approach-retreat\",\"215\",\"1800596\",\"0.0-215.0\",\"\",\"\",\"1-1\",\"12841\",\"37\",\"1\",\"Testing\",\"Stims/Figures/19-J-10-4.bmp\",\"ma:la:na\",\"Left\",\"37\",\"3\",\"19\",\"2\",\"S\",\"C\",\"67\"
\"\",\"\",\"approach-retreat\",\"216\",\"1806460\",\"0.0-216.0\",\"\",\"\",\"1-1\",\"4361\",\"40\",\"1\",\"Testing\",\"Stims/Figures/27-J-0-1.bmp\",\"ma:la:na\",\"Down\",\"40\",\"3\",\"20\",\"2\",\"S\",\"C\",\"68\"
\"\",\"\",\"approach-retreat\",\"217\",\"1812676\",\"0.0-217.0\",\"\",\"\",\"1-1\",\"4713\",\"38\",\"1\",\"Testing\",\"Stims/Figures/93-J-0-1.bmp\",\"ma:la:na\",\"Up\",\"38\",\"3\",\"21\",\"2\",\"S\",\"C\",\"69\"
\"\",\"\",\"approach-retreat\",\"218\",\"1818412\",\"0.0-218.0\",\"\",\"\",\"1-1\",\"4231\",\"37\",\"1\",\"Testing\",\"Stims/Figures/100-C-30-3.bmp\",\"ta:ka:ka\",\"Right\",\"37\",\"3\",\"22\",\"2\",\"P\",\"C\",\"70\"
\"\",\"\",\"approach-retreat\",\"219\",\"1823956\",\"0.0-219.0\",\"\",\"\",\"1-1\",\"4041\",\"39\",\"1\",\"Testing\",\"Stims/Figures/19-C-20-4.bmp\",\"ta:ka:ka\",\"Left\",\"39\",\"3\",\"23\",\"2\",\"P\",\"C\",\"71\"
\"\",\"\",\"approach-retreat\",\"220\",\"1829548\",\"0.0-220.0\",\"\",\"\",\"1-1\",\"4088\",\"40\",\"1\",\"Testing\",\"Stims/Figures/111-J-10-3.bmp\",\"ma:la:na\",\"Down\",\"40\",\"3\",\"24\",\"2\",\"S\",\"C\",\"72\"
\"\",\"\",\"approach-retreat\",\"221\",\"1835884\",\"0.0-221.0\",\"\",\"\",\"1-1\",\"4834\",\"38\",\"1\",\"Testing\",\"Stims/Figures/118-C-20-2.bmp\",\"ta:ka:ka\",\"Down\",\"38\",\"4\",\"1\",\"2\",\"P\",\"C\",\"73\"
\"\",\"\",\"approach-retreat\",\"222\",\"1841668\",\"0.0-222.0\",\"\",\"\",\"1-1\",\"4281\",\"37\",\"1\",\"Testing\",\"Stims/Figures/100-J-10-3.bmp\",\"ma:la:na\",\"Left\",\"37\",\"4\",\"2\",\"2\",\"S\",\"C\",\"74\"
\"\",\"\",\"approach-retreat\",\"223\",\"1848324\",\"0.0-223.0\",\"\",\"\",\"1-1\",\"5153\",\"40\",\"1\",\"Testing\",\"Stims/Figures/111-J-10-3.bmp\",\"ma:la:na\",\"Down\",\"40\",\"4\",\"3\",\"2\",\"S\",\"C\",\"75\"
\"\",\"\",\"approach-retreat\",\"224\",\"1861308\",\"0.0-224.0\",\"\",\"\",\"1-1\",\"11481\",\"38\",\"1\",\"Testing\",\"Stims/Figures/7-C-20-4.bmp\",\"ta:ka:ka\",\"Down\",\"38\",\"4\",\"4\",\"2\",\"P\",\"C\",\"76\"
\"\",\"\",\"approach-retreat\",\"225\",\"1867835\",\"0.0-225.0\",\"\",\"\",\"1-1\",\"5025\",\"40\",\"1\",\"Testing\",\"Stims/Figures/27-C-30-1.bmp\",\"ta:ka:ka\",\"Up\",\"40\",\"4\",\"5\",\"2\",\"P\",\"C\",\"77\"
\"\",\"\",\"approach-retreat\",\"226\",\"1873996\",\"0.0-226.0\",\"\",\"\",\"1-1\",\"4658\",\"40\",\"1\",\"Testing\",\"Stims/Figures/74-J-10-4.bmp\",\"ma:la:na\",\"Down\",\"40\",\"4\",\"6\",\"2\",\"S\",\"C\",\"78\"
\"\",\"\",\"approach-retreat\",\"227\",\"1882204\",\"0.0-227.0\",\"\",\"\",\"1-1\",\"6706\",\"38\",\"1\",\"Testing\",\"Stims/Figures/57-J-0-1.bmp\",\"ma:la:na\",\"Up\",\"38\",\"4\",\"7\",\"2\",\"S\",\"C\",\"79\"
\"\",\"\",\"approach-retreat\",\"228\",\"1888804\",\"0.0-228.0\",\"\",\"\",\"1-1\",\"5097\",\"39\",\"1\",\"Testing\",\"Stims/Figures/19-C-20-4.bmp\",\"ta:ka:ka\",\"Left\",\"39\",\"4\",\"8\",\"2\",\"P\",\"C\",\"80\"
\"\",\"\",\"approach-retreat\",\"229\",\"1894675\",\"0.0-229.0\",\"\",\"\",\"1-1\",\"4369\",\"40\",\"1\",\"Testing\",\"Stims/Figures/94-J-0-2.bmp\",\"ma:la:na\",\"Down\",\"40\",\"4\",\"9\",\"2\",\"S\",\"C\",\"81\"
\"\",\"\",\"approach-retreat\",\"230\",\"1900884\",\"0.0-230.0\",\"\",\"\",\"1-1\",\"4706\",\"37\",\"1\",\"Testing\",\"Stims/Figures/111-C-30-3.bmp\",\"ta:ka:ka\",\"Right\",\"37\",\"4\",\"10\",\"2\",\"P\",\"C\",\"82\"
\"\",\"\",\"approach-retreat\",\"231\",\"1906419\",\"0.0-231.0\",\"\",\"\",\"1-1\",\"4033\",\"37\",\"1\",\"Testing\",\"Stims/Figures/19-J-10-4.bmp\",\"ma:la:na\",\"Left\",\"37\",\"4\",\"11\",\"2\",\"S\",\"C\",\"83\"
\"\",\"\",\"approach-retreat\",\"232\",\"1922979\",\"0.0-232.0\",\"\",\"\",\"1-1\",\"15058\",\"40\",\"0\",\"Testing\",\"Stims/Figures/128-J-10-3.bmp\",\"ma:la:na\",\"Up\",\"38\",\"4\",\"12\",\"2\",\"S\",\"C\",\"84\"
\"\",\"\",\"approach-retreat\",\"233\",\"1929845\",\"0.0-233.0\",\"\",\"\",\"1-1\",\"5362\",\"38\",\"1\",\"Testing\",\"Stims/Figures/94-C-20-2.bmp\",\"ta:ka:ka\",\"Down\",\"38\",\"4\",\"13\",\"2\",\"P\",\"C\",\"85\"
\"\",\"\",\"approach-retreat\",\"234\",\"1935819\",\"0.0-234.0\",\"\",\"\",\"1-1\",\"4471\",\"39\",\"1\",\"Testing\",\"Stims/Figures/7-J-10-4.bmp\",\"ma:la:na\",\"Right\",\"39\",\"4\",\"14\",\"2\",\"S\",\"C\",\"86\"
\"\",\"\",\"approach-retreat\",\"235\",\"1941836\",\"0.0-235.0\",\"\",\"\",\"1-1\",\"4513\",\"37\",\"1\",\"Testing\",\"Stims/Figures/100-C-30-3.bmp\",\"ta:ka:ka\",\"Right\",\"37\",\"4\",\"15\",\"2\",\"P\",\"C\",\"87\"
\"\",\"\",\"approach-retreat\",\"236\",\"1948347\",\"0.0-236.0\",\"\",\"\",\"1-1\",\"5008\",\"39\",\"1\",\"Testing\",\"Stims/Figures/85-C-20-2.bmp\",\"ta:ka:ka\",\"Left\",\"39\",\"4\",\"16\",\"2\",\"P\",\"C\",\"88\"
\"\",\"\",\"approach-retreat\",\"237\",\"1953987\",\"0.0-237.0\",\"\",\"\",\"1-1\",\"4137\",\"40\",\"1\",\"Testing\",\"Stims/Figures/128-C-30-3.bmp\",\"ta:ka:ka\",\"Up\",\"40\",\"4\",\"17\",\"2\",\"P\",\"C\",\"89\"
\"\",\"\",\"approach-retreat\",\"238\",\"1959723\",\"0.0-238.0\",\"\",\"\",\"1-1\",\"4234\",\"39\",\"1\",\"Testing\",\"Stims/Figures/93-C-30-1.bmp\",\"ta:ka:ka\",\"Left\",\"39\",\"4\",\"18\",\"2\",\"P\",\"C\",\"90\"
\"\",\"\",\"approach-retreat\",\"239\",\"1972556\",\"0.0-239.0\",\"\",\"\",\"1-1\",\"11330\",\"39\",\"1\",\"Testing\",\"Stims/Figures/74-C-20-4.bmp\",\"ta:ka:ka\",\"Left\",\"39\",\"4\",\"19\",\"2\",\"P\",\"C\",\"91\"
\"\",\"\",\"approach-retreat\",\"240\",\"1978715\",\"0.0-240.0\",\"\",\"\",\"1-1\",\"4658\",\"39\",\"1\",\"Testing\",\"Stims/Figures/118-J-0-2.bmp\",\"ma:la:na\",\"Right\",\"39\",\"4\",\"20\",\"2\",\"S\",\"C\",\"92\"
\"\",\"\",\"approach-retreat\",\"241\",\"1984459\",\"0.0-241.0\",\"\",\"\",\"1-1\",\"4242\",\"39\",\"1\",\"Testing\",\"Stims/Figures/27-J-0-1.bmp\",\"ma:la:na\",\"Right\",\"39\",\"4\",\"21\",\"2\",\"S\",\"C\",\"93\"
\"\",\"\",\"approach-retreat\",\"242\",\"1990115\",\"0.0-242.0\",\"\",\"\",\"1-1\",\"4153\",\"40\",\"1\",\"Testing\",\"Stims/Figures/57-C-30-1.bmp\",\"ta:ka:ka\",\"Up\",\"40\",\"4\",\"22\",\"2\",\"P\",\"C\",\"94\"
\"\",\"\",\"approach-retreat\",\"243\",\"1996068\",\"0.0-243.0\",\"\",\"\",\"1-1\",\"4450\",\"38\",\"1\",\"Testing\",\"Stims/Figures/93-J-0-1.bmp\",\"ma:la:na\",\"Up\",\"38\",\"4\",\"23\",\"2\",\"S\",\"C\",\"95\"
\"\",\"\",\"approach-retreat\",\"244\",\"2001666\",\"0.0-244.0\",\"\",\"\",\"1-1\",\"4095\",\"39\",\"1\",\"Testing\",\"Stims/Figures/85-J-0-2.bmp\",\"ma:la:na\",\"Right\",\"39\",\"4\",\"24\",\"2\",\"S\",\"C\",\"96\"
\"38198\",\"\",\"survey-text\",\"245\",\"2039866\",\"0.0-245.0\",\"\",\"{\"\"Q0\"\":\"\"PS170074\"\"}\",\"\",\"\",\"\",\"\",\"\",\"\",\"\",\"\",\"\",\"\",\"\",\"\",\"\",\"\",\"\"
