"rt","key_press","trial_type","trial_index","time_elapsed","internal_node_id","view_history","responses","Id","Rt","ResKeyCode","ResCorr","TrialType2","Image","Label","Location","CorrectResponse","Block","BlockTrial","Condition","LabelType","Subcondition","trialNum"
"78838","32","text","0","78846","0.0-0.0-0.0","","","","","","","","","","","","","","","","",""
"61226","","instructions","1","140077","0.0-1.0","[{""page_index"":0,""viewing_time"":61221}]","","","","","","","","","","","","","","","",""
"28709","","survey-multi-choice","2","168851","0.0-2.0","","{""Q0"":""Ne"",""Q1"":""Da"",""Q2"":""Da"",""Q3"":""Da"",""Q4"":""Da"",""Q5"":""Da""}","","","","","","","","","","","","","","",""
"","","bio","3","176071","0.0-3.0","","{""age"":""23"",""gender"":""f"",""specify"":""""}","","","","","","","","","","","","","","",""
"","","approach-retreat","4","184244","0.0-4.0","","","2-4","6653","40","1","Training","Stims/Figures/118-C-20-2.bmp","zahaha","Up","40","1","1","3A","C2","C","1"
"","","approach-retreat","5","190502","0.0-5.0","","","2-4","4741","37","0","Training","Stims/Figures/93-J-0-1.bmp","fa:fa:sha","Right","39","1","2","3A","C1","C","2"
"","","approach-retreat","6","196512","0.0-6.0","","","2-4","4485","37","1","Training","Stims/Figures/86-J-0-1.bmp","fa:fa:sha","Left","37","1","3","3A","C1","C","3"
"","","approach-retreat","7","202433","0.0-7.0","","","2-4","4402","38","1","Training","Stims/Figures/144-J-10-3.bmp","fa:fa:sha","Up","38","1","4","3A","C1","C","4"
"","","approach-retreat","8","208093","0.0-8.0","","","2-4","4143","39","1","Training","Stims/Figures/19-C-20-4.bmp","zahaha","Left","39","1","5","3A","C2","C","5"
"","","approach-retreat","9","213992","0.0-9.0","","","2-4","4372","38","1","Training","Stims/Figures/94-J-0-2.bmp","fa:fa:sha","Up","38","1","6","3A","C1","C","6"
"","","approach-retreat","10","219993","0.0-10.0","","","2-4","4484","40","1","Training","Stims/Figures/19-J-10-4.bmp","fa:fa:sha","Down","40","1","7","3A","C1","C","7"
"","","approach-retreat","11","226102","0.0-11.0","","","2-4","4596","37","1","Training","Stims/Figures/93-C-30-1.bmp","zahaha","Right","37","1","8","3A","C2","C","8"
"","","approach-retreat","12","231673","0.0-12.0","","","2-4","4058","39","1","Training","Stims/Figures/86-C-30-1.bmp","zahaha","Left","39","1","9","3A","C2","C","9"
"","","approach-retreat","13","238623","0.0-13.0","","","2-4","5429","40","1","Training","Stims/Figures/118-J-0-2.bmp","fa:fa:sha","Down","40","1","10","3A","C1","C","10"
"","","approach-retreat","14","244263","0.0-14.0","","","2-4","4108","37","1","Training","Stims/Figures/94-C-20-2.bmp","zahaha","Right","37","1","11","3A","C2","C","11"
"","","approach-retreat","15","249963","0.0-15.0","","","2-4","4186","40","1","Training","Stims/Figures/100-J-10-3.bmp","fa:fa:sha","Down","40","1","12","3A","C1","C","12"
"","","approach-retreat","16","255973","0.0-16.0","","","2-4","4490","38","1","Training","Stims/Figures/102-C-20-4.bmp","zahaha","Down","38","1","13","3A","C2","C","13"
"","","approach-retreat","17","261963","0.0-17.0","","","2-4","4469","40","1","Training","Stims/Figures/100-C-30-3.bmp","zahaha","Up","40","1","14","3A","C2","C","14"
"","","approach-retreat","18","267543","0.0-18.0","","","2-4","4064","37","1","Training","Stims/Figures/102-J-10-4.bmp","fa:fa:sha","Left","37","1","15","3A","C1","C","15"
"","","approach-retreat","19","273093","0.0-19.0","","","2-4","4035","37","1","Training","Stims/Figures/144-C-30-3.bmp","zahaha","Right","37","1","16","3A","C2","C","16"
"","","approach-retreat","20","279183","0.0-20.0","","","2-4","4578","38","1","Training","Stims/Figures/118-C-20-2.bmp","zahaha","Down","38","2","1","3A","C2","C","17"
"","","approach-retreat","21","285193","0.0-21.0","","","2-4","4501","38","1","Training","Stims/Figures/94-C-20-2.bmp","zahaha","Down","38","2","2","3A","C2","C","18"
"","","approach-retreat","22","290753","0.0-22.0","","","2-4","4037","39","1","Training","Stims/Figures/102-C-20-4.bmp","zahaha","Left","39","2","3","3A","C2","C","19"
"","","approach-retreat","23","296673","0.0-23.0","","","2-4","4394","40","1","Training","Stims/Figures/118-J-0-2.bmp","fa:fa:sha","Down","40","2","4","3A","C1","C","20"
"","","approach-retreat","24","302174","0.0-24.0","","","2-4","3967","37","1","Training","Stims/Figures/86-C-30-1.bmp","zahaha","Right","37","2","5","3A","C2","C","21"
"","","approach-retreat","25","307753","0.0-25.0","","","2-4","4065","37","1","Training","Stims/Figures/19-J-10-4.bmp","fa:fa:sha","Left","37","2","6","3A","C1","C","22"
"","","approach-retreat","26","313283","0.0-26.0","","","2-4","4010","39","1","Training","Stims/Figures/19-C-20-4.bmp","zahaha","Left","39","2","7","3A","C2","C","23"
"","","approach-retreat","27","319363","0.0-27.0","","","2-4","4559","39","1","Training","Stims/Figures/100-J-10-3.bmp","fa:fa:sha","Right","39","2","8","3A","C1","C","24"
"","","approach-retreat","28","325003","0.0-28.0","","","2-4","4128","39","1","Training","Stims/Figures/102-J-10-4.bmp","fa:fa:sha","Right","39","2","9","3A","C1","C","25"
"","","approach-retreat","29","330413","0.0-29.0","","","2-4","3883","40","1","Training","Stims/Figures/93-C-30-1.bmp","zahaha","Up","40","2","10","3A","C2","C","26"
"","","approach-retreat","30","336263","0.0-30.0","","","2-4","4333","40","1","Training","Stims/Figures/144-C-30-3.bmp","zahaha","Up","40","2","11","3A","C2","C","27"
"","","approach-retreat","31","342013","0.0-31.0","","","2-4","4227","38","1","Training","Stims/Figures/94-J-0-2.bmp","fa:fa:sha","Up","38","2","12","3A","C1","C","28"
"","","approach-retreat","32","347513","0.0-32.0","","","2-4","3979","37","1","Training","Stims/Figures/100-C-30-3.bmp","zahaha","Right","37","2","13","3A","C2","C","29"
"","","approach-retreat","33","353713","0.0-33.0","","","2-4","4686","38","1","Training","Stims/Figures/86-J-0-1.bmp","fa:fa:sha","Up","38","2","14","3A","C1","C","30"
"","","approach-retreat","34","359773","0.0-34.0","","","2-4","4545","40","1","Training","Stims/Figures/93-J-0-1.bmp","fa:fa:sha","Down","40","2","15","3A","C1","C","31"
"","","approach-retreat","35","365373","0.0-35.0","","","2-4","4085","37","1","Training","Stims/Figures/144-J-10-3.bmp","fa:fa:sha","Left","37","2","16","3A","C1","C","32"
"","","approach-retreat","36","371213","0.0-36.0","","","2-4","4311","38","1","Training","Stims/Figures/144-C-30-3.bmp","zahaha","Down","38","3","1","3A","C2","C","33"
"","","approach-retreat","37","377413","0.0-37.0","","","2-4","4677","38","1","Training","Stims/Figures/94-J-0-2.bmp","fa:fa:sha","Up","38","3","2","3A","C1","C","34"
"","","approach-retreat","38","383844","0.0-38.0","","","2-4","4917","38","1","Training","Stims/Figures/86-J-0-1.bmp","fa:fa:sha","Up","38","3","3","3A","C1","C","35"
"","","approach-retreat","39","389603","0.0-39.0","","","2-4","4242","37","1","Training","Stims/Figures/144-J-10-3.bmp","fa:fa:sha","Left","37","3","4","3A","C1","C","36"
"","","approach-retreat","40","395224","0.0-40.0","","","2-4","4110","38","1","Training","Stims/Figures/100-C-30-3.bmp","zahaha","Down","38","3","5","3A","C2","C","37"
"","","approach-retreat","41","401444","0.0-41.0","","","2-4","4700","38","1","Training","Stims/Figures/118-J-0-2.bmp","fa:fa:sha","Up","38","3","6","3A","C1","C","38"
"","","approach-retreat","42","407224","0.0-42.0","","","2-4","4252","39","1","Training","Stims/Figures/102-J-10-4.bmp","fa:fa:sha","Right","39","3","7","3A","C1","C","39"
"","","approach-retreat","43","412824","0.0-43.0","","","2-4","4086","37","1","Training","Stims/Figures/19-J-10-4.bmp","fa:fa:sha","Left","37","3","8","3A","C1","C","40"
"","","approach-retreat","44","418563","0.0-44.0","","","2-4","4224","39","1","Training","Stims/Figures/93-J-0-1.bmp","fa:fa:sha","Right","39","3","9","3A","C1","C","41"
"","","approach-retreat","45","424233","0.0-45.0","","","2-4","4166","37","1","Training","Stims/Figures/100-J-10-3.bmp","fa:fa:sha","Left","37","3","10","3A","C1","C","42"
"","","approach-retreat","46","430034","0.0-46.0","","","2-4","4284","38","1","Training","Stims/Figures/118-C-20-2.bmp","zahaha","Down","38","3","11","3A","C2","C","43"
"","","approach-retreat","47","436594","0.0-47.0","","","2-4","5034","37","1","Training","Stims/Figures/102-C-20-4.bmp","zahaha","Right","37","3","12","3A","C2","C","44"
"","","approach-retreat","48","442234","0.0-48.0","","","2-4","4126","38","1","Training","Stims/Figures/19-C-20-4.bmp","zahaha","Down","38","3","13","3A","C2","C","45"
"","","approach-retreat","49","448124","0.0-49.0","","","2-4","4365","39","1","Training","Stims/Figures/94-C-20-2.bmp","zahaha","Left","39","3","14","3A","C2","C","46"
"","","approach-retreat","50","454024","0.0-50.0","","","2-4","4375","40","1","Training","Stims/Figures/86-C-30-1.bmp","zahaha","Up","40","3","15","3A","C2","C","47"
"","","approach-retreat","51","459553","0.0-51.0","","","2-4","4002","37","1","Training","Stims/Figures/93-C-30-1.bmp","zahaha","Right","37","3","16","3A","C2","C","48"
"","","approach-retreat","52","465314","0.0-52.0","","","2-4","4244","37","1","Training","Stims/Figures/86-C-30-1.bmp","zahaha","Right","37","4","1","3A","C2","C","49"
"","","approach-retreat","53","471304","0.0-53.0","","","2-4","4473","39","1","Training","Stims/Figures/94-J-0-2.bmp","fa:fa:sha","Right","39","4","2","3A","C1","C","50"
"","","approach-retreat","54","477344","0.0-54.0","","","2-4","4520","38","1","Training","Stims/Figures/144-J-10-3.bmp","fa:fa:sha","Up","38","4","3","3A","C1","C","51"
"","","approach-retreat","55","483764","0.0-55.0","","","2-4","4910","37","1","Training","Stims/Figures/19-J-10-4.bmp","fa:fa:sha","Left","37","4","4","3A","C1","C","52"
"","","approach-retreat","56","490234","0.0-56.0","","","2-4","4957","40","1","Training","Stims/Figures/100-J-10-3.bmp","fa:fa:sha","Down","40","4","5","3A","C1","C","53"
"","","approach-retreat","57","496224","0.0-57.0","","","2-4","4464","38","1","Training","Stims/Figures/86-J-0-1.bmp","fa:fa:sha","Up","38","4","6","3A","C1","C","54"
"","","approach-retreat","58","501875","0.0-58.0","","","2-4","4136","37","1","Training","Stims/Figures/102-C-20-4.bmp","zahaha","Right","37","4","7","3A","C2","C","55"
"","","approach-retreat","59","507764","0.0-59.0","","","2-4","4360","40","1","Training","Stims/Figures/94-C-20-2.bmp","zahaha","Up","40","4","8","3A","C2","C","56"
"","","approach-retreat","60","513615","0.0-60.0","","","2-4","4331","39","1","Training","Stims/Figures/93-C-30-1.bmp","zahaha","Left","39","4","9","3A","C2","C","57"
"","","approach-retreat","61","519215","0.0-61.0","","","2-4","4093","37","1","Training","Stims/Figures/144-C-30-3.bmp","zahaha","Right","37","4","10","3A","C2","C","58"
"","","approach-retreat","62","524855","0.0-62.0","","","2-4","4118","40","1","Training","Stims/Figures/100-C-30-3.bmp","zahaha","Up","40","4","11","3A","C2","C","59"
"","","approach-retreat","63","530705","0.0-63.0","","","2-4","4336","39","1","Training","Stims/Figures/19-C-20-4.bmp","zahaha","Left","39","4","12","3A","C2","C","60"
"","","approach-retreat","64","538295","0.0-64.0","","","2-4","6064","40","1","Training","Stims/Figures/102-J-10-4.bmp","fa:fa:sha","Down","40","4","13","3A","C1","C","61"
"","","approach-retreat","65","544374","0.0-65.0","","","2-4","4557","40","1","Training","Stims/Figures/93-J-0-1.bmp","fa:fa:sha","Down","40","4","14","3A","C1","C","62"
"","","approach-retreat","66","550305","0.0-66.0","","","2-4","4414","38","1","Training","Stims/Figures/118-C-20-2.bmp","zahaha","Down","38","4","15","3A","C2","C","63"
"","","approach-retreat","67","556084","0.0-67.0","","","2-4","4261","37","1","Training","Stims/Figures/118-J-0-2.bmp","fa:fa:sha","Left","37","4","16","3A","C1","C","64"
"","","approach-retreat","68","562015","0.0-68.0","","","2-4","4411","40","1","Training","Stims/Figures/144-C-30-3.bmp","zahaha","Up","40","5","1","3A","C2","C","65"
"","","approach-retreat","69","567875","0.0-69.0","","","2-4","4348","38","1","Training","Stims/Figures/93-J-0-1.bmp","fa:fa:sha","Up","38","5","2","3A","C1","C","66"
"","","approach-retreat","70","573375","0.0-70.0","","","2-4","3989","37","1","Training","Stims/Figures/118-J-0-2.bmp","fa:fa:sha","Left","37","5","3","3A","C1","C","67"
"","","approach-retreat","71","579015","0.0-71.0","","","2-4","4129","38","1","Training","Stims/Figures/19-J-10-4.bmp","fa:fa:sha","Up","38","5","4","3A","C1","C","68"
"","","approach-retreat","72","584785","0.0-72.0","","","2-4","4248","37","1","Training","Stims/Figures/102-C-20-4.bmp","zahaha","Right","37","5","5","3A","C2","C","69"
"","","approach-retreat","73","590385","0.0-73.0","","","2-4","4089","39","1","Training","Stims/Figures/100-C-30-3.bmp","zahaha","Left","39","5","6","3A","C2","C","70"
"","","approach-retreat","74","596244","0.0-74.0","","","2-4","4342","39","1","Training","Stims/Figures/102-J-10-4.bmp","fa:fa:sha","Right","39","5","7","3A","C1","C","71"
"","","approach-retreat","75","602895","0.0-75.0","","","2-4","5129","40","0","Training","Stims/Figures/118-C-20-2.bmp","zahaha","Down","38","5","8","3A","C2","C","72"
"","","approach-retreat","76","608884","0.0-76.0","","","2-4","4471","40","1","Training","Stims/Figures/94-C-20-2.bmp","zahaha","Up","40","5","9","3A","C2","C","73"
"","","approach-retreat","77","614564","0.0-77.0","","","2-4","4174","37","1","Training","Stims/Figures/100-J-10-3.bmp","fa:fa:sha","Left","37","5","10","3A","C1","C","74"
"","","approach-retreat","78","621095","0.0-78.0","","","2-4","5006","37","1","Training","Stims/Figures/19-C-20-4.bmp","zahaha","Right","37","5","11","3A","C2","C","75"
"","","approach-retreat","79","626675","0.0-79.0","","","2-4","4064","38","1","Training","Stims/Figures/93-C-30-1.bmp","zahaha","Down","38","5","12","3A","C2","C","76"
"","","approach-retreat","80","632435","0.0-80.0","","","2-4","4240","40","1","Training","Stims/Figures/144-J-10-3.bmp","fa:fa:sha","Down","40","5","13","3A","C1","C","77"
"","","approach-retreat","81","638024","0.0-81.0","","","2-4","4077","40","1","Training","Stims/Figures/94-J-0-2.bmp","fa:fa:sha","Down","40","5","14","3A","C1","C","78"
"","","approach-retreat","82","644075","0.0-82.0","","","2-4","4525","37","1","Training","Stims/Figures/86-C-30-1.bmp","zahaha","Right","37","5","15","3A","C2","C","79"
"","","approach-retreat","83","649585","0.0-83.0","","","2-4","3992","37","1","Training","Stims/Figures/86-J-0-1.bmp","fa:fa:sha","Left","37","5","16","3A","C1","C","80"
"","","approach-retreat","84","655035","0.0-84.0","","","2-4","3934","39","1","Training","Stims/Figures/94-J-0-2.bmp","fa:fa:sha","Right","39","6","1","3A","C1","C","81"
"","","approach-retreat","85","661185","0.0-85.0","","","2-4","4635","40","1","Training","Stims/Figures/93-C-30-1.bmp","zahaha","Up","40","6","2","3A","C2","C","82"
"","","approach-retreat","86","667005","0.0-86.0","","","2-4","4312","37","1","Training","Stims/Figures/94-C-20-2.bmp","zahaha","Right","37","6","3","3A","C2","C","83"
"","","approach-retreat","87","672626","0.0-87.0","","","2-4","4095","39","1","Training","Stims/Figures/100-C-30-3.bmp","zahaha","Left","39","6","4","3A","C2","C","84"
"","","approach-retreat","88","678306","0.0-88.0","","","2-4","4142","40","1","Training","Stims/Figures/86-J-0-1.bmp","fa:fa:sha","Down","40","6","5","3A","C1","C","85"
"","","approach-retreat","89","684595","0.0-89.0","","","2-4","4780","40","1","Training","Stims/Figures/19-J-10-4.bmp","fa:fa:sha","Down","40","6","6","3A","C1","C","86"
"","","approach-retreat","90","690586","0.0-90.0","","","2-4","4466","38","1","Training","Stims/Figures/93-J-0-1.bmp","fa:fa:sha","Up","38","6","7","3A","C1","C","87"
"","","approach-retreat","91","698056","0.0-91.0","","","2-4","5957","37","1","Training","Stims/Figures/144-C-30-3.bmp","zahaha","Right","37","6","8","3A","C2","C","88"
"","","approach-retreat","92","703875","0.0-92.0","","","2-4","4311","38","1","Training","Stims/Figures/102-C-20-4.bmp","zahaha","Down","38","6","9","3A","C2","C","89"
"","","approach-retreat","93","709646","0.0-93.0","","","2-4","4262","38","1","Training","Stims/Figures/144-J-10-3.bmp","fa:fa:sha","Up","38","6","10","3A","C1","C","90"
"","","approach-retreat","94","715285","0.0-94.0","","","2-4","4116","40","1","Training","Stims/Figures/118-J-0-2.bmp","fa:fa:sha","Down","40","6","11","3A","C1","C","91"
"","","approach-retreat","95","721145","0.0-95.0","","","2-4","4348","39","1","Training","Stims/Figures/19-C-20-4.bmp","zahaha","Left","39","6","12","3A","C2","C","92"
"","","approach-retreat","96","726736","0.0-96.0","","","2-4","4075","37","1","Training","Stims/Figures/100-J-10-3.bmp","fa:fa:sha","Left","37","6","13","3A","C1","C","93"
"","","approach-retreat","97","732706","0.0-97.0","","","2-4","4447","37","1","Training","Stims/Figures/102-J-10-4.bmp","fa:fa:sha","Left","37","6","14","3A","C1","C","94"
"","","approach-retreat","98","738846","0.0-98.0","","","2-4","4629","37","1","Training","Stims/Figures/118-C-20-2.bmp","zahaha","Right","37","6","15","3A","C2","C","95"
"","","approach-retreat","99","744506","0.0-99.0","","","2-4","4147","40","1","Training","Stims/Figures/86-C-30-1.bmp","zahaha","Up","40","6","16","3A","C2","C","96"
"","","approach-retreat","100","751277","0.0-100.0","","","2-4","5250","37","1","Training","Stims/Figures/94-J-0-2.bmp","fa:fa:sha","Left","37","7","1","3A","C1","C","97"
"","","approach-retreat","101","757366","0.0-101.0","","","2-4","4563","40","1","Training","Stims/Figures/19-J-10-4.bmp","fa:fa:sha","Down","40","7","2","3A","C1","C","98"
"","","approach-retreat","102","763016","0.0-102.0","","","2-4","4128","40","1","Training","Stims/Figures/100-C-30-3.bmp","zahaha","Up","40","7","3","3A","C2","C","99"
"","","approach-retreat","103","768616","0.0-103.0","","","2-4","4065","39","1","Training","Stims/Figures/94-C-20-2.bmp","zahaha","Left","39","7","4","3A","C2","C","100"
"","","approach-retreat","104","775036","0.0-104.0","","","2-4","4893","39","1","Training","Stims/Figures/19-C-20-4.bmp","zahaha","Left","39","7","5","3A","C2","C","101"
"","","approach-retreat","105","782096","0.0-105.0","","","2-4","5553","38","1","Training","Stims/Figures/102-J-10-4.bmp","fa:fa:sha","Up","38","7","6","3A","C1","C","102"
"","","approach-retreat","106","788016","0.0-106.0","","","2-4","4395","39","1","Training","Stims/Figures/93-J-0-1.bmp","fa:fa:sha","Right","39","7","7","3A","C1","C","103"
"","","approach-retreat","107","793556","0.0-107.0","","","2-4","4029","39","0","Training","Stims/Figures/144-J-10-3.bmp","fa:fa:sha","Left","37","7","8","3A","C1","C","104"
"","","approach-retreat","108","799226","0.0-108.0","","","2-4","4157","38","1","Training","Stims/Figures/118-J-0-2.bmp","fa:fa:sha","Up","38","7","9","3A","C1","C","105"
"","","approach-retreat","109","805336","0.0-109.0","","","2-4","4582","39","1","Training","Stims/Figures/100-J-10-3.bmp","fa:fa:sha","Right","39","7","10","3A","C1","C","106"
"","","approach-retreat","110","811326","0.0-110.0","","","2-4","4482","40","1","Training","Stims/Figures/118-C-20-2.bmp","zahaha","Up","40","7","11","3A","C2","C","107"
"","","approach-retreat","111","817006","0.0-111.0","","","2-4","4160","38","1","Training","Stims/Figures/86-C-30-1.bmp","zahaha","Down","38","7","12","3A","C2","C","108"
"","","approach-retreat","112","823336","0.0-112.0","","","2-4","4810","40","1","Training","Stims/Figures/86-J-0-1.bmp","fa:fa:sha","Down","40","7","13","3A","C1","C","109"
"","","approach-retreat","113","829756","0.0-113.0","","","2-4","4911","37","1","Training","Stims/Figures/144-C-30-3.bmp","zahaha","Right","37","7","14","3A","C2","C","110"
"","","approach-retreat","114","835246","0.0-114.0","","","2-4","3982","38","1","Training","Stims/Figures/93-C-30-1.bmp","zahaha","Down","38","7","15","3A","C2","C","111"
"","","approach-retreat","115","841246","0.0-115.0","","","2-4","4477","37","1","Training","Stims/Figures/102-C-20-4.bmp","zahaha","Right","37","7","16","3A","C2","C","112"
"","","approach-retreat","116","846966","0.0-116.0","","","2-4","4207","38","1","Training","Stims/Figures/94-C-20-2.bmp","zahaha","Down","38","8","1","3A","C2","C","113"
"","","approach-retreat","117","852485","0.0-117.0","","","2-4","4010","38","1","Training","Stims/Figures/100-C-30-3.bmp","zahaha","Down","38","8","2","3A","C2","C","114"
"","","approach-retreat","118","858337","0.0-118.0","","","2-4","4339","37","1","Training","Stims/Figures/94-J-0-2.bmp","fa:fa:sha","Left","37","8","3","3A","C1","C","115"
"","","approach-retreat","119","865507","0.0-119.0","","","2-4","5659","38","1","Training","Stims/Figures/93-C-30-1.bmp","zahaha","Down","38","8","4","3A","C2","C","116"
"","","approach-retreat","120","870997","0.0-120.0","","","2-4","3978","39","1","Training","Stims/Figures/144-C-30-3.bmp","zahaha","Left","39","8","5","3A","C2","C","117"
"","","approach-retreat","121","876487","0.0-121.0","","","2-4","3976","39","1","Training","Stims/Figures/144-J-10-3.bmp","fa:fa:sha","Right","39","8","6","3A","C1","C","118"
"","","approach-retreat","122","882556","0.0-122.0","","","2-4","4549","40","1","Training","Stims/Figures/102-C-20-4.bmp","zahaha","Up","40","8","7","3A","C2","C","119"
"","","approach-retreat","123","888047","0.0-123.0","","","2-4","3977","37","1","Training","Stims/Figures/118-C-20-2.bmp","zahaha","Right","37","8","8","3A","C2","C","120"
"","","approach-retreat","124","894147","0.0-124.0","","","2-4","4574","39","1","Training","Stims/Figures/93-J-0-1.bmp","fa:fa:sha","Right","39","8","9","3A","C1","C","121"
"","","approach-retreat","125","900036","0.0-125.0","","","2-4","4373","37","1","Training","Stims/Figures/86-J-0-1.bmp","fa:fa:sha","Left","37","8","10","3A","C1","C","122"
"","","approach-retreat","126","906997","0.0-126.0","","","2-4","5447","40","1","Training","Stims/Figures/19-J-10-4.bmp","fa:fa:sha","Down","40","8","11","3A","C1","C","123"
"","","approach-retreat","127","912737","0.0-127.0","","","2-4","4224","38","1","Training","Stims/Figures/102-J-10-4.bmp","fa:fa:sha","Up","38","8","12","3A","C1","C","124"
"","","approach-retreat","128","918357","0.0-128.0","","","2-4","4112","38","1","Training","Stims/Figures/100-J-10-3.bmp","fa:fa:sha","Up","38","8","13","3A","C1","C","125"
"","","approach-retreat","129","923817","0.0-129.0","","","2-4","3944","39","1","Training","Stims/Figures/86-C-30-1.bmp","zahaha","Left","39","8","14","3A","C2","C","126"
"","","approach-retreat","130","929347","0.0-130.0","","","2-4","4017","39","1","Training","Stims/Figures/118-J-0-2.bmp","fa:fa:sha","Right","39","8","15","3A","C1","C","127"
"","","approach-retreat","131","935946","0.0-131.0","","","2-4","5085","40","1","Training","Stims/Figures/19-C-20-4.bmp","zahaha","Up","40","8","16","3A","C2","C","128"
"","","approach-retreat","132","941647","0.0-132.0","","","2-4","4177","39","1","Training","Stims/Figures/93-C-30-1.bmp","zahaha","Left","39","9","1","3A","C2","C","129"
"","","approach-retreat","133","947237","0.0-133.0","","","2-4","4068","37","1","Training","Stims/Figures/86-C-30-1.bmp","zahaha","Right","37","9","2","3A","C2","C","130"
"","","approach-retreat","134","953387","0.0-134.0","","","2-4","4637","40","1","Training","Stims/Figures/100-J-10-3.bmp","fa:fa:sha","Down","40","9","3","3A","C1","C","131"
"","","approach-retreat","135","959827","0.0-135.0","","","2-4","4933","39","1","Training","Stims/Figures/94-J-0-2.bmp","fa:fa:sha","Right","39","9","4","3A","C1","C","132"
"","","approach-retreat","136","965368","0.0-136.0","","","2-4","4026","39","1","Training","Stims/Figures/102-C-20-4.bmp","zahaha","Left","39","9","5","3A","C2","C","133"
"","","approach-retreat","137","971207","0.0-137.0","","","2-4","4327","40","1","Training","Stims/Figures/144-J-10-3.bmp","fa:fa:sha","Down","40","9","6","3A","C1","C","134"
"","","approach-retreat","138","977427","0.0-138.0","","","2-4","4710","39","1","Training","Stims/Figures/144-C-30-3.bmp","zahaha","Left","39","9","7","3A","C2","C","135"
"","","approach-retreat","139","983198","0.0-139.0","","","2-4","4252","40","1","Training","Stims/Figures/118-J-0-2.bmp","fa:fa:sha","Down","40","9","8","3A","C1","C","136"
"","","approach-retreat","140","989307","0.0-140.0","","","2-4","4587","37","1","Training","Stims/Figures/118-C-20-2.bmp","zahaha","Right","37","9","9","3A","C2","C","137"
"","","approach-retreat","141","994917","0.0-141.0","","","2-4","4088","39","1","Training","Stims/Figures/102-J-10-4.bmp","fa:fa:sha","Right","39","9","10","3A","C1","C","138"
"","","approach-retreat","142","1000397","0.0-142.0","","","2-4","3962","40","1","Training","Stims/Figures/94-C-20-2.bmp","zahaha","Up","40","9","11","3A","C2","C","139"
"","","approach-retreat","143","1005797","0.0-143.0","","","2-4","3892","37","1","Training","Stims/Figures/19-J-10-4.bmp","fa:fa:sha","Left","37","9","12","3A","C1","C","140"
"","","approach-retreat","144","1011817","0.0-144.0","","","2-4","4494","40","1","Training","Stims/Figures/19-C-20-4.bmp","zahaha","Up","40","9","13","3A","C2","C","141"
"","","approach-retreat","145","1017917","0.0-145.0","","","2-4","4576","40","1","Training","Stims/Figures/100-C-30-3.bmp","zahaha","Up","40","9","14","3A","C2","C","142"
"","","approach-retreat","146","1023768","0.0-146.0","","","2-4","4341","38","1","Training","Stims/Figures/86-J-0-1.bmp","fa:fa:sha","Up","38","9","15","3A","C1","C","143"
"","","approach-retreat","147","1030117","0.0-147.0","","","2-4","4838","40","1","Training","Stims/Figures/93-J-0-1.bmp","fa:fa:sha","Down","40","9","16","3A","C1","C","144"
"18425","","instructions","148","1048542","0.0-148.0","[{""page_index"":0,""viewing_time"":18424}]","","","","","","","","","","","","","","","",""
"","","approach-retreat","149","1056052","0.0-149.0","","","2-4","5988","37","1","Testing","Stims/Figures/19-C-20-4.bmp","zahaha","Right","37","1","1","3A","C2","C","1"
"","","approach-retreat","150","1063203","0.0-150.0","","","2-4","5636","39","0","Testing","Stims/Figures/71-C-30-1.bmp","zahaha","Right","37","1","2","3A","C2","C","2"
"","","approach-retreat","151","1068943","0.0-151.0","","","2-4","4216","37","1","Testing","Stims/Figures/102-C-20-4.bmp","zahaha","Right","37","1","3","3A","C2","C","3"
"","","approach-retreat","152","1075072","0.0-152.0","","","2-4","4607","37","0","Testing","Stims/Figures/44-C-30-3.bmp","zahaha","Left","39","1","4","3A","C2","C","4"
"","","approach-retreat","153","1080733","0.0-153.0","","","2-4","4137","39","1","Testing","Stims/Figures/94-C-20-2.bmp","zahaha","Left","39","1","5","3A","C2","C","5"
"","","approach-retreat","154","1086103","0.0-154.0","","","2-4","3859","38","1","Testing","Stims/Figures/19-J-10-4.bmp","fa:fa:sha","Up","38","1","6","3A","C1","C","6"
"","","approach-retreat","155","1091633","0.0-155.0","","","2-4","4016","38","1","Testing","Stims/Figures/144-C-30-3.bmp","zahaha","Down","38","1","7","3A","C2","C","7"
"","","approach-retreat","156","1098283","0.0-156.0","","","2-4","5146","39","0","Testing","Stims/Figures/86-J-0-1.bmp","fa:fa:sha","Left","37","1","8","3A","C1","C","8"
"","","approach-retreat","157","1103952","0.0-157.0","","","2-4","4166","37","1","Testing","Stims/Figures/94-J-0-2.bmp","fa:fa:sha","Left","37","1","9","3A","C1","C","9"
"","","approach-retreat","158","1109463","0.0-158.0","","","2-4","3994","37","1","Testing","Stims/Figures/118-C-20-2.bmp","zahaha","Right","37","1","10","3A","C2","C","10"
"","","approach-retreat","159","1114863","0.0-159.0","","","2-4","3880","40","0","Testing","Stims/Figures/144-J-10-3.bmp","fa:fa:sha","Up","38","1","11","3A","C1","C","11"
"","","approach-retreat","160","1120503","0.0-160.0","","","2-4","4124","40","0","Testing","Stims/Figures/84-J-0-2.bmp","fa:fa:sha","Up","38","1","12","3A","C1","C","12"
"","","approach-retreat","161","1126144","0.0-161.0","","","2-4","4127","38","1","Testing","Stims/Figures/93-C-30-1.bmp","zahaha","Down","38","1","13","3A","C2","C","13"
"","","approach-retreat","162","1131903","0.0-162.0","","","2-4","4240","40","0","Testing","Stims/Figures/102-J-10-4.bmp","fa:fa:sha","Up","38","1","14","3A","C1","C","14"
"","","approach-retreat","163","1137253","0.0-163.0","","","2-4","3825","37","0","Testing","Stims/Figures/100-C-30-3.bmp","zahaha","Left","39","1","15","3A","C2","C","15"
"","","approach-retreat","164","1143082","0.0-164.0","","","2-4","4314","40","1","Testing","Stims/Figures/93-J-0-1.bmp","fa:fa:sha","Down","40","1","16","3A","C1","C","16"
"","","approach-retreat","165","1149303","0.0-165.0","","","2-4","4716","40","1","Testing","Stims/Figures/100-J-10-3.bmp","fa:fa:sha","Down","40","1","17","3A","C1","C","17"
"","","approach-retreat","166","1155713","0.0-166.0","","","2-4","4891","38","1","Testing","Stims/Figures/84-C-20-2.bmp","zahaha","Down","38","1","18","3A","C2","C","18"
"","","approach-retreat","167","1161433","0.0-167.0","","","2-4","4207","38","0","Testing","Stims/Figures/86-C-30-1.bmp","zahaha","Up","40","1","19","3A","C2","C","19"
"","","approach-retreat","168","1167903","0.0-168.0","","","2-4","4962","40","1","Testing","Stims/Figures/44-J-10-3.bmp","fa:fa:sha","Down","40","1","20","3A","C1","C","20"
"","","approach-retreat","169","1173313","0.0-169.0","","","2-4","3901","39","1","Testing","Stims/Figures/71-J-0-1.bmp","fa:fa:sha","Right","39","1","21","3A","C1","C","21"
"","","approach-retreat","170","1178873","0.0-170.0","","","2-4","4049","37","0","Testing","Stims/Figures/74-J-10-4.bmp","fa:fa:sha","Right","39","1","22","3A","C1","C","22"
"","","approach-retreat","171","1185984","0.0-171.0","","","2-4","5600","38","1","Testing","Stims/Figures/118-J-0-2.bmp","fa:fa:sha","Up","38","1","23","3A","C1","C","23"
"","","approach-retreat","172","1192424","0.0-172.0","","","2-4","4932","37","0","Testing","Stims/Figures/74-C-20-4.bmp","zahaha","Left","39","1","24","3A","C2","C","24"
"","","approach-retreat","173","1197934","0.0-173.0","","","2-4","3995","39","0","Testing","Stims/Figures/86-J-0-1.bmp","fa:fa:sha","Left","37","2","1","3A","C1","C","25"
"","","approach-retreat","174","1203753","0.0-174.0","","","2-4","4302","40","1","Testing","Stims/Figures/71-J-0-1.bmp","fa:fa:sha","Down","40","2","2","3A","C1","C","26"
"","","approach-retreat","175","1209253","0.0-175.0","","","2-4","3995","38","0","Testing","Stims/Figures/93-C-30-1.bmp","zahaha","Up","40","2","3","3A","C2","C","27"
"","","approach-retreat","176","1215703","0.0-176.0","","","2-4","4933","40","1","Testing","Stims/Figures/118-C-20-2.bmp","zahaha","Up","40","2","4","3A","C2","C","28"
"","","approach-retreat","177","1221794","0.0-177.0","","","2-4","4583","38","1","Testing","Stims/Figures/86-C-30-1.bmp","zahaha","Down","38","2","5","3A","C2","C","29"
"","","approach-retreat","178","1227417","0.0-178.0","","","2-4","4118","38","1","Testing","Stims/Figures/100-J-10-3.bmp","fa:fa:sha","Up","38","2","6","3A","C1","C","30"
"","","approach-retreat","179","1233493","0.0-179.0","","","2-4","4553","40","0","Testing","Stims/Figures/19-J-10-4.bmp","fa:fa:sha","Up","38","2","7","3A","C1","C","31"
"","","approach-retreat","180","1239124","0.0-180.0","","","2-4","4123","39","0","Testing","Stims/Figures/44-C-30-3.bmp","zahaha","Right","37","2","8","3A","C2","C","32"
"","","approach-retreat","181","1244594","0.0-181.0","","","2-4","3965","39","1","Testing","Stims/Figures/94-C-20-2.bmp","zahaha","Left","39","2","9","3A","C2","C","33"
"","","approach-retreat","182","1250104","0.0-182.0","","","2-4","3994","37","0","Testing","Stims/Figures/71-C-30-1.bmp","zahaha","Left","39","2","10","3A","C2","C","34"
"","","approach-retreat","183","1255614","0.0-183.0","","","2-4","4001","37","1","Testing","Stims/Figures/44-J-10-3.bmp","fa:fa:sha","Left","37","2","11","3A","C1","C","35"
"","","approach-retreat","184","1261254","0.0-184.0","","","2-4","4118","40","1","Testing","Stims/Figures/100-C-30-3.bmp","zahaha","Up","40","2","12","3A","C2","C","36"
"","","approach-retreat","185","1266977","0.0-185.0","","","2-4","4213","40","1","Testing","Stims/Figures/94-J-0-2.bmp","fa:fa:sha","Down","40","2","13","3A","C1","C","37"
"","","approach-retreat","186","1272914","0.0-186.0","","","2-4","4429","40","0","Testing","Stims/Figures/84-C-20-2.bmp","zahaha","Down","38","2","14","3A","C2","C","38"
"","","approach-retreat","187","1278894","0.0-187.0","","","2-4","4458","37","1","Testing","Stims/Figures/19-C-20-4.bmp","zahaha","Right","37","2","15","3A","C2","C","39"
"","","approach-retreat","188","1284364","0.0-188.0","","","2-4","3952","37","1","Testing","Stims/Figures/74-C-20-4.bmp","zahaha","Right","37","2","16","3A","C2","C","40"
"","","approach-retreat","189","1289995","0.0-189.0","","","2-4","4118","37","0","Testing","Stims/Figures/93-J-0-1.bmp","fa:fa:sha","Right","39","2","17","3A","C1","C","41"
"","","approach-retreat","190","1295634","0.0-190.0","","","2-4","4134","39","0","Testing","Stims/Figures/84-J-0-2.bmp","fa:fa:sha","Left","37","2","18","3A","C1","C","42"
"","","approach-retreat","191","1308964","0.0-191.0","","","2-4","11816","40","0","Testing","Stims/Figures/102-J-10-4.bmp","fa:fa:sha","Up","38","2","19","3A","C1","C","43"
"","","approach-retreat","192","1314575","0.0-192.0","","","2-4","4099","38","1","Testing","Stims/Figures/102-C-20-4.bmp","zahaha","Down","38","2","20","3A","C2","C","44"
"","","approach-retreat","193","1322685","0.0-193.0","","","2-4","6600","37","0","Testing","Stims/Figures/144-J-10-3.bmp","fa:fa:sha","Right","39","2","21","3A","C1","C","45"
"","","approach-retreat","194","1328154","0.0-194.0","","","2-4","3946","39","0","Testing","Stims/Figures/74-J-10-4.bmp","fa:fa:sha","Left","37","2","22","3A","C1","C","46"
"","","approach-retreat","195","1333573","0.0-195.0","","","2-4","3907","37","1","Testing","Stims/Figures/144-C-30-3.bmp","zahaha","Right","37","2","23","3A","C2","C","47"
"","","approach-retreat","196","1339334","0.0-196.0","","","2-4","4250","38","0","Testing","Stims/Figures/118-J-0-2.bmp","fa:fa:sha","Down","40","2","24","3A","C1","C","48"
"","","approach-retreat","197","1345044","0.0-197.0","","","2-4","4180","37","1","Testing","Stims/Figures/118-C-20-2.bmp","zahaha","Right","37","3","1","3A","C2","C","49"
"","","approach-retreat","198","1351014","0.0-198.0","","","2-4","4447","40","0","Testing","Stims/Figures/44-C-30-3.bmp","zahaha","Down","38","3","2","3A","C2","C","50"
"","","approach-retreat","199","1356574","0.0-199.0","","","2-4","4039","37","1","Testing","Stims/Figures/84-C-20-2.bmp","zahaha","Right","37","3","3","3A","C2","C","51"
"","","approach-retreat","200","1362175","0.0-200.0","","","2-4","4081","38","1","Testing","Stims/Figures/94-C-20-2.bmp","zahaha","Down","38","3","4","3A","C2","C","52"
"","","approach-retreat","201","1367834","0.0-201.0","","","2-4","4149","38","1","Testing","Stims/Figures/86-C-30-1.bmp","zahaha","Down","38","3","5","3A","C2","C","53"
"","","approach-retreat","202","1373715","0.0-202.0","","","2-4","4359","40","0","Testing","Stims/Figures/102-J-10-4.bmp","fa:fa:sha","Up","38","3","6","3A","C1","C","54"
"","","approach-retreat","203","1379774","0.0-203.0","","","2-4","4539","40","1","Testing","Stims/Figures/71-C-30-1.bmp","zahaha","Up","40","3","7","3A","C2","C","55"
"","","approach-retreat","204","1385245","0.0-204.0","","","2-4","3958","39","1","Testing","Stims/Figures/19-C-20-4.bmp","zahaha","Left","39","3","8","3A","C2","C","56"
"","","approach-retreat","205","1390895","0.0-205.0","","","2-4","4125","37","0","Testing","Stims/Figures/74-J-10-4.bmp","fa:fa:sha","Right","39","3","9","3A","C1","C","57"
"","","approach-retreat","206","1396995","0.0-206.0","","","2-4","4590","37","0","Testing","Stims/Figures/100-J-10-3.bmp","fa:fa:sha","Right","39","3","10","3A","C1","C","58"
"","","approach-retreat","207","1403575","0.0-207.0","","","2-4","5061","37","1","Testing","Stims/Figures/144-C-30-3.bmp","zahaha","Right","37","3","11","3A","C2","C","59"
"","","approach-retreat","208","1409535","0.0-208.0","","","2-4","4450","38","1","Testing","Stims/Figures/74-C-20-4.bmp","zahaha","Down","38","3","12","3A","C2","C","60"
"","","approach-retreat","209","1415205","0.0-209.0","","","2-4","4142","40","0","Testing","Stims/Figures/86-J-0-1.bmp","fa:fa:sha","Up","38","3","13","3A","C1","C","61"
"","","approach-retreat","210","1420725","0.0-210.0","","","2-4","4000","39","0","Testing","Stims/Figures/93-J-0-1.bmp","fa:fa:sha","Left","37","3","14","3A","C1","C","62"
"","","approach-retreat","211","1426465","0.0-211.0","","","2-4","4214","39","0","Testing","Stims/Figures/19-J-10-4.bmp","fa:fa:sha","Left","37","3","15","3A","C1","C","63"
"","","approach-retreat","212","1433335","0.0-212.0","","","2-4","5360","37","1","Testing","Stims/Figures/71-J-0-1.bmp","fa:fa:sha","Left","37","3","16","3A","C1","C","64"
"","","approach-retreat","213","1439335","0.0-213.0","","","2-4","4485","40","0","Testing","Stims/Figures/100-C-30-3.bmp","zahaha","Down","38","3","17","3A","C2","C","65"
"","","approach-retreat","214","1445345","0.0-214.0","","","2-4","4504","39","0","Testing","Stims/Figures/84-J-0-2.bmp","fa:fa:sha","Left","37","3","18","3A","C1","C","66"
"","","approach-retreat","215","1450925","0.0-215.0","","","2-4","4073","38","0","Testing","Stims/Figures/118-J-0-2.bmp","fa:fa:sha","Down","40","3","19","3A","C1","C","67"
"","","approach-retreat","216","1456605","0.0-216.0","","","2-4","4161","40","0","Testing","Stims/Figures/144-J-10-3.bmp","fa:fa:sha","Up","38","3","20","3A","C1","C","68"
"","","approach-retreat","217","1462155","0.0-217.0","","","2-4","4028","37","1","Testing","Stims/Figures/102-C-20-4.bmp","zahaha","Right","37","3","21","3A","C2","C","69"
"","","approach-retreat","218","1467956","0.0-218.0","","","2-4","4279","40","0","Testing","Stims/Figures/94-J-0-2.bmp","fa:fa:sha","Up","38","3","22","3A","C1","C","70"
"","","approach-retreat","219","1473695","0.0-219.0","","","2-4","4227","38","1","Testing","Stims/Figures/44-J-10-3.bmp","fa:fa:sha","Up","38","3","23","3A","C1","C","71"
"","","approach-retreat","220","1479235","0.0-220.0","","","2-4","4017","37","0","Testing","Stims/Figures/93-C-30-1.bmp","zahaha","Left","39","3","24","3A","C2","C","72"
"","","approach-retreat","221","1485604","0.0-221.0","","","2-4","4861","40","0","Testing","Stims/Figures/93-C-30-1.bmp","zahaha","Down","38","4","1","3A","C2","C","73"
"","","approach-retreat","222","1491545","0.0-222.0","","","2-4","4420","40","0","Testing","Stims/Figures/102-C-20-4.bmp","zahaha","Down","38","4","2","3A","C2","C","74"
"","","approach-retreat","223","1497145","0.0-223.0","","","2-4","4078","37","1","Testing","Stims/Figures/19-J-10-4.bmp","fa:fa:sha","Left","37","4","3","3A","C1","C","75"
"","","approach-retreat","224","1503276","0.0-224.0","","","2-4","4608","39","0","Testing","Stims/Figures/118-C-20-2.bmp","zahaha","Right","37","4","4","3A","C2","C","76"
"","","approach-retreat","225","1508896","0.0-225.0","","","2-4","4109","40","0","Testing","Stims/Figures/74-J-10-4.bmp","fa:fa:sha","Up","38","4","5","3A","C1","C","77"
"","","approach-retreat","226","1514435","0.0-226.0","","","2-4","4017","37","0","Testing","Stims/Figures/118-J-0-2.bmp","fa:fa:sha","Right","39","4","6","3A","C1","C","78"
"","","approach-retreat","227","1520236","0.0-227.0","","","2-4","4290","38","1","Testing","Stims/Figures/44-J-10-3.bmp","fa:fa:sha","Up","38","4","7","3A","C1","C","79"
"","","approach-retreat","228","1526356","0.0-228.0","","","2-4","4612","39","1","Testing","Stims/Figures/94-C-20-2.bmp","zahaha","Left","39","4","8","3A","C2","C","80"
"","","approach-retreat","229","1532477","0.0-229.0","","","2-4","4612","40","0","Testing","Stims/Figures/144-C-30-3.bmp","zahaha","Down","38","4","9","3A","C2","C","81"
"","","approach-retreat","230","1538095","0.0-230.0","","","2-4","4105","39","0","Testing","Stims/Figures/102-J-10-4.bmp","fa:fa:sha","Left","37","4","10","3A","C1","C","82"
"","","approach-retreat","231","1543616","0.0-231.0","","","2-4","3996","40","0","Testing","Stims/Figures/93-J-0-1.bmp","fa:fa:sha","Up","38","4","11","3A","C1","C","83"
"","","approach-retreat","232","1549906","0.0-232.0","","","2-4","4775","39","0","Testing","Stims/Figures/44-C-30-3.bmp","zahaha","Right","37","4","12","3A","C2","C","84"
"","","approach-retreat","233","1555826","0.0-233.0","","","2-4","4405","39","1","Testing","Stims/Figures/19-C-20-4.bmp","zahaha","Left","39","4","13","3A","C2","C","85"
"","","approach-retreat","234","1561415","0.0-234.0","","","2-4","4068","39","1","Testing","Stims/Figures/84-C-20-2.bmp","zahaha","Left","39","4","14","3A","C2","C","86"
"","","approach-retreat","235","1567386","0.0-235.0","","","2-4","4453","39","0","Testing","Stims/Figures/144-J-10-3.bmp","fa:fa:sha","Left","37","4","15","3A","C1","C","87"
"","","approach-retreat","236","1573166","0.0-236.0","","","2-4","4259","40","1","Testing","Stims/Figures/71-J-0-1.bmp","fa:fa:sha","Down","40","4","16","3A","C1","C","88"
"","","approach-retreat","237","1578895","0.0-237.0","","","2-4","4207","37","0","Testing","Stims/Figures/100-J-10-3.bmp","fa:fa:sha","Right","39","4","17","3A","C1","C","89"
"","","approach-retreat","238","1584546","0.0-238.0","","","2-4","4134","40","1","Testing","Stims/Figures/86-C-30-1.bmp","zahaha","Up","40","4","18","3A","C2","C","90"
"","","approach-retreat","239","1590366","0.0-239.0","","","2-4","4305","40","0","Testing","Stims/Figures/84-J-0-2.bmp","fa:fa:sha","Up","38","4","19","3A","C1","C","91"
"","","approach-retreat","240","1595976","0.0-240.0","","","2-4","4100","40","1","Testing","Stims/Figures/74-C-20-4.bmp","zahaha","Up","40","4","20","3A","C2","C","92"
"","","approach-retreat","241","1602086","0.0-241.0","","","2-4","4594","40","1","Testing","Stims/Figures/86-J-0-1.bmp","fa:fa:sha","Down","40","4","21","3A","C1","C","93"
"","","approach-retreat","242","1608086","0.0-242.0","","","2-4","4493","40","1","Testing","Stims/Figures/94-J-0-2.bmp","fa:fa:sha","Down","40","4","22","3A","C1","C","94"
"","","approach-retreat","243","1613885","0.0-243.0","","","2-4","4291","39","0","Testing","Stims/Figures/71-C-30-1.bmp","zahaha","Right","37","4","23","3A","C2","C","95"
"","","approach-retreat","244","1620036","0.0-244.0","","","2-4","4634","37","1","Testing","Stims/Figures/100-C-30-3.bmp","zahaha","Right","37","4","24","3A","C2","C","96"
"15365","","survey-text","245","1635412","0.0-245.0","","{""Q0"":""""}","","","","","","","","","","","","","","",""
