"rt","key_press","trial_type","trial_index","time_elapsed","internal_node_id","view_history","responses","Id","Rt","ResKeyCode","ResCorr","TrialType2","Image","Label","Location","CorrectResponse","Block","BlockTrial","Condition","LabelType","Subcondition","trialNum"
"104071","32","text","0","104085","0.0-0.0-0.0","","","","","","","","","","","","","","","","",""
"723","","instructions","1","104816","0.0-1.0","[{""page_index"":0,""viewing_time"":720}]","","","","","","","","","","","","","","","",""
"67842","","survey-multi-choice","2","172764","0.0-2.0","","{""Q0"":""Da"",""Q1"":""Da"",""Q2"":""Da"",""Q3"":""Da"",""Q4"":""Da"",""Q5"":""Da""}","","","","","","","","","","","","","","",""
"","","bio","3","183615","0.0-3.0","","{""age"":""19"",""gender"":""f"",""specify"":""""}","","","","","","","","","","","","","","",""
"","","approach-retreat","4","199086","0.0-4.0","","","1-3","13949","39","0","Training","Stims/Figures/128-J-10-3.bmp","None","Left","37","1","1","10","N","C","1"
"","","approach-retreat","5","206394","0.0-5.0","","","1-3","5776","40","0","Training","Stims/Figures/94-C-20-2.bmp","None","Down","38","1","2","10","N","C","2"
"","","approach-retreat","6","213416","0.0-6.0","","","1-3","5494","37","0","Training","Stims/Figures/44-J-10-3.bmp","None","Right","39","1","3","10","N","C","3"
"","","approach-retreat","7","219317","0.0-7.0","","","1-3","4369","39","0","Training","Stims/Figures/93-C-30-1.bmp","None","Right","37","1","4","10","N","C","4"
"","","approach-retreat","8","225305","0.0-8.0","","","1-3","4459","38","0","Training","Stims/Figures/57-J-0-1.bmp","None","Down","40","1","5","10","N","C","5"
"","","approach-retreat","9","231730","0.0-9.0","","","1-3","4896","38","0","Training","Stims/Figures/94-J-0-2.bmp","None","Down","40","1","6","10","N","C","6"
"","","approach-retreat","10","237441","0.0-10.0","","","1-3","4181","38","0","Training","Stims/Figures/128-C-30-3.bmp","None","Up","40","1","7","10","N","C","7"
"","","approach-retreat","11","243971","0.0-11.0","","","1-3","4999","39","1","Training","Stims/Figures/44-C-30-3.bmp","None","Left","39","1","8","10","N","C","8"
"","","approach-retreat","12","249726","0.0-12.0","","","1-3","4226","37","1","Training","Stims/Figures/19-J-10-4.bmp","None","Left","37","1","9","10","N","C","9"
"","","approach-retreat","13","258079","0.0-13.0","","","1-3","6827","40","1","Training","Stims/Figures/19-C-20-4.bmp","None","Up","40","1","10","10","N","C","10"
"","","approach-retreat","14","265345","0.0-14.0","","","1-3","5737","39","1","Training","Stims/Figures/7-J-10-4.bmp","None","Right","39","1","11","10","N","C","11"
"","","approach-retreat","15","271685","0.0-15.0","","","1-3","4814","37","1","Training","Stims/Figures/57-C-30-1.bmp","None","Right","37","1","12","10","N","C","12"
"","","approach-retreat","16","279592","0.0-16.0","","","1-3","6379","40","0","Training","Stims/Figures/85-J-0-2.bmp","None","Up","38","1","13","10","N","C","13"
"","","approach-retreat","17","287540","0.0-17.0","","","1-3","6419","40","0","Training","Stims/Figures/85-C-20-2.bmp","None","Down","38","1","14","10","N","C","14"
"","","approach-retreat","18","295098","0.0-18.0","","","1-3","6030","40","0","Training","Stims/Figures/93-J-0-1.bmp","None","Up","38","1","15","10","N","C","15"
"","","approach-retreat","19","302828","0.0-19.0","","","1-3","6203","39","1","Training","Stims/Figures/7-C-20-4.bmp","None","Left","39","1","16","10","N","C","16"
"","","approach-retreat","20","310360","0.0-20.0","","","1-3","6005","38","0","Training","Stims/Figures/93-C-30-1.bmp","None","Up","40","2","1","10","N","C","17"
"","","approach-retreat","21","317265","0.0-21.0","","","1-3","5378","37","1","Training","Stims/Figures/85-C-20-2.bmp","None","Right","37","2","2","10","N","C","18"
"","","approach-retreat","22","324114","0.0-22.0","","","1-3","5319","38","0","Training","Stims/Figures/19-C-20-4.bmp","None","Up","40","2","3","10","N","C","19"
"","","approach-retreat","23","330225","0.0-23.0","","","1-3","4584","38","1","Training","Stims/Figures/94-J-0-2.bmp","None","Up","38","2","4","10","N","C","20"
"","","approach-retreat","24","335936","0.0-24.0","","","1-3","4183","37","0","Training","Stims/Figures/7-C-20-4.bmp","None","Left","39","2","5","10","N","C","21"
"","","approach-retreat","25","341841","0.0-25.0","","","1-3","4378","38","1","Training","Stims/Figures/57-C-30-1.bmp","None","Down","38","2","6","10","N","C","22"
"","","approach-retreat","26","347696","0.0-26.0","","","1-3","4327","40","1","Training","Stims/Figures/19-J-10-4.bmp","None","Down","40","2","7","10","N","C","23"
"","","approach-retreat","27","355192","0.0-27.0","","","1-3","5969","38","1","Training","Stims/Figures/85-J-0-2.bmp","None","Up","38","2","8","10","N","C","24"
"","","approach-retreat","28","360788","0.0-28.0","","","1-3","4067","39","1","Training","Stims/Figures/44-C-30-3.bmp","None","Left","39","2","9","10","N","C","25"
"","","approach-retreat","29","366441","0.0-29.0","","","1-3","4138","39","1","Training","Stims/Figures/44-J-10-3.bmp","None","Right","39","2","10","10","N","C","26"
"","","approach-retreat","30","374129","0.0-30.0","","","1-3","6158","38","0","Training","Stims/Figures/93-J-0-1.bmp","None","Down","40","2","11","10","N","C","27"
"","","approach-retreat","31","382072","0.0-31.0","","","1-3","6414","37","1","Training","Stims/Figures/128-C-30-3.bmp","None","Right","37","2","12","10","N","C","28"
"","","approach-retreat","32","387725","0.0-32.0","","","1-3","4125","37","1","Training","Stims/Figures/128-J-10-3.bmp","None","Left","37","2","13","10","N","C","29"
"","","approach-retreat","33","394721","0.0-33.0","","","1-3","5467","39","1","Training","Stims/Figures/7-J-10-4.bmp","None","Right","39","2","14","10","N","C","30"
"","","approach-retreat","34","401594","0.0-34.0","","","1-3","5343","38","1","Training","Stims/Figures/94-C-20-2.bmp","None","Down","38","2","15","10","N","C","31"
"","","approach-retreat","35","409641","0.0-35.0","","","1-3","6519","39","0","Training","Stims/Figures/57-J-0-1.bmp","None","Left","37","2","16","10","N","C","32"
"","","approach-retreat","36","418836","0.0-36.0","","","1-3","7665","38","0","Training","Stims/Figures/128-J-10-3.bmp","None","Down","40","3","1","10","N","C","33"
"","","approach-retreat","37","424443","0.0-37.0","","","1-3","4078","39","0","Training","Stims/Figures/7-J-10-4.bmp","None","Left","37","3","2","10","N","C","34"
"","","approach-retreat","38","432132","0.0-38.0","","","1-3","6158","40","0","Training","Stims/Figures/44-J-10-3.bmp","None","Up","38","3","3","10","N","C","35"
"","","approach-retreat","39","439329","0.0-39.0","","","1-3","5666","40","0","Training","Stims/Figures/57-C-30-1.bmp","None","Down","38","3","4","10","N","C","36"
"","","approach-retreat","40","444954","0.0-40.0","","","1-3","4097","37","1","Training","Stims/Figures/128-C-30-3.bmp","None","Right","37","3","5","10","N","C","37"
"","","approach-retreat","41","450625","0.0-41.0","","","1-3","4144","38","1","Training","Stims/Figures/94-J-0-2.bmp","None","Up","38","3","6","10","N","C","38"
"","","approach-retreat","42","456449","0.0-42.0","","","1-3","4297","38","1","Training","Stims/Figures/94-C-20-2.bmp","None","Down","38","3","7","10","N","C","39"
"","","approach-retreat","43","463168","0.0-43.0","","","1-3","5191","37","1","Training","Stims/Figures/57-J-0-1.bmp","None","Left","37","3","8","10","N","C","40"
"","","approach-retreat","44","470643","0.0-44.0","","","1-3","5946","39","1","Training","Stims/Figures/93-J-0-1.bmp","None","Right","39","3","9","10","N","C","41"
"","","approach-retreat","45","477218","0.0-45.0","","","1-3","5046","38","1","Training","Stims/Figures/85-J-0-2.bmp","None","Up","38","3","10","10","N","C","42"
"","","approach-retreat","46","483186","0.0-46.0","","","1-3","4440","39","0","Training","Stims/Figures/7-C-20-4.bmp","None","Right","37","3","11","10","N","C","43"
"","","approach-retreat","47","488596","0.0-47.0","","","1-3","3882","39","0","Training","Stims/Figures/44-C-30-3.bmp","None","Right","37","3","12","10","N","C","44"
"","","approach-retreat","48","497687","0.0-48.0","","","1-3","7564","37","0","Training","Stims/Figures/85-C-20-2.bmp","None","Left","39","3","13","10","N","C","45"
"","","approach-retreat","49","504290","0.0-49.0","","","1-3","5075","40","0","Training","Stims/Figures/93-C-30-1.bmp","None","Down","38","3","14","10","N","C","46"
"","","approach-retreat","50","510324","0.0-50.0","","","1-3","4506","39","0","Training","Stims/Figures/19-J-10-4.bmp","None","Left","37","3","15","10","N","C","47"
"","","approach-retreat","51","516071","0.0-51.0","","","1-3","4223","40","1","Training","Stims/Figures/19-C-20-4.bmp","None","Up","40","3","16","10","N","C","48"
"","","approach-retreat","52","522652","0.0-52.0","","","1-3","5053","38","0","Training","Stims/Figures/19-J-10-4.bmp","None","Down","40","4","1","10","N","C","49"
"","","approach-retreat","53","528207","0.0-53.0","","","1-3","4028","40","1","Training","Stims/Figures/19-C-20-4.bmp","None","Up","40","4","2","10","N","C","50"
"","","approach-retreat","54","533946","0.0-54.0","","","1-3","4221","39","0","Training","Stims/Figures/57-C-30-1.bmp","None","Right","37","4","3","10","N","C","51"
"","","approach-retreat","55","541403","0.0-55.0","","","1-3","5929","37","1","Training","Stims/Figures/85-C-20-2.bmp","None","Right","37","4","4","10","N","C","52"
"","","approach-retreat","56","547354","0.0-56.0","","","1-3","4427","38","0","Training","Stims/Figures/57-J-0-1.bmp","None","Down","40","4","5","10","N","C","53"
"","","approach-retreat","57","554135","0.0-57.0","","","1-3","5254","39","1","Training","Stims/Figures/44-C-30-3.bmp","None","Left","39","4","6","10","N","C","54"
"","","approach-retreat","58","560625","0.0-58.0","","","1-3","4964","38","0","Training","Stims/Figures/44-J-10-3.bmp","None","Down","40","4","7","10","N","C","55"
"","","approach-retreat","59","567991","0.0-59.0","","","1-3","5841","38","1","Training","Stims/Figures/7-J-10-4.bmp","None","Up","38","4","8","10","N","C","56"
"","","approach-retreat","60","575186","0.0-60.0","","","1-3","5666","39","1","Training","Stims/Figures/7-C-20-4.bmp","None","Left","39","4","9","10","N","C","57"
"","","approach-retreat","61","582815","0.0-61.0","","","1-3","6102","39","1","Training","Stims/Figures/93-C-30-1.bmp","None","Left","39","4","10","10","N","C","58"
"","","approach-retreat","62","588537","0.0-62.0","","","1-3","4194","40","0","Training","Stims/Figures/93-J-0-1.bmp","None","Up","38","4","11","10","N","C","59"
"","","approach-retreat","63","595255","0.0-63.0","","","1-3","5190","40","1","Training","Stims/Figures/85-J-0-2.bmp","None","Down","40","4","12","10","N","C","60"
"","","approach-retreat","64","601032","0.0-64.0","","","1-3","4252","37","1","Training","Stims/Figures/128-C-30-3.bmp","None","Right","37","4","13","10","N","C","61"
"","","approach-retreat","65","607159","0.0-65.0","","","1-3","4615","38","0","Training","Stims/Figures/94-C-20-2.bmp","None","Up","40","4","14","10","N","C","62"
"","","approach-retreat","66","612839","0.0-66.0","","","1-3","4156","37","1","Training","Stims/Figures/128-J-10-3.bmp","None","Left","37","4","15","10","N","C","63"
"","","approach-retreat","67","621415","0.0-67.0","","","1-3","7049","39","1","Training","Stims/Figures/94-J-0-2.bmp","None","Right","39","4","16","10","N","C","64"
"","","approach-retreat","68","630280","0.0-68.0","","","1-3","7335","37","1","Training","Stims/Figures/85-J-0-2.bmp","None","Left","37","5","1","10","N","C","65"
"","","approach-retreat","69","635931","0.0-69.0","","","1-3","4123","38","0","Training","Stims/Figures/57-J-0-1.bmp","None","Down","40","5","2","10","N","C","66"
"","","approach-retreat","70","641624","0.0-70.0","","","1-3","4166","38","0","Training","Stims/Figures/94-J-0-2.bmp","None","Down","40","5","3","10","N","C","67"
"","","approach-retreat","71","648621","0.0-71.0","","","1-3","5473","40","1","Training","Stims/Figures/128-J-10-3.bmp","None","Down","40","5","4","10","N","C","68"
"","","approach-retreat","72","657224","0.0-72.0","","","1-3","7076","37","0","Training","Stims/Figures/93-C-30-1.bmp","None","Left","39","5","5","10","N","C","69"
"","","approach-retreat","73","662899","0.0-73.0","","","1-3","4146","38","0","Training","Stims/Figures/94-C-20-2.bmp","None","Up","40","5","6","10","N","C","70"
"","","approach-retreat","74","669215","0.0-74.0","","","1-3","4790","37","1","Training","Stims/Figures/7-J-10-4.bmp","None","Left","37","5","7","10","N","C","71"
"","","approach-retreat","75","675878","0.0-75.0","","","1-3","5135","38","0","Training","Stims/Figures/7-C-20-4.bmp","None","Up","40","5","8","10","N","C","72"
"","","approach-retreat","76","681774","0.0-76.0","","","1-3","4371","39","1","Training","Stims/Figures/93-J-0-1.bmp","None","Right","39","5","9","10","N","C","73"
"","","approach-retreat","77","687719","0.0-77.0","","","1-3","4421","39","0","Training","Stims/Figures/57-C-30-1.bmp","None","Right","37","5","10","10","N","C","74"
"","","approach-retreat","78","694873","0.0-78.0","","","1-3","5628","39","1","Training","Stims/Figures/19-J-10-4.bmp","None","Right","39","5","11","10","N","C","75"
"","","approach-retreat","79","704041","0.0-79.0","","","1-3","7639","38","0","Training","Stims/Figures/85-C-20-2.bmp","None","Up","40","5","12","10","N","C","76"
"","","approach-retreat","80","709601","0.0-80.0","","","1-3","4031","37","0","Training","Stims/Figures/128-C-30-3.bmp","None","Left","39","5","13","10","N","C","77"
"","","approach-retreat","81","715206","0.0-81.0","","","1-3","4079","39","0","Training","Stims/Figures/44-C-30-3.bmp","None","Right","37","5","14","10","N","C","78"
"","","approach-retreat","82","720635","0.0-82.0","","","1-3","3900","40","1","Training","Stims/Figures/19-C-20-4.bmp","None","Up","40","5","15","10","N","C","79"
"","","approach-retreat","83","726833","0.0-83.0","","","1-3","4670","38","0","Training","Stims/Figures/44-J-10-3.bmp","None","Down","40","5","16","10","N","C","80"
"","","approach-retreat","84","732842","0.0-84.0","","","1-3","4481","38","0","Training","Stims/Figures/94-J-0-2.bmp","None","Down","40","6","1","10","N","C","81"
"","","approach-retreat","85","738792","0.0-85.0","","","1-3","4422","39","0","Training","Stims/Figures/44-J-10-3.bmp","None","Left","37","6","2","10","N","C","82"
"","","approach-retreat","86","745201","0.0-86.0","","","1-3","4882","38","1","Training","Stims/Figures/85-J-0-2.bmp","None","Up","38","6","3","10","N","C","83"
"","","approach-retreat","87","751704","0.0-87.0","","","1-3","4975","39","0","Training","Stims/Figures/57-J-0-1.bmp","None","Left","37","6","4","10","N","C","84"
"","","approach-retreat","88","758808","0.0-88.0","","","1-3","5577","37","1","Training","Stims/Figures/128-J-10-3.bmp","None","Left","37","6","5","10","N","C","85"
"","","approach-retreat","89","764321","0.0-89.0","","","1-3","3992","40","0","Training","Stims/Figures/93-J-0-1.bmp","None","Up","38","6","6","10","N","C","86"
"","","approach-retreat","90","770027","0.0-90.0","","","1-3","4178","39","0","Training","Stims/Figures/44-C-30-3.bmp","None","Right","37","6","7","10","N","C","87"
"","","approach-retreat","91","776526","0.0-91.0","","","1-3","4974","39","0","Training","Stims/Figures/7-C-20-4.bmp","None","Right","37","6","8","10","N","C","88"
"","","approach-retreat","92","782263","0.0-92.0","","","1-3","4211","40","0","Training","Stims/Figures/19-J-10-4.bmp","None","Up","38","6","9","10","N","C","89"
"","","approach-retreat","93","788630","0.0-93.0","","","1-3","4842","39","1","Training","Stims/Figures/57-C-30-1.bmp","None","Left","39","6","10","10","N","C","90"
"","","approach-retreat","94","794457","0.0-94.0","","","1-3","4301","38","1","Training","Stims/Figures/19-C-20-4.bmp","None","Down","38","6","11","10","N","C","91"
"","","approach-retreat","95","800366","0.0-95.0","","","1-3","4384","40","0","Training","Stims/Figures/94-C-20-2.bmp","None","Down","38","6","12","10","N","C","92"
"","","approach-retreat","96","806058","0.0-96.0","","","1-3","4163","38","0","Training","Stims/Figures/85-C-20-2.bmp","None","Up","40","6","13","10","N","C","93"
"","","approach-retreat","97","812063","0.0-97.0","","","1-3","4478","40","1","Training","Stims/Figures/7-J-10-4.bmp","None","Down","40","6","14","10","N","C","94"
"","","approach-retreat","98","817955","0.0-98.0","","","1-3","4364","37","1","Training","Stims/Figures/128-C-30-3.bmp","None","Right","37","6","15","10","N","C","95"
"","","approach-retreat","99","824456","0.0-99.0","","","1-3","4974","39","0","Training","Stims/Figures/93-C-30-1.bmp","None","Right","37","6","16","10","N","C","96"
"","","approach-retreat","100","830375","0.0-100.0","","","1-3","4392","38","1","Training","Stims/Figures/19-J-10-4.bmp","None","Up","38","7","1","10","N","C","97"
"","","approach-retreat","101","835930","0.0-101.0","","","1-3","4025","39","0","Training","Stims/Figures/57-C-30-1.bmp","None","Right","37","7","2","10","N","C","98"
"","","approach-retreat","102","841594","0.0-102.0","","","1-3","4135","38","1","Training","Stims/Figures/19-C-20-4.bmp","None","Down","38","7","3","10","N","C","99"
"","","approach-retreat","103","849110","0.0-103.0","","","1-3","6006","37","0","Training","Stims/Figures/94-C-20-2.bmp","None","Left","39","7","4","10","N","C","100"
"","","approach-retreat","104","857407","0.0-104.0","","","1-3","6769","37","1","Training","Stims/Figures/128-C-30-3.bmp","None","Right","37","7","5","10","N","C","101"
"","","approach-retreat","105","863729","0.0-105.0","","","1-3","4794","39","0","Training","Stims/Figures/94-J-0-2.bmp","None","Left","37","7","6","10","N","C","102"
"","","approach-retreat","106","869256","0.0-106.0","","","1-3","4001","37","1","Training","Stims/Figures/7-J-10-4.bmp","None","Left","37","7","7","10","N","C","103"
"","","approach-retreat","107","876969","0.0-107.0","","","1-3","6186","38","0","Training","Stims/Figures/44-J-10-3.bmp","None","Down","40","7","8","10","N","C","104"
"","","approach-retreat","108","883200","0.0-108.0","","","1-3","4706","38","1","Training","Stims/Figures/128-J-10-3.bmp","None","Up","38","7","9","10","N","C","105"
"","","approach-retreat","109","889474","0.0-109.0","","","1-3","4745","40","1","Training","Stims/Figures/44-C-30-3.bmp","None","Up","40","7","10","10","N","C","106"
"","","approach-retreat","110","895792","0.0-110.0","","","1-3","4790","37","0","Training","Stims/Figures/7-C-20-4.bmp","None","Left","39","7","11","10","N","C","107"
"","","approach-retreat","111","901494","0.0-111.0","","","1-3","4177","40","1","Training","Stims/Figures/93-J-0-1.bmp","None","Down","40","7","12","10","N","C","108"
"","","approach-retreat","112","909402","0.0-112.0","","","1-3","6384","39","1","Training","Stims/Figures/57-J-0-1.bmp","None","Right","39","7","13","10","N","C","109"
"","","approach-retreat","113","915934","0.0-113.0","","","1-3","5005","39","0","Training","Stims/Figures/85-C-20-2.bmp","None","Right","37","7","14","10","N","C","110"
"","","approach-retreat","114","922162","0.0-114.0","","","1-3","4699","38","0","Training","Stims/Figures/85-J-0-2.bmp","None","Down","40","7","15","10","N","C","111"
"","","approach-retreat","115","927903","0.0-115.0","","","1-3","4216","40","1","Training","Stims/Figures/93-C-30-1.bmp","None","Up","40","7","16","10","N","C","112"
"","","approach-retreat","116","933636","0.0-116.0","","","1-3","4201","37","0","Training","Stims/Figures/85-C-20-2.bmp","None","Left","39","8","1","10","N","C","113"
"","","approach-retreat","117","939737","0.0-117.0","","","1-3","4574","39","1","Training","Stims/Figures/85-J-0-2.bmp","None","Right","39","8","2","10","N","C","114"
"","","approach-retreat","118","947344","0.0-118.0","","","1-3","6075","39","0","Training","Stims/Figures/94-C-20-2.bmp","None","Right","37","8","3","10","N","C","115"
"","","approach-retreat","119","954850","0.0-119.0","","","1-3","5979","39","0","Training","Stims/Figures/19-C-20-4.bmp","None","Right","37","8","4","10","N","C","116"
"","","approach-retreat","120","960786","0.0-120.0","","","1-3","4409","38","0","Training","Stims/Figures/128-J-10-3.bmp","None","Down","40","8","5","10","N","C","117"
"","","approach-retreat","121","966476","0.0-121.0","","","1-3","4168","39","0","Training","Stims/Figures/7-J-10-4.bmp","None","Left","37","8","6","10","N","C","118"
"","","approach-retreat","122","972228","0.0-122.0","","","1-3","4224","38","0","Training","Stims/Figures/7-C-20-4.bmp","None","Up","40","8","7","10","N","C","119"
"","","approach-retreat","123","978807","0.0-123.0","","","1-3","5053","40","1","Training","Stims/Figures/93-J-0-1.bmp","None","Down","40","8","8","10","N","C","120"
"","","approach-retreat","124","985002","0.0-124.0","","","1-3","4664","38","1","Training","Stims/Figures/94-J-0-2.bmp","None","Up","38","8","9","10","N","C","121"
"","","approach-retreat","125","991720","0.0-125.0","","","1-3","5190","37","1","Training","Stims/Figures/57-J-0-1.bmp","None","Left","37","8","10","10","N","C","122"
"","","approach-retreat","126","998641","0.0-126.0","","","1-3","5396","39","1","Training","Stims/Figures/19-J-10-4.bmp","None","Right","39","8","11","10","N","C","123"
"","","approach-retreat","127","1007280","0.0-127.0","","","1-3","7111","38","0","Training","Stims/Figures/128-C-30-3.bmp","None","Up","40","8","12","10","N","C","124"
"","","approach-retreat","128","1012984","0.0-128.0","","","1-3","4176","40","1","Training","Stims/Figures/44-J-10-3.bmp","None","Down","40","8","13","10","N","C","125"
"","","approach-retreat","129","1020969","0.0-129.0","","","1-3","6456","38","0","Training","Stims/Figures/93-C-30-1.bmp","None","Up","40","8","14","10","N","C","126"
"","","approach-retreat","130","1026625","0.0-130.0","","","1-3","4129","40","0","Training","Stims/Figures/44-C-30-3.bmp","None","Down","38","8","15","10","N","C","127"
"","","approach-retreat","131","1032352","0.0-131.0","","","1-3","4194","39","1","Training","Stims/Figures/57-C-30-1.bmp","None","Left","39","8","16","10","N","C","128"
"","","approach-retreat","132","1038683","0.0-132.0","","","1-3","4818","37","1","Training","Stims/Figures/93-J-0-1.bmp","None","Left","37","9","1","10","N","C","129"
"","","approach-retreat","133","1046311","0.0-133.0","","","1-3","6103","38","1","Training","Stims/Figures/128-J-10-3.bmp","None","Up","38","9","2","10","N","C","130"
"","","approach-retreat","134","1053771","0.0-134.0","","","1-3","5936","39","0","Training","Stims/Figures/57-C-30-1.bmp","None","Right","37","9","3","10","N","C","131"
"","","approach-retreat","135","1060873","0.0-135.0","","","1-3","5573","40","0","Training","Stims/Figures/44-C-30-3.bmp","None","Down","38","9","4","10","N","C","132"
"","","approach-retreat","136","1067601","0.0-136.0","","","1-3","5200","38","0","Training","Stims/Figures/94-J-0-2.bmp","None","Down","40","9","5","10","N","C","133"
"","","approach-retreat","137","1077211","0.0-137.0","","","1-3","8079","37","0","Training","Stims/Figures/93-C-30-1.bmp","None","Left","39","9","6","10","N","C","134"
"","","approach-retreat","138","1085804","0.0-138.0","","","1-3","7063","37","1","Training","Stims/Figures/57-J-0-1.bmp","None","Left","37","9","7","10","N","C","135"
"","","approach-retreat","139","1092603","0.0-139.0","","","1-3","5271","37","0","Training","Stims/Figures/94-C-20-2.bmp","None","Left","39","9","8","10","N","C","136"
"","","approach-retreat","140","1098970","0.0-140.0","","","1-3","4856","37","1","Training","Stims/Figures/128-C-30-3.bmp","None","Right","37","9","9","10","N","C","137"
"","","approach-retreat","141","1105126","0.0-141.0","","","1-3","4631","40","1","Training","Stims/Figures/7-C-20-4.bmp","None","Up","40","9","10","10","N","C","138"
"","","approach-retreat","142","1112719","0.0-142.0","","","1-3","6066","37","1","Training","Stims/Figures/19-C-20-4.bmp","None","Right","37","9","11","10","N","C","139"
"","","approach-retreat","143","1118515","0.0-143.0","","","1-3","4268","38","0","Training","Stims/Figures/19-J-10-4.bmp","None","Down","40","9","12","10","N","C","140"
"","","approach-retreat","144","1125240","0.0-144.0","","","1-3","5198","38","0","Training","Stims/Figures/7-J-10-4.bmp","None","Down","40","9","13","10","N","C","141"
"","","approach-retreat","145","1132366","0.0-145.0","","","1-3","5600","37","1","Training","Stims/Figures/85-C-20-2.bmp","None","Right","37","9","14","10","N","C","142"
"","","approach-retreat","146","1138923","0.0-146.0","","","1-3","5030","38","1","Training","Stims/Figures/44-J-10-3.bmp","None","Up","38","9","15","10","N","C","143"
"","","approach-retreat","147","1145500","0.0-147.0","","","1-3","5047","40","0","Training","Stims/Figures/85-J-0-2.bmp","None","Up","38","9","16","10","N","C","144"
"12558","","instructions","148","1158058","0.0-148.0","[{""page_index"":0,""viewing_time"":12556}]","","","","","","","","","","","","","","","",""
"","","approach-retreat","149","1164776","0.0-149.0","","","1-3","5194","38","0","Testing","Stims/Figures/93-C-30-1.bmp","None","Up","40","1","1","10","N","C","1"
"","","approach-retreat","150","1170398","0.0-150.0","","","1-3","4095","37","0","Testing","Stims/Figures/7-J-10-4.bmp","None","Right","39","1","2","10","N","C","2"
"","","approach-retreat","151","1177381","0.0-151.0","","","1-3","5456","38","1","Testing","Stims/Figures/85-C-20-2.bmp","None","Down","38","1","3","10","N","C","3"
"","","approach-retreat","152","1184223","0.0-152.0","","","1-3","5313","39","0","Testing","Stims/Figures/93-J-0-1.bmp","None","Left","37","1","4","10","N","C","4"
"","","approach-retreat","153","1190797","0.0-153.0","","","1-3","5045","38","0","Testing","Stims/Figures/19-C-20-4.bmp","None","Up","40","1","5","10","N","C","5"
"","","approach-retreat","154","1197685","0.0-154.0","","","1-3","5360","37","0","Testing","Stims/Figures/85-J-0-2.bmp","None","Right","39","1","6","10","N","C","6"
"","","approach-retreat","155","1203692","0.0-155.0","","","1-3","4479","40","0","Testing","Stims/Figures/44-C-30-3.bmp","None","Down","38","1","7","10","N","C","7"
"","","approach-retreat","156","1211149","0.0-156.0","","","1-3","5931","40","1","Testing","Stims/Figures/128-C-30-3.bmp","None","Up","40","1","8","10","N","C","8"
"","","approach-retreat","157","1218602","0.0-157.0","","","1-3","5930","40","1","Testing","Stims/Figures/94-C-20-2.bmp","None","Up","40","1","9","10","N","C","9"
"","","approach-retreat","158","1227782","0.0-158.0","","","1-3","7651","38","0","Testing","Stims/Figures/19-J-10-4.bmp","None","Down","40","1","10","10","N","C","10"
"","","approach-retreat","159","1235334","0.0-159.0","","","1-3","6025","37","0","Testing","Stims/Figures/100-J-10-3.bmp","None","Right","39","1","11","10","N","C","11"
"","","approach-retreat","160","1242503","0.0-160.0","","","1-3","5645","40","1","Testing","Stims/Figures/74-C-20-4.bmp","None","Up","40","1","12","10","N","C","12"
"","","approach-retreat","161","1249255","0.0-161.0","","","1-3","5239","40","0","Testing","Stims/Figures/118-C-20-2.bmp","None","Down","38","1","13","10","N","C","13"
"","","approach-retreat","162","1256134","0.0-162.0","","","1-3","5355","39","1","Testing","Stims/Figures/44-J-10-3.bmp","None","Right","39","1","14","10","N","C","14"
"","","approach-retreat","163","1263671","0.0-163.0","","","1-3","6010","37","1","Testing","Stims/Figures/71-J-0-1.bmp","None","Left","37","1","15","10","N","C","15"
"","","approach-retreat","164","1271225","0.0-164.0","","","1-3","6024","39","1","Testing","Stims/Figures/100-C-30-3.bmp","None","Left","39","1","16","10","N","C","16"
"","","approach-retreat","165","1278630","0.0-165.0","","","1-3","5877","37","1","Testing","Stims/Figures/128-J-10-3.bmp","None","Left","37","1","17","10","N","C","17"
"","","approach-retreat","166","1285423","0.0-166.0","","","1-3","5265","38","0","Testing","Stims/Figures/94-J-0-2.bmp","None","Down","40","1","18","10","N","C","18"
"","","approach-retreat","167","1291624","0.0-167.0","","","1-3","4673","37","1","Testing","Stims/Figures/7-C-20-4.bmp","None","Right","37","1","19","10","N","C","19"
"","","approach-retreat","168","1297822","0.0-168.0","","","1-3","4672","39","0","Testing","Stims/Figures/118-J-0-2.bmp","None","Left","37","1","20","10","N","C","20"
"","","approach-retreat","169","1307837","0.0-169.0","","","1-3","8489","38","0","Testing","Stims/Figures/71-C-30-1.bmp","None","Up","40","1","21","10","N","C","21"
"","","approach-retreat","170","1315276","0.0-170.0","","","1-3","5912","39","0","Testing","Stims/Figures/57-J-0-1.bmp","None","Left","37","1","22","10","N","C","22"
"","","approach-retreat","171","1323095","0.0-171.0","","","1-3","6295","40","0","Testing","Stims/Figures/57-C-30-1.bmp","None","Down","38","1","23","10","N","C","23"
"","","approach-retreat","172","1329677","0.0-172.0","","","1-3","5055","37","0","Testing","Stims/Figures/74-J-10-4.bmp","None","Right","39","1","24","10","N","C","24"
"","","approach-retreat","173","1336766","0.0-173.0","","","1-3","5561","38","0","Testing","Stims/Figures/94-J-0-2.bmp","None","Down","40","2","1","10","N","C","25"
"","","approach-retreat","174","1342670","0.0-174.0","","","1-3","4376","37","1","Testing","Stims/Figures/7-C-20-4.bmp","None","Right","37","2","2","10","N","C","26"
"","","approach-retreat","175","1348270","0.0-175.0","","","1-3","4075","39","1","Testing","Stims/Figures/71-C-30-1.bmp","None","Left","39","2","3","10","N","C","27"
"","","approach-retreat","176","1354220","0.0-176.0","","","1-3","4433","37","1","Testing","Stims/Figures/128-C-30-3.bmp","None","Right","37","2","4","10","N","C","28"
"","","approach-retreat","177","1360663","0.0-177.0","","","1-3","4915","40","0","Testing","Stims/Figures/44-J-10-3.bmp","None","Up","38","2","5","10","N","C","29"
"","","approach-retreat","178","1367063","0.0-178.0","","","1-3","4871","37","1","Testing","Stims/Figures/57-J-0-1.bmp","None","Left","37","2","6","10","N","C","30"
"","","approach-retreat","179","1374262","0.0-179.0","","","1-3","5672","38","0","Testing","Stims/Figures/100-J-10-3.bmp","None","Down","40","2","7","10","N","C","31"
"","","approach-retreat","180","1380214","0.0-180.0","","","1-3","4425","40","1","Testing","Stims/Figures/118-J-0-2.bmp","None","Down","40","2","8","10","N","C","32"
"","","approach-retreat","181","1386526","0.0-181.0","","","1-3","4785","38","1","Testing","Stims/Figures/100-C-30-3.bmp","None","Down","38","2","9","10","N","C","33"
"","","approach-retreat","182","1393094","0.0-182.0","","","1-3","5041","39","0","Testing","Stims/Figures/85-J-0-2.bmp","None","Left","37","2","10","10","N","C","34"
"","","approach-retreat","183","1398703","0.0-183.0","","","1-3","4082","40","1","Testing","Stims/Figures/74-C-20-4.bmp","None","Up","40","2","11","10","N","C","35"
"","","approach-retreat","184","1405575","0.0-184.0","","","1-3","5344","38","1","Testing","Stims/Figures/93-C-30-1.bmp","None","Down","38","2","12","10","N","C","36"
"","","approach-retreat","185","1411854","0.0-185.0","","","1-3","4753","37","1","Testing","Stims/Figures/44-C-30-3.bmp","None","Right","37","2","13","10","N","C","37"
"","","approach-retreat","186","1418063","0.0-186.0","","","1-3","4681","38","0","Testing","Stims/Figures/19-C-20-4.bmp","None","Up","40","2","14","10","N","C","38"
"","","approach-retreat","187","1425423","0.0-187.0","","","1-3","5834","39","0","Testing","Stims/Figures/93-J-0-1.bmp","None","Left","37","2","15","10","N","C","39"
"","","approach-retreat","188","1432147","0.0-188.0","","","1-3","5196","38","1","Testing","Stims/Figures/71-J-0-1.bmp","None","Up","38","2","16","10","N","C","40"
"","","approach-retreat","189","1439662","0.0-189.0","","","1-3","5987","37","1","Testing","Stims/Figures/118-C-20-2.bmp","None","Right","37","2","17","10","N","C","41"
"","","approach-retreat","190","1446268","0.0-190.0","","","1-3","5072","38","1","Testing","Stims/Figures/7-J-10-4.bmp","None","Up","38","2","18","10","N","C","42"
"","","approach-retreat","191","1452975","0.0-191.0","","","1-3","5175","39","1","Testing","Stims/Figures/57-C-30-1.bmp","None","Left","39","2","19","10","N","C","43"
"","","approach-retreat","192","1458566","0.0-192.0","","","1-3","4063","40","0","Testing","Stims/Figures/128-J-10-3.bmp","None","Up","38","2","20","10","N","C","44"
"","","approach-retreat","193","1466270","0.0-193.0","","","1-3","6174","40","0","Testing","Stims/Figures/85-C-20-2.bmp","None","Down","38","2","21","10","N","C","45"
"","","approach-retreat","194","1472787","0.0-194.0","","","1-3","4991","37","1","Testing","Stims/Figures/94-C-20-2.bmp","None","Right","37","2","22","10","N","C","46"
"","","approach-retreat","195","1479526","0.0-195.0","","","1-3","5211","39","1","Testing","Stims/Figures/74-J-10-4.bmp","None","Right","39","2","23","10","N","C","47"
"","","approach-retreat","196","1487949","0.0-196.0","","","1-3","6896","37","1","Testing","Stims/Figures/19-J-10-4.bmp","None","Left","37","2","24","10","N","C","48"
"","","approach-retreat","197","1495607","0.0-197.0","","","1-3","6129","40","1","Testing","Stims/Figures/85-J-0-2.bmp","None","Down","40","3","1","10","N","C","49"
"","","approach-retreat","198","1501607","0.0-198.0","","","1-3","4471","40","0","Testing","Stims/Figures/74-J-10-4.bmp","None","Up","38","3","2","10","N","C","50"
"","","approach-retreat","199","1508046","0.0-199.0","","","1-3","4914","37","1","Testing","Stims/Figures/19-C-20-4.bmp","None","Right","37","3","3","10","N","C","51"
"","","approach-retreat","200","1515523","0.0-200.0","","","1-3","5952","37","0","Testing","Stims/Figures/118-C-20-2.bmp","None","Left","39","3","4","10","N","C","52"
"","","approach-retreat","201","1522798","0.0-201.0","","","1-3","5749","38","0","Testing","Stims/Figures/44-C-30-3.bmp","None","Up","40","3","5","10","N","C","53"
"","","approach-retreat","202","1529508","0.0-202.0","","","1-3","5185","37","0","Testing","Stims/Figures/71-C-30-1.bmp","None","Left","39","3","6","10","N","C","54"
"","","approach-retreat","203","1536622","0.0-203.0","","","1-3","5589","39","1","Testing","Stims/Figures/74-C-20-4.bmp","None","Left","39","3","7","10","N","C","55"
"","","approach-retreat","204","1542302","0.0-204.0","","","1-3","4150","39","0","Testing","Stims/Figures/57-J-0-1.bmp","None","Left","37","3","8","10","N","C","56"
"","","approach-retreat","205","1548710","0.0-205.0","","","1-3","4881","37","1","Testing","Stims/Figures/19-J-10-4.bmp","None","Left","37","3","9","10","N","C","57"
"","","approach-retreat","206","1555606","0.0-206.0","","","1-3","5369","40","0","Testing","Stims/Figures/128-J-10-3.bmp","None","Up","38","3","10","10","N","C","58"
"","","approach-retreat","207","1562784","0.0-207.0","","","1-3","5650","38","0","Testing","Stims/Figures/100-C-30-3.bmp","None","Up","40","3","11","10","N","C","59"
"","","approach-retreat","208","1571991","0.0-208.0","","","1-3","7681","40","0","Testing","Stims/Figures/128-C-30-3.bmp","None","Down","38","3","12","10","N","C","60"
"","","approach-retreat","209","1580769","0.0-209.0","","","1-3","7249","40","1","Testing","Stims/Figures/85-C-20-2.bmp","None","Up","40","3","13","10","N","C","61"
"","","approach-retreat","210","1587333","0.0-210.0","","","1-3","5038","37","1","Testing","Stims/Figures/94-C-20-2.bmp","None","Right","37","3","14","10","N","C","62"
"","","approach-retreat","211","1594624","0.0-211.0","","","1-3","5763","39","0","Testing","Stims/Figures/71-J-0-1.bmp","None","Left","37","3","15","10","N","C","63"
"","","approach-retreat","212","1601503","0.0-212.0","","","1-3","5354","37","0","Testing","Stims/Figures/94-J-0-2.bmp","None","Right","39","3","16","10","N","C","64"
"","","approach-retreat","213","1607480","0.0-213.0","","","1-3","4449","38","0","Testing","Stims/Figures/118-J-0-2.bmp","None","Down","40","3","17","10","N","C","65"
"","","approach-retreat","214","1613257","0.0-214.0","","","1-3","4247","39","0","Testing","Stims/Figures/57-C-30-1.bmp","None","Right","37","3","18","10","N","C","66"
"","","approach-retreat","215","1619694","0.0-215.0","","","1-3","4911","38","1","Testing","Stims/Figures/7-C-20-4.bmp","None","Down","38","3","19","10","N","C","67"
"","","approach-retreat","216","1626508","0.0-216.0","","","1-3","5290","39","0","Testing","Stims/Figures/93-C-30-1.bmp","None","Right","37","3","20","10","N","C","68"
"","","approach-retreat","217","1633375","0.0-217.0","","","1-3","5339","38","0","Testing","Stims/Figures/93-J-0-1.bmp","None","Down","40","3","21","10","N","C","69"
"","","approach-retreat","218","1639982","0.0-218.0","","","1-3","5078","38","1","Testing","Stims/Figures/7-J-10-4.bmp","None","Up","38","3","22","10","N","C","70"
"","","approach-retreat","219","1646287","0.0-219.0","","","1-3","4778","40","1","Testing","Stims/Figures/100-J-10-3.bmp","None","Down","40","3","23","10","N","C","71"
"","","approach-retreat","220","1652904","0.0-220.0","","","1-3","5090","39","1","Testing","Stims/Figures/44-J-10-3.bmp","None","Right","39","3","24","10","N","C","72"
"","","approach-retreat","221","1659911","0.0-221.0","","","1-3","5479","37","1","Testing","Stims/Figures/128-C-30-3.bmp","None","Right","37","4","1","10","N","C","73"
"","","approach-retreat","222","1668061","0.0-222.0","","","1-3","6623","39","1","Testing","Stims/Figures/85-C-20-2.bmp","None","Left","39","4","2","10","N","C","74"
"","","approach-retreat","223","1674184","0.0-223.0","","","1-3","4594","38","0","Testing","Stims/Figures/57-J-0-1.bmp","None","Down","40","4","3","10","N","C","75"
"","","approach-retreat","224","1680887","0.0-224.0","","","1-3","5174","37","0","Testing","Stims/Figures/118-J-0-2.bmp","None","Right","39","4","4","10","N","C","76"
"","","approach-retreat","225","1686454","0.0-225.0","","","1-3","4041","40","1","Testing","Stims/Figures/94-C-20-2.bmp","None","Up","40","4","5","10","N","C","77"
"","","approach-retreat","226","1692982","0.0-226.0","","","1-3","4999","38","0","Testing","Stims/Figures/118-C-20-2.bmp","None","Up","40","4","6","10","N","C","78"
"","","approach-retreat","227","1699088","0.0-227.0","","","1-3","4578","37","1","Testing","Stims/Figures/128-J-10-3.bmp","None","Left","37","4","7","10","N","C","79"
"","","approach-retreat","228","1705748","0.0-228.0","","","1-3","5133","39","0","Testing","Stims/Figures/74-C-20-4.bmp","None","Right","37","4","8","10","N","C","80"
"","","approach-retreat","229","1712975","0.0-229.0","","","1-3","5700","39","1","Testing","Stims/Figures/93-C-30-1.bmp","None","Left","39","4","9","10","N","C","81"
"","","approach-retreat","230","1719327","0.0-230.0","","","1-3","4815","39","0","Testing","Stims/Figures/71-C-30-1.bmp","None","Right","37","4","10","10","N","C","82"
"","","approach-retreat","231","1725716","0.0-231.0","","","1-3","4866","40","1","Testing","Stims/Figures/7-C-20-4.bmp","None","Up","40","4","11","10","N","C","83"
"","","approach-retreat","232","1731220","0.0-232.0","","","1-3","3981","37","1","Testing","Stims/Figures/7-J-10-4.bmp","None","Left","37","4","12","10","N","C","84"
"","","approach-retreat","233","1737039","0.0-233.0","","","1-3","4290","38","1","Testing","Stims/Figures/19-J-10-4.bmp","None","Up","38","4","13","10","N","C","85"
"","","approach-retreat","234","1743100","0.0-234.0","","","1-3","4536","40","1","Testing","Stims/Figures/100-J-10-3.bmp","None","Down","40","4","14","10","N","C","86"
"","","approach-retreat","235","1751077","0.0-235.0","","","1-3","6451","37","0","Testing","Stims/Figures/74-J-10-4.bmp","None","Right","39","4","15","10","N","C","87"
"","","approach-retreat","236","1761614","0.0-236.0","","","1-3","9012","39","0","Testing","Stims/Figures/71-J-0-1.bmp","None","Left","37","4","16","10","N","C","88"
"","","approach-retreat","237","1768854","0.0-237.0","","","1-3","5712","40","0","Testing","Stims/Figures/44-C-30-3.bmp","None","Down","38","4","17","10","N","C","89"
"","","approach-retreat","238","1774932","0.0-238.0","","","1-3","4553","38","1","Testing","Stims/Figures/100-C-30-3.bmp","None","Down","38","4","18","10","N","C","90"
"","","approach-retreat","239","1780926","0.0-239.0","","","1-3","4464","38","1","Testing","Stims/Figures/19-C-20-4.bmp","None","Down","38","4","19","10","N","C","91"
"","","approach-retreat","240","1788363","0.0-240.0","","","1-3","5914","39","1","Testing","Stims/Figures/57-C-30-1.bmp","None","Left","39","4","20","10","N","C","92"
"","","approach-retreat","241","1794755","0.0-241.0","","","1-3","4866","38","0","Testing","Stims/Figures/85-J-0-2.bmp","None","Down","40","4","21","10","N","C","93"
"","","approach-retreat","242","1801903","0.0-242.0","","","1-3","5622","38","1","Testing","Stims/Figures/93-J-0-1.bmp","None","Up","38","4","22","10","N","C","94"
"","","approach-retreat","243","1808087","0.0-243.0","","","1-3","4656","38","1","Testing","Stims/Figures/94-J-0-2.bmp","None","Up","38","4","23","10","N","C","95"
"","","approach-retreat","244","1814073","0.0-244.0","","","1-3","4458","37","0","Testing","Stims/Figures/44-J-10-3.bmp","None","Right","39","4","24","10","N","C","96"
"42490","","survey-text","245","1856579","0.0-245.0","","{""Q0"":""1102/2018""}","","","","","","","","","","","","","","",""
