\"rt\",\"key_press\",\"trial_type\",\"trial_index\",\"time_elapsed\",\"internal_node_id\",\"view_history\",\"responses\",\"Id\",\"Rt\",\"ResKeyCode\",\"ResCorr\",\"TrialType2\",\"Image\",\"Label\",\"Location\",\"CorrectResponse\",\"Block\",\"BlockTrial\",\"Condition\",\"LabelType\",\"Subcondition\",\"trialNum\"
\"71984\",\"32\",\"text\",\"0\",\"71987\",\"0.0-0.0-0.0\",\"\",\"\",\"\",\"\",\"\",\"\",\"\",\"\",\"\",\"\",\"\",\"\",\"\",\"\",\"\",\"\",\"\"
\"85950\",\"\",\"instructions\",\"1\",\"157940\",\"0.0-1.0\",\"[{\"\"page_index\"\":0,\"\"viewing_time\"\":85949}]\",\"\",\"\",\"\",\"\",\"\",\"\",\"\",\"\",\"\",\"\",\"\",\"\",\"\",\"\",\"\",\"\"
\"38506\",\"\",\"survey-multi-choice\",\"2\",\"196482\",\"0.0-2.0\",\"\",\"{\"\"Q0\"\":\"\"Da\"\",\"\"Q1\"\":\"\"Da\"\",\"\"Q2\"\":\"\"Da\"\",\"\"Q3\"\":\"\"Da\"\",\"\"Q4\"\":\"\"Da\"\",\"\"Q5\"\":\"\"Da\"\"}\",\"\",\"\",\"\",\"\",\"\",\"\",\"\",\"\",\"\",\"\",\"\",\"\",\"\",\"\",\"\"
\"\",\"\",\"bio\",\"3\",\"213055\",\"0.0-3.0\",\"\",\"{\"\"age\"\":\"\"19\"\",\"\"gender\"\":\"\"f\"\",\"\"specify\"\":\"\"\"\"}\",\"\",\"\",\"\",\"\",\"\",\"\",\"\",\"\",\"\",\"\",\"\",\"\",\"\",\"\",\"\"
\"\",\"\",\"approach-retreat\",\"4\",\"221852\",\"0.0-4.0\",\"\",\"\",\"2-2\",\"7289\",\"38\",\"1\",\"Training\",\"Stims/Figures/128-J-10-3.bmp\",\"None\",\"Down\",\"38\",\"1\",\"1\",\"10\",\"N\",\"J\",\"1\"
\"\",\"\",\"approach-retreat\",\"5\",\"227694\",\"0.0-5.0\",\"\",\"\",\"2-2\",\"4332\",\"40\",\"0\",\"Training\",\"Stims/Figures/93-J-0-1.bmp\",\"None\",\"Down\",\"38\",\"1\",\"2\",\"10\",\"N\",\"J\",\"2\"
\"\",\"\",\"approach-retreat\",\"6\",\"235382\",\"0.0-6.0\",\"\",\"\",\"2-2\",\"6180\",\"39\",\"1\",\"Training\",\"Stims/Figures/102-C-20-4.bmp\",\"None\",\"Right\",\"39\",\"1\",\"3\",\"10\",\"N\",\"J\",\"3\"
\"\",\"\",\"approach-retreat\",\"7\",\"242380\",\"0.0-7.0\",\"\",\"\",\"2-2\",\"5489\",\"40\",\"0\",\"Training\",\"Stims/Figures/128-C-30-3.bmp\",\"None\",\"Up\",\"38\",\"1\",\"4\",\"10\",\"N\",\"J\",\"4\"
\"\",\"\",\"approach-retreat\",\"8\",\"249442\",\"0.0-8.0\",\"\",\"\",\"2-2\",\"5553\",\"40\",\"1\",\"Training\",\"Stims/Figures/84-J-0-2.bmp\",\"None\",\"Up\",\"40\",\"1\",\"5\",\"10\",\"N\",\"J\",\"5\"
\"\",\"\",\"approach-retreat\",\"9\",\"255707\",\"0.0-9.0\",\"\",\"\",\"2-2\",\"4756\",\"39\",\"1\",\"Training\",\"Stims/Figures/74-J-10-4.bmp\",\"None\",\"Left\",\"39\",\"1\",\"6\",\"10\",\"N\",\"J\",\"6\"
\"\",\"\",\"approach-retreat\",\"10\",\"261643\",\"0.0-10.0\",\"\",\"\",\"2-2\",\"4427\",\"37\",\"1\",\"Training\",\"Stims/Figures/44-J-10-3.bmp\",\"None\",\"Right\",\"37\",\"1\",\"7\",\"10\",\"N\",\"J\",\"7\"
\"\",\"\",\"approach-retreat\",\"11\",\"270947\",\"0.0-11.0\",\"\",\"\",\"2-2\",\"7794\",\"38\",\"0\",\"Training\",\"Stims/Figures/102-J-10-4.bmp\",\"None\",\"Up\",\"40\",\"1\",\"8\",\"10\",\"N\",\"J\",\"8\"
\"\",\"\",\"approach-retreat\",\"12\",\"279390\",\"0.0-12.0\",\"\",\"\",\"2-2\",\"6933\",\"39\",\"1\",\"Training\",\"Stims/Figures/71-C-30-1.bmp\",\"None\",\"Right\",\"39\",\"1\",\"9\",\"10\",\"N\",\"J\",\"9\"
\"\",\"\",\"approach-retreat\",\"13\",\"285767\",\"0.0-13.0\",\"\",\"\",\"2-2\",\"4870\",\"38\",\"1\",\"Training\",\"Stims/Figures/93-C-30-1.bmp\",\"None\",\"Up\",\"38\",\"1\",\"10\",\"10\",\"N\",\"J\",\"10\"
\"\",\"\",\"approach-retreat\",\"14\",\"293301\",\"0.0-14.0\",\"\",\"\",\"2-2\",\"6027\",\"40\",\"1\",\"Training\",\"Stims/Figures/84-C-20-2.bmp\",\"None\",\"Down\",\"40\",\"1\",\"11\",\"10\",\"N\",\"J\",\"11\"
\"\",\"\",\"approach-retreat\",\"15\",\"299805\",\"0.0-15.0\",\"\",\"\",\"2-2\",\"4994\",\"37\",\"0\",\"Training\",\"Stims/Figures/71-J-0-1.bmp\",\"None\",\"Left\",\"39\",\"1\",\"12\",\"10\",\"N\",\"J\",\"12\"
\"\",\"\",\"approach-retreat\",\"16\",\"305572\",\"0.0-16.0\",\"\",\"\",\"2-2\",\"4257\",\"39\",\"0\",\"Training\",\"Stims/Figures/85-C-20-2.bmp\",\"None\",\"Left\",\"37\",\"1\",\"13\",\"10\",\"N\",\"J\",\"13\"
\"\",\"\",\"approach-retreat\",\"17\",\"313800\",\"0.0-17.0\",\"\",\"\",\"2-2\",\"6721\",\"39\",\"0\",\"Training\",\"Stims/Figures/85-J-0-2.bmp\",\"None\",\"Right\",\"37\",\"1\",\"14\",\"10\",\"N\",\"J\",\"14\"
\"\",\"\",\"approach-retreat\",\"18\",\"321274\",\"0.0-18.0\",\"\",\"\",\"2-2\",\"5967\",\"38\",\"0\",\"Training\",\"Stims/Figures/74-C-20-4.bmp\",\"None\",\"Down\",\"40\",\"1\",\"15\",\"10\",\"N\",\"J\",\"15\"
\"\",\"\",\"approach-retreat\",\"19\",\"332498\",\"0.0-19.0\",\"\",\"\",\"2-2\",\"9714\",\"39\",\"0\",\"Training\",\"Stims/Figures/44-C-30-3.bmp\",\"None\",\"Left\",\"37\",\"1\",\"16\",\"10\",\"N\",\"J\",\"16\"
\"\",\"\",\"approach-retreat\",\"20\",\"340076\",\"0.0-20.0\",\"\",\"\",\"2-2\",\"6070\",\"37\",\"0\",\"Training\",\"Stims/Figures/71-J-0-1.bmp\",\"None\",\"Left\",\"39\",\"2\",\"1\",\"10\",\"N\",\"J\",\"17\"
\"\",\"\",\"approach-retreat\",\"21\",\"348039\",\"0.0-21.0\",\"\",\"\",\"2-2\",\"6455\",\"37\",\"0\",\"Training\",\"Stims/Figures/93-C-30-1.bmp\",\"None\",\"Right\",\"39\",\"2\",\"2\",\"10\",\"N\",\"J\",\"18\"
\"\",\"\",\"approach-retreat\",\"22\",\"354148\",\"0.0-22.0\",\"\",\"\",\"2-2\",\"4601\",\"40\",\"0\",\"Training\",\"Stims/Figures/74-C-20-4.bmp\",\"None\",\"Up\",\"38\",\"2\",\"3\",\"10\",\"N\",\"J\",\"19\"
\"\",\"\",\"approach-retreat\",\"23\",\"360834\",\"0.0-23.0\",\"\",\"\",\"2-2\",\"5178\",\"39\",\"1\",\"Training\",\"Stims/Figures/102-J-10-4.bmp\",\"None\",\"Left\",\"39\",\"2\",\"4\",\"10\",\"N\",\"J\",\"20\"
\"\",\"\",\"approach-retreat\",\"24\",\"367520\",\"0.0-24.0\",\"\",\"\",\"2-2\",\"5178\",\"40\",\"0\",\"Training\",\"Stims/Figures/71-C-30-1.bmp\",\"None\",\"Up\",\"38\",\"2\",\"5\",\"10\",\"N\",\"J\",\"21\"
\"\",\"\",\"approach-retreat\",\"25\",\"374450\",\"0.0-25.0\",\"\",\"\",\"2-2\",\"5421\",\"38\",\"1\",\"Training\",\"Stims/Figures/93-J-0-1.bmp\",\"None\",\"Down\",\"38\",\"2\",\"6\",\"10\",\"N\",\"J\",\"22\"
\"\",\"\",\"approach-retreat\",\"26\",\"380767\",\"0.0-26.0\",\"\",\"\",\"2-2\",\"4809\",\"37\",\"0\",\"Training\",\"Stims/Figures/44-C-30-3.bmp\",\"None\",\"Right\",\"39\",\"2\",\"7\",\"10\",\"N\",\"J\",\"23\"
\"\",\"\",\"approach-retreat\",\"27\",\"387553\",\"0.0-27.0\",\"\",\"\",\"2-2\",\"5278\",\"40\",\"1\",\"Training\",\"Stims/Figures/84-C-20-2.bmp\",\"None\",\"Down\",\"40\",\"2\",\"8\",\"10\",\"N\",\"J\",\"24\"
\"\",\"\",\"approach-retreat\",\"28\",\"396311\",\"0.0-28.0\",\"\",\"\",\"2-2\",\"7251\",\"37\",\"1\",\"Training\",\"Stims/Figures/128-J-10-3.bmp\",\"None\",\"Right\",\"37\",\"2\",\"9\",\"10\",\"N\",\"J\",\"25\"
\"\",\"\",\"approach-retreat\",\"29\",\"403327\",\"0.0-29.0\",\"\",\"\",\"2-2\",\"5506\",\"39\",\"1\",\"Training\",\"Stims/Figures/85-J-0-2.bmp\",\"None\",\"Left\",\"39\",\"2\",\"10\",\"10\",\"N\",\"J\",\"26\"
\"\",\"\",\"approach-retreat\",\"30\",\"409286\",\"0.0-30.0\",\"\",\"\",\"2-2\",\"4452\",\"40\",\"0\",\"Training\",\"Stims/Figures/128-C-30-3.bmp\",\"None\",\"Up\",\"38\",\"2\",\"11\",\"10\",\"N\",\"J\",\"27\"
\"\",\"\",\"approach-retreat\",\"31\",\"415171\",\"0.0-31.0\",\"\",\"\",\"2-2\",\"4376\",\"40\",\"0\",\"Training\",\"Stims/Figures/84-J-0-2.bmp\",\"None\",\"Down\",\"38\",\"2\",\"12\",\"10\",\"N\",\"J\",\"28\"
\"\",\"\",\"approach-retreat\",\"32\",\"421456\",\"0.0-32.0\",\"\",\"\",\"2-2\",\"4778\",\"38\",\"1\",\"Training\",\"Stims/Figures/74-J-10-4.bmp\",\"None\",\"Down\",\"38\",\"2\",\"13\",\"10\",\"N\",\"J\",\"29\"
\"\",\"\",\"approach-retreat\",\"33\",\"427282\",\"0.0-33.0\",\"\",\"\",\"2-2\",\"4315\",\"37\",\"0\",\"Training\",\"Stims/Figures/44-J-10-3.bmp\",\"None\",\"Left\",\"39\",\"2\",\"14\",\"10\",\"N\",\"J\",\"30\"
\"\",\"\",\"approach-retreat\",\"34\",\"433521\",\"0.0-34.0\",\"\",\"\",\"2-2\",\"4731\",\"39\",\"1\",\"Training\",\"Stims/Figures/102-C-20-4.bmp\",\"None\",\"Right\",\"39\",\"2\",\"15\",\"10\",\"N\",\"J\",\"31\"
\"\",\"\",\"approach-retreat\",\"35\",\"439883\",\"0.0-35.0\",\"\",\"\",\"2-2\",\"4854\",\"38\",\"1\",\"Training\",\"Stims/Figures/85-C-20-2.bmp\",\"None\",\"Up\",\"38\",\"2\",\"16\",\"10\",\"N\",\"J\",\"32\"
\"\",\"\",\"approach-retreat\",\"36\",\"445659\",\"0.0-36.0\",\"\",\"\",\"2-2\",\"4267\",\"37\",\"0\",\"Training\",\"Stims/Figures/44-C-30-3.bmp\",\"None\",\"Right\",\"39\",\"3\",\"1\",\"10\",\"N\",\"J\",\"33\"
\"\",\"\",\"approach-retreat\",\"37\",\"451839\",\"0.0-37.0\",\"\",\"\",\"2-2\",\"4670\",\"40\",\"0\",\"Training\",\"Stims/Figures/102-J-10-4.bmp\",\"None\",\"Down\",\"38\",\"3\",\"2\",\"10\",\"N\",\"J\",\"34\"
\"\",\"\",\"approach-retreat\",\"38\",\"458314\",\"0.0-38.0\",\"\",\"\",\"2-2\",\"4965\",\"38\",\"1\",\"Training\",\"Stims/Figures/102-C-20-4.bmp\",\"None\",\"Up\",\"38\",\"3\",\"3\",\"10\",\"N\",\"J\",\"35\"
\"\",\"\",\"approach-retreat\",\"39\",\"465322\",\"0.0-39.0\",\"\",\"\",\"2-2\",\"5500\",\"40\",\"1\",\"Training\",\"Stims/Figures/71-C-30-1.bmp\",\"None\",\"Down\",\"40\",\"3\",\"4\",\"10\",\"N\",\"J\",\"36\"
\"\",\"\",\"approach-retreat\",\"40\",\"471275\",\"0.0-40.0\",\"\",\"\",\"2-2\",\"4443\",\"38\",\"1\",\"Training\",\"Stims/Figures/74-J-10-4.bmp\",\"None\",\"Down\",\"38\",\"3\",\"5\",\"10\",\"N\",\"J\",\"37\"
\"\",\"\",\"approach-retreat\",\"41\",\"477652\",\"0.0-41.0\",\"\",\"\",\"2-2\",\"4871\",\"39\",\"1\",\"Training\",\"Stims/Figures/85-C-20-2.bmp\",\"None\",\"Right\",\"39\",\"3\",\"6\",\"10\",\"N\",\"J\",\"38\"
\"\",\"\",\"approach-retreat\",\"42\",\"483897\",\"0.0-42.0\",\"\",\"\",\"2-2\",\"4737\",\"39\",\"1\",\"Training\",\"Stims/Figures/93-C-30-1.bmp\",\"None\",\"Right\",\"39\",\"3\",\"7\",\"10\",\"N\",\"J\",\"39\"
\"\",\"\",\"approach-retreat\",\"43\",\"490062\",\"0.0-43.0\",\"\",\"\",\"2-2\",\"4655\",\"39\",\"0\",\"Training\",\"Stims/Figures/84-C-20-2.bmp\",\"None\",\"Left\",\"37\",\"3\",\"8\",\"10\",\"N\",\"J\",\"40\"
\"\",\"\",\"approach-retreat\",\"44\",\"495933\",\"0.0-44.0\",\"\",\"\",\"2-2\",\"4363\",\"39\",\"1\",\"Training\",\"Stims/Figures/93-J-0-1.bmp\",\"None\",\"Left\",\"39\",\"3\",\"9\",\"10\",\"N\",\"J\",\"41\"
\"\",\"\",\"approach-retreat\",\"45\",\"503706\",\"0.0-45.0\",\"\",\"\",\"2-2\",\"6263\",\"39\",\"0\",\"Training\",\"Stims/Figures/85-J-0-2.bmp\",\"None\",\"Right\",\"37\",\"3\",\"10\",\"10\",\"N\",\"J\",\"42\"
\"\",\"\",\"approach-retreat\",\"46\",\"509984\",\"0.0-46.0\",\"\",\"\",\"2-2\",\"4770\",\"40\",\"1\",\"Training\",\"Stims/Figures/128-J-10-3.bmp\",\"None\",\"Up\",\"40\",\"3\",\"11\",\"10\",\"N\",\"J\",\"43\"
\"\",\"\",\"approach-retreat\",\"47\",\"517726\",\"0.0-47.0\",\"\",\"\",\"2-2\",\"6235\",\"38\",\"0\",\"Training\",\"Stims/Figures/71-J-0-1.bmp\",\"None\",\"Up\",\"40\",\"3\",\"12\",\"10\",\"N\",\"J\",\"44\"
\"\",\"\",\"approach-retreat\",\"48\",\"524230\",\"0.0-48.0\",\"\",\"\",\"2-2\",\"4997\",\"40\",\"0\",\"Training\",\"Stims/Figures/74-C-20-4.bmp\",\"None\",\"Up\",\"38\",\"3\",\"13\",\"10\",\"N\",\"J\",\"45\"
\"\",\"\",\"approach-retreat\",\"49\",\"530297\",\"0.0-49.0\",\"\",\"\",\"2-2\",\"4558\",\"37\",\"1\",\"Training\",\"Stims/Figures/128-C-30-3.bmp\",\"None\",\"Left\",\"37\",\"3\",\"14\",\"10\",\"N\",\"J\",\"46\"
\"\",\"\",\"approach-retreat\",\"50\",\"536668\",\"0.0-50.0\",\"\",\"\",\"2-2\",\"4863\",\"40\",\"0\",\"Training\",\"Stims/Figures/44-J-10-3.bmp\",\"None\",\"Down\",\"38\",\"3\",\"15\",\"10\",\"N\",\"J\",\"47\"
\"\",\"\",\"approach-retreat\",\"51\",\"544834\",\"0.0-51.0\",\"\",\"\",\"2-2\",\"6657\",\"37\",\"0\",\"Training\",\"Stims/Figures/84-J-0-2.bmp\",\"None\",\"Left\",\"39\",\"3\",\"16\",\"10\",\"N\",\"J\",\"48\"
\"\",\"\",\"approach-retreat\",\"52\",\"554404\",\"0.0-52.0\",\"\",\"\",\"2-2\",\"8065\",\"38\",\"1\",\"Training\",\"Stims/Figures/102-C-20-4.bmp\",\"None\",\"Up\",\"38\",\"4\",\"1\",\"10\",\"N\",\"J\",\"49\"
\"\",\"\",\"approach-retreat\",\"53\",\"562103\",\"0.0-53.0\",\"\",\"\",\"2-2\",\"6190\",\"38\",\"1\",\"Training\",\"Stims/Figures/44-J-10-3.bmp\",\"None\",\"Down\",\"38\",\"4\",\"2\",\"10\",\"N\",\"J\",\"50\"
\"\",\"\",\"approach-retreat\",\"54\",\"568563\",\"0.0-54.0\",\"\",\"\",\"2-2\",\"4949\",\"38\",\"1\",\"Training\",\"Stims/Figures/71-C-30-1.bmp\",\"None\",\"Up\",\"38\",\"4\",\"3\",\"10\",\"N\",\"J\",\"51\"
\"\",\"\",\"approach-retreat\",\"55\",\"574759\",\"0.0-55.0\",\"\",\"\",\"2-2\",\"4688\",\"39\",\"0\",\"Training\",\"Stims/Figures/44-C-30-3.bmp\",\"None\",\"Left\",\"37\",\"4\",\"4\",\"10\",\"N\",\"J\",\"52\"
\"\",\"\",\"approach-retreat\",\"56\",\"581003\",\"0.0-56.0\",\"\",\"\",\"2-2\",\"4736\",\"38\",\"1\",\"Training\",\"Stims/Figures/74-C-20-4.bmp\",\"None\",\"Up\",\"38\",\"4\",\"5\",\"10\",\"N\",\"J\",\"53\"
\"\",\"\",\"approach-retreat\",\"57\",\"587157\",\"0.0-57.0\",\"\",\"\",\"2-2\",\"4645\",\"38\",\"0\",\"Training\",\"Stims/Figures/128-C-30-3.bmp\",\"None\",\"Down\",\"40\",\"4\",\"6\",\"10\",\"N\",\"J\",\"54\"
\"\",\"\",\"approach-retreat\",\"58\",\"592952\",\"0.0-58.0\",\"\",\"\",\"2-2\",\"4286\",\"38\",\"0\",\"Training\",\"Stims/Figures/84-C-20-2.bmp\",\"None\",\"Down\",\"40\",\"4\",\"7\",\"10\",\"N\",\"J\",\"55\"
\"\",\"\",\"approach-retreat\",\"59\",\"598999\",\"0.0-59.0\",\"\",\"\",\"2-2\",\"4539\",\"39\",\"1\",\"Training\",\"Stims/Figures/128-J-10-3.bmp\",\"None\",\"Left\",\"39\",\"4\",\"8\",\"10\",\"N\",\"J\",\"56\"
\"\",\"\",\"approach-retreat\",\"60\",\"605104\",\"0.0-60.0\",\"\",\"\",\"2-2\",\"4599\",\"39\",\"1\",\"Training\",\"Stims/Figures/85-C-20-2.bmp\",\"None\",\"Right\",\"39\",\"4\",\"9\",\"10\",\"N\",\"J\",\"57\"
\"\",\"\",\"approach-retreat\",\"61\",\"611500\",\"0.0-61.0\",\"\",\"\",\"2-2\",\"4887\",\"37\",\"1\",\"Training\",\"Stims/Figures/85-J-0-2.bmp\",\"None\",\"Right\",\"37\",\"4\",\"10\",\"10\",\"N\",\"J\",\"58\"
\"\",\"\",\"approach-retreat\",\"62\",\"617711\",\"0.0-62.0\",\"\",\"\",\"2-2\",\"4703\",\"40\",\"0\",\"Training\",\"Stims/Figures/74-J-10-4.bmp\",\"None\",\"Down\",\"38\",\"4\",\"11\",\"10\",\"N\",\"J\",\"59\"
\"\",\"\",\"approach-retreat\",\"63\",\"627796\",\"0.0-63.0\",\"\",\"\",\"2-2\",\"8577\",\"37\",\"1\",\"Training\",\"Stims/Figures/93-C-30-1.bmp\",\"None\",\"Left\",\"37\",\"4\",\"12\",\"10\",\"N\",\"J\",\"60\"
\"\",\"\",\"approach-retreat\",\"64\",\"633554\",\"0.0-64.0\",\"\",\"\",\"2-2\",\"4249\",\"39\",\"0\",\"Training\",\"Stims/Figures/71-J-0-1.bmp\",\"None\",\"Right\",\"37\",\"4\",\"13\",\"10\",\"N\",\"J\",\"61\"
\"\",\"\",\"approach-retreat\",\"65\",\"639051\",\"0.0-65.0\",\"\",\"\",\"2-2\",\"3989\",\"39\",\"0\",\"Training\",\"Stims/Figures/93-J-0-1.bmp\",\"None\",\"Right\",\"37\",\"4\",\"14\",\"10\",\"N\",\"J\",\"62\"
\"\",\"\",\"approach-retreat\",\"66\",\"645177\",\"0.0-66.0\",\"\",\"\",\"2-2\",\"4617\",\"37\",\"0\",\"Training\",\"Stims/Figures/102-J-10-4.bmp\",\"None\",\"Left\",\"39\",\"4\",\"15\",\"10\",\"N\",\"J\",\"63\"
\"\",\"\",\"approach-retreat\",\"67\",\"651668\",\"0.0-67.0\",\"\",\"\",\"2-2\",\"4984\",\"40\",\"1\",\"Training\",\"Stims/Figures/84-J-0-2.bmp\",\"None\",\"Up\",\"40\",\"4\",\"16\",\"10\",\"N\",\"J\",\"64\"
\"\",\"\",\"approach-retreat\",\"68\",\"657359\",\"0.0-68.0\",\"\",\"\",\"2-2\",\"4181\",\"40\",\"0\",\"Training\",\"Stims/Figures/93-C-30-1.bmp\",\"None\",\"Up\",\"38\",\"5\",\"1\",\"10\",\"N\",\"J\",\"65\"
\"\",\"\",\"approach-retreat\",\"69\",\"664062\",\"0.0-69.0\",\"\",\"\",\"2-2\",\"5196\",\"37\",\"0\",\"Training\",\"Stims/Figures/102-J-10-4.bmp\",\"None\",\"Left\",\"39\",\"5\",\"2\",\"10\",\"N\",\"J\",\"66\"
\"\",\"\",\"approach-retreat\",\"70\",\"670379\",\"0.0-70.0\",\"\",\"\",\"2-2\",\"4808\",\"38\",\"0\",\"Training\",\"Stims/Figures/102-C-20-4.bmp\",\"None\",\"Down\",\"40\",\"5\",\"3\",\"10\",\"N\",\"J\",\"67\"
\"\",\"\",\"approach-retreat\",\"71\",\"676424\",\"0.0-71.0\",\"\",\"\",\"2-2\",\"4536\",\"38\",\"0\",\"Training\",\"Stims/Figures/74-J-10-4.bmp\",\"None\",\"Up\",\"40\",\"5\",\"4\",\"10\",\"N\",\"J\",\"68\"
\"\",\"\",\"approach-retreat\",\"72\",\"688691\",\"0.0-72.0\",\"\",\"\",\"2-2\",\"10759\",\"38\",\"0\",\"Training\",\"Stims/Figures/44-C-30-3.bmp\",\"None\",\"Down\",\"40\",\"5\",\"5\",\"10\",\"N\",\"J\",\"69\"
\"\",\"\",\"approach-retreat\",\"73\",\"694505\",\"0.0-73.0\",\"\",\"\",\"2-2\",\"4305\",\"38\",\"0\",\"Training\",\"Stims/Figures/74-C-20-4.bmp\",\"None\",\"Down\",\"40\",\"5\",\"6\",\"10\",\"N\",\"J\",\"70\"
\"\",\"\",\"approach-retreat\",\"74\",\"700475\",\"0.0-74.0\",\"\",\"\",\"2-2\",\"4460\",\"37\",\"1\",\"Training\",\"Stims/Figures/128-C-30-3.bmp\",\"None\",\"Left\",\"37\",\"5\",\"7\",\"10\",\"N\",\"J\",\"71\"
\"\",\"\",\"approach-retreat\",\"75\",\"706250\",\"0.0-75.0\",\"\",\"\",\"2-2\",\"4267\",\"40\",\"1\",\"Training\",\"Stims/Figures/128-J-10-3.bmp\",\"None\",\"Up\",\"40\",\"5\",\"8\",\"10\",\"N\",\"J\",\"72\"
\"\",\"\",\"approach-retreat\",\"76\",\"711940\",\"0.0-76.0\",\"\",\"\",\"2-2\",\"4182\",\"39\",\"1\",\"Training\",\"Stims/Figures/93-J-0-1.bmp\",\"None\",\"Left\",\"39\",\"5\",\"9\",\"10\",\"N\",\"J\",\"73\"
\"\",\"\",\"approach-retreat\",\"77\",\"718271\",\"0.0-77.0\",\"\",\"\",\"2-2\",\"4821\",\"39\",\"0\",\"Training\",\"Stims/Figures/84-J-0-2.bmp\",\"None\",\"Right\",\"37\",\"5\",\"10\",\"10\",\"N\",\"J\",\"74\"
\"\",\"\",\"approach-retreat\",\"78\",\"723893\",\"0.0-78.0\",\"\",\"\",\"2-2\",\"4115\",\"39\",\"1\",\"Training\",\"Stims/Figures/85-C-20-2.bmp\",\"None\",\"Right\",\"39\",\"5\",\"11\",\"10\",\"N\",\"J\",\"75\"
\"\",\"\",\"approach-retreat\",\"79\",\"729710\",\"0.0-79.0\",\"\",\"\",\"2-2\",\"4310\",\"39\",\"1\",\"Training\",\"Stims/Figures/71-J-0-1.bmp\",\"None\",\"Left\",\"39\",\"5\",\"12\",\"10\",\"N\",\"J\",\"76\"
\"\",\"\",\"approach-retreat\",\"80\",\"735965\",\"0.0-80.0\",\"\",\"\",\"2-2\",\"4744\",\"38\",\"0\",\"Training\",\"Stims/Figures/44-J-10-3.bmp\",\"None\",\"Up\",\"40\",\"5\",\"13\",\"10\",\"N\",\"J\",\"77\"
\"\",\"\",\"approach-retreat\",\"81\",\"741536\",\"0.0-81.0\",\"\",\"\",\"2-2\",\"4060\",\"37\",\"1\",\"Training\",\"Stims/Figures/85-J-0-2.bmp\",\"None\",\"Right\",\"37\",\"5\",\"14\",\"10\",\"N\",\"J\",\"78\"
\"\",\"\",\"approach-retreat\",\"82\",\"748695\",\"0.0-82.0\",\"\",\"\",\"2-2\",\"5652\",\"39\",\"1\",\"Training\",\"Stims/Figures/71-C-30-1.bmp\",\"None\",\"Right\",\"39\",\"5\",\"15\",\"10\",\"N\",\"J\",\"79\"
\"\",\"\",\"approach-retreat\",\"83\",\"755606\",\"0.0-83.0\",\"\",\"\",\"2-2\",\"5402\",\"40\",\"1\",\"Training\",\"Stims/Figures/84-C-20-2.bmp\",\"None\",\"Down\",\"40\",\"5\",\"16\",\"10\",\"N\",\"J\",\"80\"
\"\",\"\",\"approach-retreat\",\"84\",\"761468\",\"0.0-84.0\",\"\",\"\",\"2-2\",\"4356\",\"39\",\"1\",\"Training\",\"Stims/Figures/128-C-30-3.bmp\",\"None\",\"Right\",\"39\",\"6\",\"1\",\"10\",\"N\",\"J\",\"81\"
\"\",\"\",\"approach-retreat\",\"85\",\"767837\",\"0.0-85.0\",\"\",\"\",\"2-2\",\"4861\",\"40\",\"1\",\"Training\",\"Stims/Figures/85-J-0-2.bmp\",\"None\",\"Up\",\"40\",\"6\",\"2\",\"10\",\"N\",\"J\",\"82\"
\"\",\"\",\"approach-retreat\",\"86\",\"774554\",\"0.0-86.0\",\"\",\"\",\"2-2\",\"5208\",\"40\",\"1\",\"Training\",\"Stims/Figures/74-C-20-4.bmp\",\"None\",\"Down\",\"40\",\"6\",\"3\",\"10\",\"N\",\"J\",\"83\"
\"\",\"\",\"approach-retreat\",\"87\",\"781577\",\"0.0-87.0\",\"\",\"\",\"2-2\",\"5514\",\"40\",\"0\",\"Training\",\"Stims/Figures/71-C-30-1.bmp\",\"None\",\"Up\",\"38\",\"6\",\"4\",\"10\",\"N\",\"J\",\"84\"
\"\",\"\",\"approach-retreat\",\"88\",\"787444\",\"0.0-88.0\",\"\",\"\",\"2-2\",\"4358\",\"39\",\"0\",\"Training\",\"Stims/Figures/44-C-30-3.bmp\",\"None\",\"Left\",\"37\",\"6\",\"5\",\"10\",\"N\",\"J\",\"85\"
\"\",\"\",\"approach-retreat\",\"89\",\"793202\",\"0.0-89.0\",\"\",\"\",\"2-2\",\"4252\",\"38\",\"1\",\"Training\",\"Stims/Figures/128-J-10-3.bmp\",\"None\",\"Down\",\"38\",\"6\",\"6\",\"10\",\"N\",\"J\",\"86\"
\"\",\"\",\"approach-retreat\",\"90\",\"799536\",\"0.0-90.0\",\"\",\"\",\"2-2\",\"4826\",\"38\",\"1\",\"Training\",\"Stims/Figures/84-C-20-2.bmp\",\"None\",\"Up\",\"38\",\"6\",\"7\",\"10\",\"N\",\"J\",\"87\"
\"\",\"\",\"approach-retreat\",\"91\",\"807009\",\"0.0-91.0\",\"\",\"\",\"2-2\",\"5964\",\"37\",\"0\",\"Training\",\"Stims/Figures/102-C-20-4.bmp\",\"None\",\"Right\",\"39\",\"6\",\"8\",\"10\",\"N\",\"J\",\"88\"
\"\",\"\",\"approach-retreat\",\"92\",\"812702\",\"0.0-92.0\",\"\",\"\",\"2-2\",\"4186\",\"37\",\"0\",\"Training\",\"Stims/Figures/44-J-10-3.bmp\",\"None\",\"Left\",\"39\",\"6\",\"9\",\"10\",\"N\",\"J\",\"89\"
\"\",\"\",\"approach-retreat\",\"93\",\"819295\",\"0.0-93.0\",\"\",\"\",\"2-2\",\"5085\",\"37\",\"1\",\"Training\",\"Stims/Figures/93-J-0-1.bmp\",\"None\",\"Right\",\"37\",\"6\",\"10\",\"10\",\"N\",\"J\",\"90\"
\"\",\"\",\"approach-retreat\",\"94\",\"824934\",\"0.0-94.0\",\"\",\"\",\"2-2\",\"4129\",\"37\",\"0\",\"Training\",\"Stims/Figures/93-C-30-1.bmp\",\"None\",\"Right\",\"39\",\"6\",\"11\",\"10\",\"N\",\"J\",\"91\"
\"\",\"\",\"approach-retreat\",\"95\",\"831029\",\"0.0-95.0\",\"\",\"\",\"2-2\",\"4588\",\"39\",\"1\",\"Training\",\"Stims/Figures/71-J-0-1.bmp\",\"None\",\"Left\",\"39\",\"6\",\"12\",\"10\",\"N\",\"J\",\"92\"
\"\",\"\",\"approach-retreat\",\"96\",\"836673\",\"0.0-96.0\",\"\",\"\",\"2-2\",\"4136\",\"40\",\"0\",\"Training\",\"Stims/Figures/74-J-10-4.bmp\",\"None\",\"Down\",\"38\",\"6\",\"13\",\"10\",\"N\",\"J\",\"93\"
\"\",\"\",\"approach-retreat\",\"97\",\"842589\",\"0.0-97.0\",\"\",\"\",\"2-2\",\"4406\",\"40\",\"1\",\"Training\",\"Stims/Figures/85-C-20-2.bmp\",\"None\",\"Down\",\"40\",\"6\",\"14\",\"10\",\"N\",\"J\",\"94\"
\"\",\"\",\"approach-retreat\",\"98\",\"849705\",\"0.0-98.0\",\"\",\"\",\"2-2\",\"5609\",\"38\",\"0\",\"Training\",\"Stims/Figures/102-J-10-4.bmp\",\"None\",\"Up\",\"40\",\"6\",\"15\",\"10\",\"N\",\"J\",\"95\"
\"\",\"\",\"approach-retreat\",\"99\",\"855430\",\"0.0-99.0\",\"\",\"\",\"2-2\",\"4216\",\"37\",\"0\",\"Training\",\"Stims/Figures/84-J-0-2.bmp\",\"None\",\"Left\",\"39\",\"6\",\"16\",\"10\",\"N\",\"J\",\"96\"
\"\",\"\",\"approach-retreat\",\"100\",\"861095\",\"0.0-100.0\",\"\",\"\",\"2-2\",\"4157\",\"39\",\"1\",\"Training\",\"Stims/Figures/93-J-0-1.bmp\",\"None\",\"Left\",\"39\",\"7\",\"1\",\"10\",\"N\",\"J\",\"97\"
\"\",\"\",\"approach-retreat\",\"101\",\"866891\",\"0.0-101.0\",\"\",\"\",\"2-2\",\"4288\",\"40\",\"0\",\"Training\",\"Stims/Figures/71-C-30-1.bmp\",\"None\",\"Up\",\"38\",\"7\",\"2\",\"10\",\"N\",\"J\",\"98\"
\"\",\"\",\"approach-retreat\",\"102\",\"874207\",\"0.0-102.0\",\"\",\"\",\"2-2\",\"5806\",\"37\",\"0\",\"Training\",\"Stims/Figures/93-C-30-1.bmp\",\"None\",\"Right\",\"39\",\"7\",\"3\",\"10\",\"N\",\"J\",\"99\"
\"\",\"\",\"approach-retreat\",\"103\",\"880839\",\"0.0-103.0\",\"\",\"\",\"2-2\",\"5122\",\"40\",\"1\",\"Training\",\"Stims/Figures/84-J-0-2.bmp\",\"None\",\"Up\",\"40\",\"7\",\"4\",\"10\",\"N\",\"J\",\"100\"
\"\",\"\",\"approach-retreat\",\"104\",\"887219\",\"0.0-104.0\",\"\",\"\",\"2-2\",\"4872\",\"40\",\"1\",\"Training\",\"Stims/Figures/74-J-10-4.bmp\",\"None\",\"Up\",\"40\",\"7\",\"5\",\"10\",\"N\",\"J\",\"101\"
\"\",\"\",\"approach-retreat\",\"105\",\"893638\",\"0.0-105.0\",\"\",\"\",\"2-2\",\"4911\",\"39\",\"0\",\"Training\",\"Stims/Figures/85-J-0-2.bmp\",\"None\",\"Right\",\"37\",\"7\",\"6\",\"10\",\"N\",\"J\",\"102\"
\"\",\"\",\"approach-retreat\",\"106\",\"900602\",\"0.0-106.0\",\"\",\"\",\"2-2\",\"5457\",\"39\",\"1\",\"Training\",\"Stims/Figures/102-J-10-4.bmp\",\"None\",\"Left\",\"39\",\"7\",\"7\",\"10\",\"N\",\"J\",\"103\"
\"\",\"\",\"approach-retreat\",\"107\",\"906519\",\"0.0-107.0\",\"\",\"\",\"2-2\",\"4407\",\"40\",\"1\",\"Training\",\"Stims/Figures/84-C-20-2.bmp\",\"None\",\"Down\",\"40\",\"7\",\"8\",\"10\",\"N\",\"J\",\"104\"
\"\",\"\",\"approach-retreat\",\"108\",\"912536\",\"0.0-108.0\",\"\",\"\",\"2-2\",\"4510\",\"37\",\"1\",\"Training\",\"Stims/Figures/85-C-20-2.bmp\",\"None\",\"Left\",\"37\",\"7\",\"9\",\"10\",\"N\",\"J\",\"105\"
\"\",\"\",\"approach-retreat\",\"109\",\"918381\",\"0.0-109.0\",\"\",\"\",\"2-2\",\"4336\",\"39\",\"1\",\"Training\",\"Stims/Figures/44-C-30-3.bmp\",\"None\",\"Right\",\"39\",\"7\",\"10\",\"10\",\"N\",\"J\",\"106\"
\"\",\"\",\"approach-retreat\",\"110\",\"924327\",\"0.0-110.0\",\"\",\"\",\"2-2\",\"4437\",\"38\",\"1\",\"Training\",\"Stims/Figures/74-C-20-4.bmp\",\"None\",\"Up\",\"38\",\"7\",\"11\",\"10\",\"N\",\"J\",\"107\"
\"\",\"\",\"approach-retreat\",\"111\",\"930138\",\"0.0-111.0\",\"\",\"\",\"2-2\",\"4304\",\"37\",\"1\",\"Training\",\"Stims/Figures/128-C-30-3.bmp\",\"None\",\"Left\",\"37\",\"7\",\"12\",\"10\",\"N\",\"J\",\"108\"
\"\",\"\",\"approach-retreat\",\"112\",\"936129\",\"0.0-112.0\",\"\",\"\",\"2-2\",\"4483\",\"37\",\"0\",\"Training\",\"Stims/Figures/102-C-20-4.bmp\",\"None\",\"Right\",\"39\",\"7\",\"13\",\"10\",\"N\",\"J\",\"109\"
\"\",\"\",\"approach-retreat\",\"113\",\"942448\",\"0.0-113.0\",\"\",\"\",\"2-2\",\"4810\",\"38\",\"1\",\"Training\",\"Stims/Figures/44-J-10-3.bmp\",\"None\",\"Down\",\"38\",\"7\",\"14\",\"10\",\"N\",\"J\",\"110\"
\"\",\"\",\"approach-retreat\",\"114\",\"948403\",\"0.0-114.0\",\"\",\"\",\"2-2\",\"4445\",\"38\",\"1\",\"Training\",\"Stims/Figures/128-J-10-3.bmp\",\"None\",\"Down\",\"38\",\"7\",\"15\",\"10\",\"N\",\"J\",\"111\"
\"\",\"\",\"approach-retreat\",\"115\",\"954074\",\"0.0-115.0\",\"\",\"\",\"2-2\",\"4162\",\"38\",\"1\",\"Training\",\"Stims/Figures/71-J-0-1.bmp\",\"None\",\"Down\",\"38\",\"7\",\"16\",\"10\",\"N\",\"J\",\"112\"
\"\",\"\",\"approach-retreat\",\"116\",\"960042\",\"0.0-116.0\",\"\",\"\",\"2-2\",\"4460\",\"40\",\"1\",\"Training\",\"Stims/Figures/74-C-20-4.bmp\",\"None\",\"Down\",\"40\",\"8\",\"1\",\"10\",\"N\",\"J\",\"113\"
\"\",\"\",\"approach-retreat\",\"117\",\"966121\",\"0.0-117.0\",\"\",\"\",\"2-2\",\"4570\",\"39\",\"1\",\"Training\",\"Stims/Figures/84-C-20-2.bmp\",\"None\",\"Right\",\"39\",\"8\",\"2\",\"10\",\"N\",\"J\",\"114\"
\"\",\"\",\"approach-retreat\",\"118\",\"971853\",\"0.0-118.0\",\"\",\"\",\"2-2\",\"4224\",\"37\",\"1\",\"Training\",\"Stims/Figures/71-J-0-1.bmp\",\"None\",\"Right\",\"37\",\"8\",\"3\",\"10\",\"N\",\"J\",\"115\"
\"\",\"\",\"approach-retreat\",\"119\",\"978170\",\"0.0-119.0\",\"\",\"\",\"2-2\",\"4809\",\"38\",\"1\",\"Training\",\"Stims/Figures/102-C-20-4.bmp\",\"None\",\"Up\",\"38\",\"8\",\"4\",\"10\",\"N\",\"J\",\"116\"
\"\",\"\",\"approach-retreat\",\"120\",\"983847\",\"0.0-120.0\",\"\",\"\",\"2-2\",\"4168\",\"39\",\"1\",\"Training\",\"Stims/Figures/74-J-10-4.bmp\",\"None\",\"Left\",\"39\",\"8\",\"5\",\"10\",\"N\",\"J\",\"117\"
\"\",\"\",\"approach-retreat\",\"121\",\"989561\",\"0.0-121.0\",\"\",\"\",\"2-2\",\"4205\",\"37\",\"1\",\"Training\",\"Stims/Figures/128-J-10-3.bmp\",\"None\",\"Right\",\"37\",\"8\",\"6\",\"10\",\"N\",\"J\",\"118\"
\"\",\"\",\"approach-retreat\",\"122\",\"995106\",\"0.0-122.0\",\"\",\"\",\"2-2\",\"4037\",\"39\",\"1\",\"Training\",\"Stims/Figures/85-C-20-2.bmp\",\"None\",\"Right\",\"39\",\"8\",\"7\",\"10\",\"N\",\"J\",\"119\"
\"\",\"\",\"approach-retreat\",\"123\",\"1001186\",\"0.0-123.0\",\"\",\"\",\"2-2\",\"4572\",\"40\",\"1\",\"Training\",\"Stims/Figures/71-C-30-1.bmp\",\"None\",\"Down\",\"40\",\"8\",\"8\",\"10\",\"N\",\"J\",\"120\"
\"\",\"\",\"approach-retreat\",\"124\",\"1007289\",\"0.0-124.0\",\"\",\"\",\"2-2\",\"4595\",\"40\",\"1\",\"Training\",\"Stims/Figures/44-C-30-3.bmp\",\"None\",\"Down\",\"40\",\"8\",\"9\",\"10\",\"N\",\"J\",\"121\"
\"\",\"\",\"approach-retreat\",\"125\",\"1013343\",\"0.0-125.0\",\"\",\"\",\"2-2\",\"4548\",\"40\",\"1\",\"Training\",\"Stims/Figures/128-C-30-3.bmp\",\"None\",\"Down\",\"40\",\"8\",\"10\",\"10\",\"N\",\"J\",\"122\"
\"\",\"\",\"approach-retreat\",\"126\",\"1018875\",\"0.0-126.0\",\"\",\"\",\"2-2\",\"4023\",\"39\",\"1\",\"Training\",\"Stims/Figures/84-J-0-2.bmp\",\"None\",\"Left\",\"39\",\"8\",\"11\",\"10\",\"N\",\"J\",\"123\"
\"\",\"\",\"approach-retreat\",\"127\",\"1024624\",\"0.0-127.0\",\"\",\"\",\"2-2\",\"4240\",\"40\",\"1\",\"Training\",\"Stims/Figures/93-J-0-1.bmp\",\"None\",\"Up\",\"40\",\"8\",\"12\",\"10\",\"N\",\"J\",\"124\"
\"\",\"\",\"approach-retreat\",\"128\",\"1030290\",\"0.0-128.0\",\"\",\"\",\"2-2\",\"4157\",\"40\",\"1\",\"Training\",\"Stims/Figures/44-J-10-3.bmp\",\"None\",\"Up\",\"40\",\"8\",\"13\",\"10\",\"N\",\"J\",\"125\"
\"\",\"\",\"approach-retreat\",\"129\",\"1036053\",\"0.0-129.0\",\"\",\"\",\"2-2\",\"4254\",\"39\",\"1\",\"Training\",\"Stims/Figures/85-J-0-2.bmp\",\"None\",\"Left\",\"39\",\"8\",\"14\",\"10\",\"N\",\"J\",\"126\"
\"\",\"\",\"approach-retreat\",\"130\",\"1041746\",\"0.0-130.0\",\"\",\"\",\"2-2\",\"4185\",\"40\",\"1\",\"Training\",\"Stims/Figures/102-J-10-4.bmp\",\"None\",\"Up\",\"40\",\"8\",\"15\",\"10\",\"N\",\"J\",\"127\"
\"\",\"\",\"approach-retreat\",\"131\",\"1047336\",\"0.0-131.0\",\"\",\"\",\"2-2\",\"4079\",\"39\",\"0\",\"Training\",\"Stims/Figures/93-C-30-1.bmp\",\"None\",\"Left\",\"37\",\"8\",\"16\",\"10\",\"N\",\"J\",\"128\"
\"\",\"\",\"approach-retreat\",\"132\",\"1053306\",\"0.0-132.0\",\"\",\"\",\"2-2\",\"4463\",\"39\",\"1\",\"Training\",\"Stims/Figures/93-C-30-1.bmp\",\"None\",\"Right\",\"39\",\"9\",\"1\",\"10\",\"N\",\"J\",\"129\"
\"\",\"\",\"approach-retreat\",\"133\",\"1059733\",\"0.0-133.0\",\"\",\"\",\"2-2\",\"4919\",\"38\",\"1\",\"Training\",\"Stims/Figures/71-C-30-1.bmp\",\"None\",\"Up\",\"38\",\"9\",\"2\",\"10\",\"N\",\"J\",\"130\"
\"\",\"\",\"approach-retreat\",\"134\",\"1066029\",\"0.0-134.0\",\"\",\"\",\"2-2\",\"4785\",\"39\",\"1\",\"Training\",\"Stims/Figures/71-J-0-1.bmp\",\"None\",\"Left\",\"39\",\"9\",\"3\",\"10\",\"N\",\"J\",\"131\"
\"\",\"\",\"approach-retreat\",\"135\",\"1072479\",\"0.0-135.0\",\"\",\"\",\"2-2\",\"4942\",\"37\",\"1\",\"Training\",\"Stims/Figures/93-J-0-1.bmp\",\"None\",\"Right\",\"37\",\"9\",\"4\",\"10\",\"N\",\"J\",\"132\"
\"\",\"\",\"approach-retreat\",\"136\",\"1078167\",\"0.0-136.0\",\"\",\"\",\"2-2\",\"4179\",\"39\",\"1\",\"Training\",\"Stims/Figures/84-J-0-2.bmp\",\"None\",\"Left\",\"39\",\"9\",\"5\",\"10\",\"N\",\"J\",\"133\"
\"\",\"\",\"approach-retreat\",\"137\",\"1084735\",\"0.0-137.0\",\"\",\"\",\"2-2\",\"5061\",\"39\",\"1\",\"Training\",\"Stims/Figures/44-J-10-3.bmp\",\"None\",\"Left\",\"39\",\"9\",\"6\",\"10\",\"N\",\"J\",\"134\"
\"\",\"\",\"approach-retreat\",\"138\",\"1091728\",\"0.0-138.0\",\"\",\"\",\"2-2\",\"5485\",\"38\",\"1\",\"Training\",\"Stims/Figures/85-J-0-2.bmp\",\"None\",\"Down\",\"38\",\"9\",\"7\",\"10\",\"N\",\"J\",\"135\"
\"\",\"\",\"approach-retreat\",\"139\",\"1100012\",\"0.0-139.0\",\"\",\"\",\"2-2\",\"6776\",\"40\",\"1\",\"Training\",\"Stims/Figures/128-J-10-3.bmp\",\"None\",\"Up\",\"40\",\"9\",\"8\",\"10\",\"N\",\"J\",\"136\"
\"\",\"\",\"approach-retreat\",\"140\",\"1105880\",\"0.0-140.0\",\"\",\"\",\"2-2\",\"4359\",\"37\",\"1\",\"Training\",\"Stims/Figures/84-C-20-2.bmp\",\"None\",\"Left\",\"37\",\"9\",\"9\",\"10\",\"N\",\"J\",\"137\"
\"\",\"\",\"approach-retreat\",\"141\",\"1111808\",\"0.0-141.0\",\"\",\"\",\"2-2\",\"4419\",\"39\",\"1\",\"Training\",\"Stims/Figures/44-C-30-3.bmp\",\"None\",\"Right\",\"39\",\"9\",\"10\",\"10\",\"N\",\"J\",\"138\"
\"\",\"\",\"approach-retreat\",\"142\",\"1117446\",\"0.0-142.0\",\"\",\"\",\"2-2\",\"4130\",\"40\",\"1\",\"Training\",\"Stims/Figures/102-C-20-4.bmp\",\"None\",\"Down\",\"40\",\"9\",\"11\",\"10\",\"N\",\"J\",\"139\"
\"\",\"\",\"approach-retreat\",\"143\",\"1123544\",\"0.0-143.0\",\"\",\"\",\"2-2\",\"4591\",\"38\",\"1\",\"Training\",\"Stims/Figures/128-C-30-3.bmp\",\"None\",\"Up\",\"38\",\"9\",\"12\",\"10\",\"N\",\"J\",\"140\"
\"\",\"\",\"approach-retreat\",\"144\",\"1129261\",\"0.0-144.0\",\"\",\"\",\"2-2\",\"4210\",\"40\",\"0\",\"Training\",\"Stims/Figures/102-J-10-4.bmp\",\"None\",\"Down\",\"38\",\"9\",\"13\",\"10\",\"N\",\"J\",\"141\"
\"\",\"\",\"approach-retreat\",\"145\",\"1135085\",\"0.0-145.0\",\"\",\"\",\"2-2\",\"4317\",\"39\",\"1\",\"Training\",\"Stims/Figures/85-C-20-2.bmp\",\"None\",\"Right\",\"39\",\"9\",\"14\",\"10\",\"N\",\"J\",\"142\"
\"\",\"\",\"approach-retreat\",\"146\",\"1141638\",\"0.0-146.0\",\"\",\"\",\"2-2\",\"5045\",\"40\",\"1\",\"Training\",\"Stims/Figures/74-J-10-4.bmp\",\"None\",\"Up\",\"40\",\"9\",\"15\",\"10\",\"N\",\"J\",\"143\"
\"\",\"\",\"approach-retreat\",\"147\",\"1147522\",\"0.0-147.0\",\"\",\"\",\"2-2\",\"4378\",\"40\",\"1\",\"Training\",\"Stims/Figures/74-C-20-4.bmp\",\"None\",\"Down\",\"40\",\"9\",\"16\",\"10\",\"N\",\"J\",\"144\"
\"20372\",\"\",\"instructions\",\"148\",\"1167894\",\"0.0-148.0\",\"[{\"\"page_index\"\":0,\"\"viewing_time\"\":20371}]\",\"\",\"\",\"\",\"\",\"\",\"\",\"\",\"\",\"\",\"\",\"\",\"\",\"\",\"\",\"\",\"\"
\"\",\"\",\"approach-retreat\",\"149\",\"1174043\",\"0.0-149.0\",\"\",\"\",\"2-2\",\"4641\",\"37\",\"1\",\"Testing\",\"Stims/Figures/57-J-0-1.bmp\",\"None\",\"Right\",\"37\",\"1\",\"1\",\"10\",\"N\",\"J\",\"1\"
\"\",\"\",\"approach-retreat\",\"150\",\"1180110\",\"0.0-150.0\",\"\",\"\",\"2-2\",\"4562\",\"39\",\"1\",\"Testing\",\"Stims/Figures/84-J-0-2.bmp\",\"None\",\"Left\",\"39\",\"1\",\"2\",\"10\",\"N\",\"J\",\"2\"
\"\",\"\",\"approach-retreat\",\"151\",\"1186461\",\"0.0-151.0\",\"\",\"\",\"2-2\",\"4842\",\"39\",\"0\",\"Testing\",\"Stims/Figures/87-J-10-4.bmp\",\"None\",\"Right\",\"37\",\"1\",\"3\",\"10\",\"N\",\"J\",\"3\"
\"\",\"\",\"approach-retreat\",\"152\",\"1192513\",\"0.0-152.0\",\"\",\"\",\"2-2\",\"4542\",\"40\",\"1\",\"Testing\",\"Stims/Figures/71-J-0-1.bmp\",\"None\",\"Up\",\"40\",\"1\",\"4\",\"10\",\"N\",\"J\",\"4\"
\"\",\"\",\"approach-retreat\",\"153\",\"1198670\",\"0.0-153.0\",\"\",\"\",\"2-2\",\"4649\",\"38\",\"1\",\"Testing\",\"Stims/Figures/100-C-30-3.bmp\",\"None\",\"Up\",\"38\",\"1\",\"5\",\"10\",\"N\",\"J\",\"5\"
\"\",\"\",\"approach-retreat\",\"154\",\"1204402\",\"0.0-154.0\",\"\",\"\",\"2-2\",\"4221\",\"39\",\"1\",\"Testing\",\"Stims/Figures/128-J-10-3.bmp\",\"None\",\"Left\",\"39\",\"1\",\"6\",\"10\",\"N\",\"J\",\"6\"
\"\",\"\",\"approach-retreat\",\"155\",\"1210353\",\"0.0-155.0\",\"\",\"\",\"2-2\",\"4444\",\"40\",\"1\",\"Testing\",\"Stims/Figures/139-C-20-2.bmp\",\"None\",\"Down\",\"40\",\"1\",\"7\",\"10\",\"N\",\"J\",\"7\"
\"\",\"\",\"approach-retreat\",\"156\",\"1216012\",\"0.0-156.0\",\"\",\"\",\"2-2\",\"4153\",\"40\",\"1\",\"Testing\",\"Stims/Figures/84-C-20-2.bmp\",\"None\",\"Down\",\"40\",\"1\",\"8\",\"10\",\"N\",\"J\",\"8\"
\"\",\"\",\"approach-retreat\",\"157\",\"1222148\",\"0.0-157.0\",\"\",\"\",\"2-2\",\"4627\",\"37\",\"1\",\"Testing\",\"Stims/Figures/85-J-0-2.bmp\",\"None\",\"Right\",\"37\",\"1\",\"9\",\"10\",\"N\",\"J\",\"9\"
\"\",\"\",\"approach-retreat\",\"158\",\"1227998\",\"0.0-158.0\",\"\",\"\",\"2-2\",\"4341\",\"38\",\"1\",\"Testing\",\"Stims/Figures/139-J-0-2.bmp\",\"None\",\"Down\",\"38\",\"1\",\"10\",\"10\",\"N\",\"J\",\"10\"
\"\",\"\",\"approach-retreat\",\"159\",\"1236539\",\"0.0-159.0\",\"\",\"\",\"2-2\",\"7036\",\"38\",\"1\",\"Testing\",\"Stims/Figures/44-J-10-3.bmp\",\"None\",\"Down\",\"38\",\"1\",\"11\",\"10\",\"N\",\"J\",\"11\"
\"\",\"\",\"approach-retreat\",\"160\",\"1243759\",\"0.0-160.0\",\"\",\"\",\"2-2\",\"5712\",\"38\",\"1\",\"Testing\",\"Stims/Figures/100-J-10-3.bmp\",\"None\",\"Down\",\"38\",\"1\",\"12\",\"10\",\"N\",\"J\",\"12\"
\"\",\"\",\"approach-retreat\",\"161\",\"1251476\",\"0.0-161.0\",\"\",\"\",\"2-2\",\"6208\",\"37\",\"1\",\"Testing\",\"Stims/Figures/85-C-20-2.bmp\",\"None\",\"Left\",\"37\",\"1\",\"13\",\"10\",\"N\",\"J\",\"13\"
\"\",\"\",\"approach-retreat\",\"162\",\"1257937\",\"0.0-162.0\",\"\",\"\",\"2-2\",\"4952\",\"38\",\"1\",\"Testing\",\"Stims/Figures/44-C-30-3.bmp\",\"None\",\"Up\",\"38\",\"1\",\"14\",\"10\",\"N\",\"J\",\"14\"
\"\",\"\",\"approach-retreat\",\"163\",\"1264373\",\"0.0-163.0\",\"\",\"\",\"2-2\",\"4929\",\"39\",\"1\",\"Testing\",\"Stims/Figures/128-C-30-3.bmp\",\"None\",\"Right\",\"39\",\"1\",\"15\",\"10\",\"N\",\"J\",\"15\"
\"\",\"\",\"approach-retreat\",\"164\",\"1270701\",\"0.0-164.0\",\"\",\"\",\"2-2\",\"4818\",\"38\",\"0\",\"Testing\",\"Stims/Figures/74-J-10-4.bmp\",\"None\",\"Up\",\"40\",\"1\",\"16\",\"10\",\"N\",\"J\",\"16\"
\"\",\"\",\"approach-retreat\",\"165\",\"1277000\",\"0.0-165.0\",\"\",\"\",\"2-2\",\"4791\",\"39\",\"1\",\"Testing\",\"Stims/Figures/93-C-30-1.bmp\",\"None\",\"Right\",\"39\",\"1\",\"17\",\"10\",\"N\",\"J\",\"17\"
\"\",\"\",\"approach-retreat\",\"166\",\"1282988\",\"0.0-166.0\",\"\",\"\",\"2-2\",\"4481\",\"40\",\"1\",\"Testing\",\"Stims/Figures/74-C-20-4.bmp\",\"None\",\"Down\",\"40\",\"1\",\"18\",\"10\",\"N\",\"J\",\"18\"
\"\",\"\",\"approach-retreat\",\"167\",\"1289101\",\"0.0-167.0\",\"\",\"\",\"2-2\",\"4605\",\"37\",\"1\",\"Testing\",\"Stims/Figures/71-C-30-1.bmp\",\"None\",\"Left\",\"37\",\"1\",\"19\",\"10\",\"N\",\"J\",\"19\"
\"\",\"\",\"approach-retreat\",\"168\",\"1294991\",\"0.0-168.0\",\"\",\"\",\"2-2\",\"4382\",\"38\",\"1\",\"Testing\",\"Stims/Figures/87-C-20-4.bmp\",\"None\",\"Up\",\"38\",\"1\",\"20\",\"10\",\"N\",\"J\",\"20\"
\"\",\"\",\"approach-retreat\",\"169\",\"1300836\",\"0.0-169.0\",\"\",\"\",\"2-2\",\"4338\",\"39\",\"0\",\"Testing\",\"Stims/Figures/93-J-0-1.bmp\",\"None\",\"Right\",\"37\",\"1\",\"21\",\"10\",\"N\",\"J\",\"21\"
\"\",\"\",\"approach-retreat\",\"170\",\"1310998\",\"0.0-170.0\",\"\",\"\",\"2-2\",\"8652\",\"38\",\"1\",\"Testing\",\"Stims/Figures/102-C-20-4.bmp\",\"None\",\"Up\",\"38\",\"1\",\"22\",\"10\",\"N\",\"J\",\"22\"
\"\",\"\",\"approach-retreat\",\"171\",\"1318250\",\"0.0-171.0\",\"\",\"\",\"2-2\",\"5744\",\"37\",\"1\",\"Testing\",\"Stims/Figures/57-C-30-1.bmp\",\"None\",\"Left\",\"37\",\"1\",\"23\",\"10\",\"N\",\"J\",\"23\"
\"\",\"\",\"approach-retreat\",\"172\",\"1324134\",\"0.0-172.0\",\"\",\"\",\"2-2\",\"4375\",\"39\",\"1\",\"Testing\",\"Stims/Figures/102-J-10-4.bmp\",\"None\",\"Left\",\"39\",\"1\",\"24\",\"10\",\"N\",\"J\",\"24\"
\"\",\"\",\"approach-retreat\",\"173\",\"1331055\",\"0.0-173.0\",\"\",\"\",\"2-2\",\"5411\",\"38\",\"1\",\"Testing\",\"Stims/Figures/139-C-20-2.bmp\",\"None\",\"Up\",\"38\",\"2\",\"1\",\"10\",\"N\",\"J\",\"25\"
\"\",\"\",\"approach-retreat\",\"174\",\"1337023\",\"0.0-174.0\",\"\",\"\",\"2-2\",\"4463\",\"38\",\"1\",\"Testing\",\"Stims/Figures/57-J-0-1.bmp\",\"None\",\"Down\",\"38\",\"2\",\"2\",\"10\",\"N\",\"J\",\"26\"
\"\",\"\",\"approach-retreat\",\"175\",\"1344187\",\"0.0-175.0\",\"\",\"\",\"2-2\",\"5656\",\"39\",\"1\",\"Testing\",\"Stims/Figures/93-C-30-1.bmp\",\"None\",\"Right\",\"39\",\"2\",\"3\",\"10\",\"N\",\"J\",\"27\"
\"\",\"\",\"approach-retreat\",\"176\",\"1350171\",\"0.0-176.0\",\"\",\"\",\"2-2\",\"4476\",\"37\",\"1\",\"Testing\",\"Stims/Figures/87-C-20-4.bmp\",\"None\",\"Left\",\"37\",\"2\",\"4\",\"10\",\"N\",\"J\",\"28\"
\"\",\"\",\"approach-retreat\",\"177\",\"1357457\",\"0.0-177.0\",\"\",\"\",\"2-2\",\"5779\",\"38\",\"1\",\"Testing\",\"Stims/Figures/100-J-10-3.bmp\",\"None\",\"Down\",\"38\",\"2\",\"5\",\"10\",\"N\",\"J\",\"29\"
\"\",\"\",\"approach-retreat\",\"178\",\"1364229\",\"0.0-178.0\",\"\",\"\",\"2-2\",\"5264\",\"39\",\"1\",\"Testing\",\"Stims/Figures/128-C-30-3.bmp\",\"None\",\"Right\",\"39\",\"2\",\"6\",\"10\",\"N\",\"J\",\"30\"
\"\",\"\",\"approach-retreat\",\"179\",\"1370373\",\"0.0-179.0\",\"\",\"\",\"2-2\",\"4635\",\"39\",\"1\",\"Testing\",\"Stims/Figures/102-J-10-4.bmp\",\"None\",\"Left\",\"39\",\"2\",\"7\",\"10\",\"N\",\"J\",\"31\"
\"\",\"\",\"approach-retreat\",\"180\",\"1376619\",\"0.0-180.0\",\"\",\"\",\"2-2\",\"4738\",\"38\",\"1\",\"Testing\",\"Stims/Figures/100-C-30-3.bmp\",\"None\",\"Up\",\"38\",\"2\",\"8\",\"10\",\"N\",\"J\",\"32\"
\"\",\"\",\"approach-retreat\",\"181\",\"1382464\",\"0.0-181.0\",\"\",\"\",\"2-2\",\"4338\",\"37\",\"1\",\"Testing\",\"Stims/Figures/85-J-0-2.bmp\",\"None\",\"Right\",\"37\",\"2\",\"9\",\"10\",\"N\",\"J\",\"33\"
\"\",\"\",\"approach-retreat\",\"182\",\"1389033\",\"0.0-182.0\",\"\",\"\",\"2-2\",\"5060\",\"40\",\"1\",\"Testing\",\"Stims/Figures/93-J-0-1.bmp\",\"None\",\"Up\",\"40\",\"2\",\"10\",\"10\",\"N\",\"J\",\"34\"
\"\",\"\",\"approach-retreat\",\"183\",\"1395488\",\"0.0-183.0\",\"\",\"\",\"2-2\",\"4950\",\"38\",\"1\",\"Testing\",\"Stims/Figures/71-C-30-1.bmp\",\"None\",\"Up\",\"38\",\"2\",\"11\",\"10\",\"N\",\"J\",\"35\"
\"\",\"\",\"approach-retreat\",\"184\",\"1403162\",\"0.0-184.0\",\"\",\"\",\"2-2\",\"6167\",\"38\",\"1\",\"Testing\",\"Stims/Figures/84-J-0-2.bmp\",\"None\",\"Down\",\"38\",\"2\",\"12\",\"10\",\"N\",\"J\",\"36\"
\"\",\"\",\"approach-retreat\",\"185\",\"1410830\",\"0.0-185.0\",\"\",\"\",\"2-2\",\"6158\",\"39\",\"1\",\"Testing\",\"Stims/Figures/57-C-30-1.bmp\",\"None\",\"Right\",\"39\",\"2\",\"13\",\"10\",\"N\",\"J\",\"37\"
\"\",\"\",\"approach-retreat\",\"186\",\"1416724\",\"0.0-186.0\",\"\",\"\",\"2-2\",\"4387\",\"39\",\"1\",\"Testing\",\"Stims/Figures/74-C-20-4.bmp\",\"None\",\"Right\",\"39\",\"2\",\"14\",\"10\",\"N\",\"J\",\"38\"
\"\",\"\",\"approach-retreat\",\"187\",\"1423192\",\"0.0-187.0\",\"\",\"\",\"2-2\",\"4960\",\"40\",\"1\",\"Testing\",\"Stims/Figures/74-J-10-4.bmp\",\"None\",\"Up\",\"40\",\"2\",\"15\",\"10\",\"N\",\"J\",\"39\"
\"\",\"\",\"approach-retreat\",\"188\",\"1429224\",\"0.0-188.0\",\"\",\"\",\"2-2\",\"4524\",\"37\",\"1\",\"Testing\",\"Stims/Figures/87-J-10-4.bmp\",\"None\",\"Right\",\"37\",\"2\",\"16\",\"10\",\"N\",\"J\",\"40\"
\"\",\"\",\"approach-retreat\",\"189\",\"1435341\",\"0.0-189.0\",\"\",\"\",\"2-2\",\"4609\",\"38\",\"1\",\"Testing\",\"Stims/Figures/139-J-0-2.bmp\",\"None\",\"Down\",\"38\",\"2\",\"17\",\"10\",\"N\",\"J\",\"41\"
\"\",\"\",\"approach-retreat\",\"190\",\"1442850\",\"0.0-190.0\",\"\",\"\",\"2-2\",\"6000\",\"37\",\"1\",\"Testing\",\"Stims/Figures/84-C-20-2.bmp\",\"None\",\"Left\",\"37\",\"2\",\"18\",\"10\",\"N\",\"J\",\"42\"
\"\",\"\",\"approach-retreat\",\"191\",\"1448671\",\"0.0-191.0\",\"\",\"\",\"2-2\",\"4310\",\"39\",\"1\",\"Testing\",\"Stims/Figures/71-J-0-1.bmp\",\"None\",\"Left\",\"39\",\"2\",\"19\",\"10\",\"N\",\"J\",\"43\"
\"\",\"\",\"approach-retreat\",\"192\",\"1454829\",\"0.0-192.0\",\"\",\"\",\"2-2\",\"4649\",\"38\",\"1\",\"Testing\",\"Stims/Figures/128-J-10-3.bmp\",\"None\",\"Down\",\"38\",\"2\",\"20\",\"10\",\"N\",\"J\",\"44\"
\"\",\"\",\"approach-retreat\",\"193\",\"1462856\",\"0.0-193.0\",\"\",\"\",\"2-2\",\"6518\",\"38\",\"1\",\"Testing\",\"Stims/Figures/102-C-20-4.bmp\",\"None\",\"Up\",\"38\",\"2\",\"21\",\"10\",\"N\",\"J\",\"45\"
\"\",\"\",\"approach-retreat\",\"194\",\"1468873\",\"0.0-194.0\",\"\",\"\",\"2-2\",\"4510\",\"37\",\"1\",\"Testing\",\"Stims/Figures/44-C-30-3.bmp\",\"None\",\"Left\",\"37\",\"2\",\"22\",\"10\",\"N\",\"J\",\"46\"
\"\",\"\",\"approach-retreat\",\"195\",\"1475865\",\"0.0-195.0\",\"\",\"\",\"2-2\",\"5485\",\"38\",\"1\",\"Testing\",\"Stims/Figures/44-J-10-3.bmp\",\"None\",\"Down\",\"38\",\"2\",\"23\",\"10\",\"N\",\"J\",\"47\"
\"\",\"\",\"approach-retreat\",\"196\",\"1482667\",\"0.0-196.0\",\"\",\"\",\"2-2\",\"5293\",\"37\",\"1\",\"Testing\",\"Stims/Figures/85-C-20-2.bmp\",\"None\",\"Left\",\"37\",\"2\",\"24\",\"10\",\"N\",\"J\",\"48\"
\"\",\"\",\"approach-retreat\",\"197\",\"1489803\",\"0.0-197.0\",\"\",\"\",\"2-2\",\"5629\",\"37\",\"1\",\"Testing\",\"Stims/Figures/93-C-30-1.bmp\",\"None\",\"Left\",\"37\",\"3\",\"1\",\"10\",\"N\",\"J\",\"49\"
\"\",\"\",\"approach-retreat\",\"198\",\"1496902\",\"0.0-198.0\",\"\",\"\",\"2-2\",\"5591\",\"39\",\"1\",\"Testing\",\"Stims/Figures/139-C-20-2.bmp\",\"None\",\"Right\",\"39\",\"3\",\"2\",\"10\",\"N\",\"J\",\"50\"
\"\",\"\",\"approach-retreat\",\"199\",\"1504099\",\"0.0-199.0\",\"\",\"\",\"2-2\",\"5690\",\"39\",\"1\",\"Testing\",\"Stims/Figures/44-C-30-3.bmp\",\"None\",\"Right\",\"39\",\"3\",\"3\",\"10\",\"N\",\"J\",\"51\"
\"\",\"\",\"approach-retreat\",\"200\",\"1510005\",\"0.0-200.0\",\"\",\"\",\"2-2\",\"4397\",\"37\",\"0\",\"Testing\",\"Stims/Figures/87-J-10-4.bmp\",\"None\",\"Left\",\"39\",\"3\",\"4\",\"10\",\"N\",\"J\",\"52\"
\"\",\"\",\"approach-retreat\",\"201\",\"1516607\",\"0.0-201.0\",\"\",\"\",\"2-2\",\"5094\",\"39\",\"1\",\"Testing\",\"Stims/Figures/74-C-20-4.bmp\",\"None\",\"Right\",\"39\",\"3\",\"5\",\"10\",\"N\",\"J\",\"53\"
\"\",\"\",\"approach-retreat\",\"202\",\"1522906\",\"0.0-202.0\",\"\",\"\",\"2-2\",\"4790\",\"40\",\"1\",\"Testing\",\"Stims/Figures/84-C-20-2.bmp\",\"None\",\"Down\",\"40\",\"3\",\"6\",\"10\",\"N\",\"J\",\"54\"
\"\",\"\",\"approach-retreat\",\"203\",\"1528614\",\"0.0-203.0\",\"\",\"\",\"2-2\",\"4202\",\"39\",\"1\",\"Testing\",\"Stims/Figures/139-J-0-2.bmp\",\"None\",\"Left\",\"39\",\"3\",\"7\",\"10\",\"N\",\"J\",\"55\"
\"\",\"\",\"approach-retreat\",\"204\",\"1537265\",\"0.0-204.0\",\"\",\"\",\"2-2\",\"7143\",\"37\",\"1\",\"Testing\",\"Stims/Figures/100-J-10-3.bmp\",\"None\",\"Right\",\"37\",\"3\",\"8\",\"10\",\"N\",\"J\",\"56\"
\"\",\"\",\"approach-retreat\",\"205\",\"1543908\",\"0.0-205.0\",\"\",\"\",\"2-2\",\"5135\",\"40\",\"1\",\"Testing\",\"Stims/Figures/102-J-10-4.bmp\",\"None\",\"Up\",\"40\",\"3\",\"9\",\"10\",\"N\",\"J\",\"57\"
\"\",\"\",\"approach-retreat\",\"206\",\"1550460\",\"0.0-206.0\",\"\",\"\",\"2-2\",\"5045\",\"38\",\"1\",\"Testing\",\"Stims/Figures/87-C-20-4.bmp\",\"None\",\"Up\",\"38\",\"3\",\"10\",\"10\",\"N\",\"J\",\"58\"
\"\",\"\",\"approach-retreat\",\"207\",\"1556616\",\"0.0-207.0\",\"\",\"\",\"2-2\",\"4646\",\"39\",\"1\",\"Testing\",\"Stims/Figures/44-J-10-3.bmp\",\"None\",\"Left\",\"39\",\"3\",\"11\",\"10\",\"N\",\"J\",\"59\"
\"\",\"\",\"approach-retreat\",\"208\",\"1564063\",\"0.0-208.0\",\"\",\"\",\"2-2\",\"5940\",\"38\",\"1\",\"Testing\",\"Stims/Figures/85-J-0-2.bmp\",\"None\",\"Down\",\"38\",\"3\",\"12\",\"10\",\"N\",\"J\",\"60\"
\"\",\"\",\"approach-retreat\",\"209\",\"1570617\",\"0.0-209.0\",\"\",\"\",\"2-2\",\"5045\",\"38\",\"1\",\"Testing\",\"Stims/Figures/128-C-30-3.bmp\",\"None\",\"Up\",\"38\",\"3\",\"13\",\"10\",\"N\",\"J\",\"61\"
\"\",\"\",\"approach-retreat\",\"210\",\"1576726\",\"0.0-210.0\",\"\",\"\",\"2-2\",\"4601\",\"40\",\"1\",\"Testing\",\"Stims/Figures/128-J-10-3.bmp\",\"None\",\"Up\",\"40\",\"3\",\"14\",\"10\",\"N\",\"J\",\"62\"
\"\",\"\",\"approach-retreat\",\"211\",\"1582738\",\"0.0-211.0\",\"\",\"\",\"2-2\",\"4504\",\"38\",\"1\",\"Testing\",\"Stims/Figures/57-J-0-1.bmp\",\"None\",\"Down\",\"38\",\"3\",\"15\",\"10\",\"N\",\"J\",\"63\"
\"\",\"\",\"approach-retreat\",\"212\",\"1588655\",\"0.0-212.0\",\"\",\"\",\"2-2\",\"4409\",\"40\",\"1\",\"Testing\",\"Stims/Figures/100-C-30-3.bmp\",\"None\",\"Down\",\"40\",\"3\",\"16\",\"10\",\"N\",\"J\",\"64\"
\"\",\"\",\"approach-retreat\",\"213\",\"1596433\",\"0.0-213.0\",\"\",\"\",\"2-2\",\"6271\",\"40\",\"1\",\"Testing\",\"Stims/Figures/102-C-20-4.bmp\",\"None\",\"Down\",\"40\",\"3\",\"17\",\"10\",\"N\",\"J\",\"65\"
\"\",\"\",\"approach-retreat\",\"214\",\"1602595\",\"0.0-214.0\",\"\",\"\",\"2-2\",\"4653\",\"39\",\"1\",\"Testing\",\"Stims/Figures/84-J-0-2.bmp\",\"None\",\"Left\",\"39\",\"3\",\"18\",\"10\",\"N\",\"J\",\"66\"
\"\",\"\",\"approach-retreat\",\"215\",\"1609143\",\"0.0-215.0\",\"\",\"\",\"2-2\",\"5042\",\"40\",\"1\",\"Testing\",\"Stims/Figures/93-J-0-1.bmp\",\"None\",\"Up\",\"40\",\"3\",\"19\",\"10\",\"N\",\"J\",\"67\"
\"\",\"\",\"approach-retreat\",\"216\",\"1615018\",\"0.0-216.0\",\"\",\"\",\"2-2\",\"4366\",\"39\",\"0\",\"Testing\",\"Stims/Figures/74-J-10-4.bmp\",\"None\",\"Right\",\"37\",\"3\",\"20\",\"10\",\"N\",\"J\",\"68\"
\"\",\"\",\"approach-retreat\",\"217\",\"1621235\",\"0.0-217.0\",\"\",\"\",\"2-2\",\"4709\",\"38\",\"1\",\"Testing\",\"Stims/Figures/71-C-30-1.bmp\",\"None\",\"Up\",\"38\",\"3\",\"21\",\"10\",\"N\",\"J\",\"69\"
\"\",\"\",\"approach-retreat\",\"218\",\"1627015\",\"0.0-218.0\",\"\",\"\",\"2-2\",\"4272\",\"37\",\"1\",\"Testing\",\"Stims/Figures/85-C-20-2.bmp\",\"None\",\"Left\",\"37\",\"3\",\"22\",\"10\",\"N\",\"J\",\"70\"
\"\",\"\",\"approach-retreat\",\"219\",\"1633296\",\"0.0-219.0\",\"\",\"\",\"2-2\",\"4774\",\"40\",\"1\",\"Testing\",\"Stims/Figures/57-C-30-1.bmp\",\"None\",\"Down\",\"40\",\"3\",\"23\",\"10\",\"N\",\"J\",\"71\"
\"\",\"\",\"approach-retreat\",\"220\",\"1639420\",\"0.0-220.0\",\"\",\"\",\"2-2\",\"4617\",\"37\",\"1\",\"Testing\",\"Stims/Figures/71-J-0-1.bmp\",\"None\",\"Right\",\"37\",\"3\",\"24\",\"10\",\"N\",\"J\",\"72\"
\"\",\"\",\"approach-retreat\",\"221\",\"1645933\",\"0.0-221.0\",\"\",\"\",\"2-2\",\"5006\",\"37\",\"1\",\"Testing\",\"Stims/Figures/44-C-30-3.bmp\",\"None\",\"Left\",\"37\",\"4\",\"1\",\"10\",\"N\",\"J\",\"73\"
\"\",\"\",\"approach-retreat\",\"222\",\"1652288\",\"0.0-222.0\",\"\",\"\",\"2-2\",\"4846\",\"39\",\"1\",\"Testing\",\"Stims/Figures/87-C-20-4.bmp\",\"None\",\"Right\",\"39\",\"4\",\"2\",\"10\",\"N\",\"J\",\"74\"
\"\",\"\",\"approach-retreat\",\"223\",\"1658511\",\"0.0-223.0\",\"\",\"\",\"2-2\",\"4716\",\"38\",\"1\",\"Testing\",\"Stims/Figures/57-C-30-1.bmp\",\"None\",\"Up\",\"38\",\"4\",\"3\",\"10\",\"N\",\"J\",\"75\"
\"\",\"\",\"approach-retreat\",\"224\",\"1670039\",\"0.0-224.0\",\"\",\"\",\"2-2\",\"10020\",\"39\",\"1\",\"Testing\",\"Stims/Figures/87-J-10-4.bmp\",\"None\",\"Left\",\"39\",\"4\",\"4\",\"10\",\"N\",\"J\",\"76\"
\"\",\"\",\"approach-retreat\",\"225\",\"1676926\",\"0.0-225.0\",\"\",\"\",\"2-2\",\"5379\",\"37\",\"1\",\"Testing\",\"Stims/Figures/85-C-20-2.bmp\",\"None\",\"Left\",\"37\",\"4\",\"5\",\"10\",\"N\",\"J\",\"77\"
\"\",\"\",\"approach-retreat\",\"226\",\"1683682\",\"0.0-226.0\",\"\",\"\",\"2-2\",\"5248\",\"38\",\"1\",\"Testing\",\"Stims/Figures/44-J-10-3.bmp\",\"None\",\"Down\",\"38\",\"4\",\"6\",\"10\",\"N\",\"J\",\"78\"
\"\",\"\",\"approach-retreat\",\"227\",\"1690539\",\"0.0-227.0\",\"\",\"\",\"2-2\",\"5350\",\"40\",\"1\",\"Testing\",\"Stims/Figures/139-J-0-2.bmp\",\"None\",\"Up\",\"40\",\"4\",\"7\",\"10\",\"N\",\"J\",\"79\"
\"\",\"\",\"approach-retreat\",\"228\",\"1696779\",\"0.0-228.0\",\"\",\"\",\"2-2\",\"4731\",\"39\",\"0\",\"Testing\",\"Stims/Figures/71-J-0-1.bmp\",\"None\",\"Right\",\"37\",\"4\",\"8\",\"10\",\"N\",\"J\",\"80\"
\"\",\"\",\"approach-retreat\",\"229\",\"1702968\",\"0.0-229.0\",\"\",\"\",\"2-2\",\"4682\",\"38\",\"1\",\"Testing\",\"Stims/Figures/74-C-20-4.bmp\",\"None\",\"Up\",\"38\",\"4\",\"9\",\"10\",\"N\",\"J\",\"81\"
\"\",\"\",\"approach-retreat\",\"230\",\"1709259\",\"0.0-230.0\",\"\",\"\",\"2-2\",\"4781\",\"39\",\"1\",\"Testing\",\"Stims/Figures/85-J-0-2.bmp\",\"None\",\"Left\",\"39\",\"4\",\"10\",\"10\",\"N\",\"J\",\"82\"
\"\",\"\",\"approach-retreat\",\"231\",\"1718582\",\"0.0-231.0\",\"\",\"\",\"2-2\",\"7815\",\"37\",\"0\",\"Testing\",\"Stims/Figures/102-C-20-4.bmp\",\"None\",\"Right\",\"39\",\"4\",\"11\",\"10\",\"N\",\"J\",\"83\"
\"\",\"\",\"approach-retreat\",\"232\",\"1725041\",\"0.0-232.0\",\"\",\"\",\"2-2\",\"4950\",\"38\",\"1\",\"Testing\",\"Stims/Figures/128-C-30-3.bmp\",\"None\",\"Up\",\"38\",\"4\",\"12\",\"10\",\"N\",\"J\",\"84\"
\"\",\"\",\"approach-retreat\",\"233\",\"1731518\",\"0.0-233.0\",\"\",\"\",\"2-2\",\"4969\",\"39\",\"1\",\"Testing\",\"Stims/Figures/84-J-0-2.bmp\",\"None\",\"Left\",\"39\",\"4\",\"13\",\"10\",\"N\",\"J\",\"85\"
\"\",\"\",\"approach-retreat\",\"234\",\"1737754\",\"0.0-234.0\",\"\",\"\",\"2-2\",\"4727\",\"37\",\"1\",\"Testing\",\"Stims/Figures/74-J-10-4.bmp\",\"None\",\"Right\",\"37\",\"4\",\"14\",\"10\",\"N\",\"J\",\"86\"
\"\",\"\",\"approach-retreat\",\"235\",\"1744869\",\"0.0-235.0\",\"\",\"\",\"2-2\",\"5607\",\"40\",\"1\",\"Testing\",\"Stims/Figures/128-J-10-3.bmp\",\"None\",\"Up\",\"40\",\"4\",\"15\",\"10\",\"N\",\"J\",\"87\"
\"\",\"\",\"approach-retreat\",\"236\",\"1751399\",\"0.0-236.0\",\"\",\"\",\"2-2\",\"5023\",\"37\",\"1\",\"Testing\",\"Stims/Figures/57-J-0-1.bmp\",\"None\",\"Right\",\"37\",\"4\",\"16\",\"10\",\"N\",\"J\",\"88\"
\"\",\"\",\"approach-retreat\",\"237\",\"1758350\",\"0.0-237.0\",\"\",\"\",\"2-2\",\"5444\",\"40\",\"1\",\"Testing\",\"Stims/Figures/139-C-20-2.bmp\",\"None\",\"Down\",\"40\",\"4\",\"17\",\"10\",\"N\",\"J\",\"89\"
\"\",\"\",\"approach-retreat\",\"238\",\"1764342\",\"0.0-238.0\",\"\",\"\",\"2-2\",\"4484\",\"40\",\"1\",\"Testing\",\"Stims/Figures/71-C-30-1.bmp\",\"None\",\"Down\",\"40\",\"4\",\"18\",\"10\",\"N\",\"J\",\"90\"
\"\",\"\",\"approach-retreat\",\"239\",\"1770542\",\"0.0-239.0\",\"\",\"\",\"2-2\",\"4694\",\"37\",\"1\",\"Testing\",\"Stims/Figures/84-C-20-2.bmp\",\"None\",\"Left\",\"37\",\"4\",\"19\",\"10\",\"N\",\"J\",\"91\"
\"\",\"\",\"approach-retreat\",\"240\",\"1776706\",\"0.0-240.0\",\"\",\"\",\"2-2\",\"4655\",\"40\",\"1\",\"Testing\",\"Stims/Figures/100-J-10-3.bmp\",\"None\",\"Up\",\"40\",\"4\",\"20\",\"10\",\"N\",\"J\",\"92\"
\"\",\"\",\"approach-retreat\",\"241\",\"1782816\",\"0.0-241.0\",\"\",\"\",\"2-2\",\"4602\",\"39\",\"1\",\"Testing\",\"Stims/Figures/93-C-30-1.bmp\",\"None\",\"Right\",\"39\",\"4\",\"21\",\"10\",\"N\",\"J\",\"93\"
\"\",\"\",\"approach-retreat\",\"242\",\"1788935\",\"0.0-242.0\",\"\",\"\",\"2-2\",\"4611\",\"40\",\"1\",\"Testing\",\"Stims/Figures/100-C-30-3.bmp\",\"None\",\"Down\",\"40\",\"4\",\"22\",\"10\",\"N\",\"J\",\"94\"
\"\",\"\",\"approach-retreat\",\"243\",\"1795593\",\"0.0-243.0\",\"\",\"\",\"2-2\",\"5149\",\"38\",\"1\",\"Testing\",\"Stims/Figures/93-J-0-1.bmp\",\"None\",\"Down\",\"38\",\"4\",\"23\",\"10\",\"N\",\"J\",\"95\"
\"\",\"\",\"approach-retreat\",\"244\",\"1801800\",\"0.0-244.0\",\"\",\"\",\"2-2\",\"4699\",\"38\",\"1\",\"Testing\",\"Stims/Figures/102-J-10-4.bmp\",\"None\",\"Down\",\"38\",\"4\",\"24\",\"10\",\"N\",\"J\",\"96\"
\"130023\",\"\",\"survey-text\",\"245\",\"1931829\",\"0.0-245.0\",\"\",\"{\"\"Q0\"\":\"\"1254/2017\"\"}\",\"\",\"\",\"\",\"\",\"\",\"\",\"\",\"\",\"\",\"\",\"\",\"\",\"\",\"\",\"\"
