\"rt\",\"key_press\",\"trial_type\",\"trial_index\",\"time_elapsed\",\"internal_node_id\",\"view_history\",\"responses\",\"Id\",\"Rt\",\"ResKeyCode\",\"ResCorr\",\"TrialType2\",\"Image\",\"Label\",\"Location\",\"CorrectResponse\",\"Block\",\"BlockTrial\",\"Condition\",\"LabelType\",\"Subcondition\",\"trialNum\"
\"81083\",\"32\",\"text\",\"0\",\"81090\",\"0.0-0.0-0.0\",\"\",\"\",\"\",\"\",\"\",\"\",\"\",\"\",\"\",\"\",\"\",\"\",\"\",\"\",\"\",\"\",\"\"
\"1378\",\"\",\"instructions\",\"1\",\"82473\",\"0.0-1.0\",\"[{\"\"page_index\"\":0,\"\"viewing_time\"\":1376}]\",\"\",\"\",\"\",\"\",\"\",\"\",\"\",\"\",\"\",\"\",\"\",\"\",\"\",\"\",\"\",\"\"
\"15369\",\"\",\"survey-multi-choice\",\"2\",\"97894\",\"0.0-2.0\",\"\",\"{\"\"Q0\"\":\"\"Da\"\",\"\"Q1\"\":\"\"Da\"\",\"\"Q2\"\":\"\"Da\"\",\"\"Q3\"\":\"\"Da\"\",\"\"Q4\"\":\"\"Da\"\",\"\"Q5\"\":\"\"Da\"\"}\",\"\",\"\",\"\",\"\",\"\",\"\",\"\",\"\",\"\",\"\",\"\",\"\",\"\",\"\",\"\"
\"\",\"\",\"bio\",\"3\",\"108074\",\"0.0-3.0\",\"\",\"{\"\"age\"\":\"\"20\"\",\"\"gender\"\":\"\"f\"\",\"\"specify\"\":\"\"\"\"}\",\"\",\"\",\"\",\"\",\"\",\"\",\"\",\"\",\"\",\"\",\"\",\"\",\"\",\"\",\"\"
\"\",\"\",\"approach-retreat\",\"4\",\"115274\",\"0.0-4.0\",\"\",\"\",\"3-1\",\"5675\",\"40\",\"0\",\"Training\",\"Stims/Figures/102-J-10-4.bmp\",\"sa:saza\",\"Down\",\"38\",\"1\",\"1\",\"8\",\"C2\",\"J\",\"1\"
\"\",\"\",\"approach-retreat\",\"5\",\"122132\",\"0.0-5.0\",\"\",\"\",\"3-1\",\"5307\",\"40\",\"1\",\"Training\",\"Stims/Figures/128-J-10-3.bmp\",\"sa:saha\",\"Up\",\"40\",\"1\",\"2\",\"8\",\"C2\",\"J\",\"2\"
\"\",\"\",\"approach-retreat\",\"6\",\"128379\",\"0.0-6.0\",\"\",\"\",\"3-1\",\"4713\",\"38\",\"1\",\"Training\",\"Stims/Figures/85-J-0-2.bmp\",\"fashava\",\"Down\",\"38\",\"1\",\"3\",\"8\",\"C1\",\"J\",\"3\"
\"\",\"\",\"approach-retreat\",\"7\",\"135806\",\"0.0-7.0\",\"\",\"\",\"3-1\",\"5894\",\"39\",\"0\",\"Training\",\"Stims/Figures/100-C-30-3.bmp\",\"saha:ha\",\"Left\",\"37\",\"1\",\"4\",\"8\",\"C2\",\"J\",\"4\"
\"\",\"\",\"approach-retreat\",\"8\",\"145565\",\"0.0-8.0\",\"\",\"\",\"3-1\",\"8217\",\"38\",\"1\",\"Training\",\"Stims/Figures/85-C-20-2.bmp\",\"va:sha:sha\",\"Up\",\"38\",\"1\",\"5\",\"8\",\"C1\",\"J\",\"5\"
\"\",\"\",\"approach-retreat\",\"9\",\"157664\",\"0.0-9.0\",\"\",\"\",\"3-1\",\"10553\",\"38\",\"0\",\"Training\",\"Stims/Figures/100-J-10-3.bmp\",\"sahaha\",\"Up\",\"40\",\"1\",\"6\",\"8\",\"C2\",\"J\",\"6\"
\"\",\"\",\"approach-retreat\",\"10\",\"165481\",\"0.0-10.0\",\"\",\"\",\"3-1\",\"6272\",\"37\",\"0\",\"Training\",\"Stims/Figures/71-J-0-1.bmp\",\"va:shasha\",\"Left\",\"39\",\"1\",\"7\",\"8\",\"C1\",\"J\",\"7\"
\"\",\"\",\"approach-retreat\",\"11\",\"173581\",\"0.0-11.0\",\"\",\"\",\"3-1\",\"6544\",\"39\",\"1\",\"Training\",\"Stims/Figures/93-J-0-1.bmp\",\"fa:shasha\",\"Left\",\"39\",\"1\",\"8\",\"8\",\"C1\",\"J\",\"8\"
\"\",\"\",\"approach-retreat\",\"12\",\"181305\",\"0.0-12.0\",\"\",\"\",\"3-1\",\"6196\",\"38\",\"0\",\"Training\",\"Stims/Figures/71-C-30-1.bmp\",\"fasha:sha\",\"Down\",\"40\",\"1\",\"9\",\"8\",\"C1\",\"J\",\"9\"
\"\",\"\",\"approach-retreat\",\"13\",\"192212\",\"0.0-13.0\",\"\",\"\",\"3-1\",\"9364\",\"37\",\"0\",\"Training\",\"Stims/Figures/118-C-20-2.bmp\",\"fa:sha:va\",\"Right\",\"39\",\"1\",\"10\",\"8\",\"C1\",\"J\",\"10\"
\"\",\"\",\"approach-retreat\",\"14\",\"203076\",\"0.0-14.0\",\"\",\"\",\"3-1\",\"9323\",\"40\",\"1\",\"Training\",\"Stims/Figures/7-J-10-4.bmp\",\"za:ha:ha\",\"Up\",\"40\",\"1\",\"11\",\"8\",\"C2\",\"J\",\"11\"
\"\",\"\",\"approach-retreat\",\"15\",\"209232\",\"0.0-15.0\",\"\",\"\",\"3-1\",\"4611\",\"37\",\"0\",\"Training\",\"Stims/Figures/93-C-30-1.bmp\",\"fa:fasha\",\"Right\",\"39\",\"1\",\"12\",\"8\",\"C1\",\"J\",\"12\"
\"\",\"\",\"approach-retreat\",\"16\",\"216505\",\"0.0-16.0\",\"\",\"\",\"3-1\",\"5729\",\"38\",\"0\",\"Training\",\"Stims/Figures/7-C-20-4.bmp\",\"sa:sa:za\",\"Down\",\"40\",\"1\",\"13\",\"8\",\"C2\",\"J\",\"13\"
\"\",\"\",\"approach-retreat\",\"17\",\"222901\",\"0.0-17.0\",\"\",\"\",\"3-1\",\"4856\",\"39\",\"0\",\"Training\",\"Stims/Figures/128-C-30-3.bmp\",\"za:ha:za\",\"Left\",\"37\",\"1\",\"14\",\"8\",\"C2\",\"J\",\"14\"
\"\",\"\",\"approach-retreat\",\"18\",\"228595\",\"0.0-18.0\",\"\",\"\",\"3-1\",\"4158\",\"37\",\"0\",\"Training\",\"Stims/Figures/102-C-20-4.bmp\",\"za:saza\",\"Right\",\"39\",\"1\",\"15\",\"8\",\"C2\",\"J\",\"15\"
\"\",\"\",\"approach-retreat\",\"19\",\"234995\",\"0.0-19.0\",\"\",\"\",\"3-1\",\"4860\",\"37\",\"1\",\"Training\",\"Stims/Figures/118-J-0-2.bmp\",\"fa:fa:sha\",\"Right\",\"37\",\"1\",\"16\",\"8\",\"C1\",\"J\",\"16\"
\"\",\"\",\"approach-retreat\",\"20\",\"240990\",\"0.0-20.0\",\"\",\"\",\"3-1\",\"4442\",\"37\",\"1\",\"Training\",\"Stims/Figures/71-J-0-1.bmp\",\"va:shasha\",\"Right\",\"37\",\"2\",\"1\",\"8\",\"C1\",\"J\",\"17\"
\"\",\"\",\"approach-retreat\",\"21\",\"246611\",\"0.0-21.0\",\"\",\"\",\"3-1\",\"4090\",\"39\",\"0\",\"Training\",\"Stims/Figures/85-C-20-2.bmp\",\"va:sha:sha\",\"Left\",\"37\",\"2\",\"2\",\"8\",\"C1\",\"J\",\"18\"
\"\",\"\",\"approach-retreat\",\"22\",\"253438\",\"0.0-22.0\",\"\",\"\",\"3-1\",\"5281\",\"37\",\"0\",\"Training\",\"Stims/Figures/71-C-30-1.bmp\",\"fasha:sha\",\"Right\",\"39\",\"2\",\"3\",\"8\",\"C1\",\"J\",\"19\"
\"\",\"\",\"approach-retreat\",\"23\",\"259060\",\"0.0-23.0\",\"\",\"\",\"3-1\",\"4084\",\"39\",\"0\",\"Training\",\"Stims/Figures/102-J-10-4.bmp\",\"sa:saza\",\"Right\",\"37\",\"2\",\"4\",\"8\",\"C2\",\"J\",\"20\"
\"\",\"\",\"approach-retreat\",\"24\",\"264866\",\"0.0-24.0\",\"\",\"\",\"3-1\",\"4262\",\"40\",\"0\",\"Training\",\"Stims/Figures/100-C-30-3.bmp\",\"saha:ha\",\"Up\",\"38\",\"2\",\"5\",\"8\",\"C2\",\"J\",\"21\"
\"\",\"\",\"approach-retreat\",\"25\",\"271037\",\"0.0-25.0\",\"\",\"\",\"3-1\",\"4632\",\"40\",\"1\",\"Training\",\"Stims/Figures/7-J-10-4.bmp\",\"za:ha:ha\",\"Up\",\"40\",\"2\",\"6\",\"8\",\"C2\",\"J\",\"22\"
\"\",\"\",\"approach-retreat\",\"26\",\"276656\",\"0.0-26.0\",\"\",\"\",\"3-1\",\"4074\",\"37\",\"1\",\"Training\",\"Stims/Figures/85-J-0-2.bmp\",\"fashava\",\"Right\",\"37\",\"2\",\"7\",\"8\",\"C1\",\"J\",\"23\"
\"\",\"\",\"approach-retreat\",\"27\",\"282213\",\"0.0-27.0\",\"\",\"\",\"3-1\",\"4015\",\"40\",\"1\",\"Training\",\"Stims/Figures/118-J-0-2.bmp\",\"fa:fa:sha\",\"Up\",\"40\",\"2\",\"8\",\"8\",\"C1\",\"J\",\"24\"
\"\",\"\",\"approach-retreat\",\"28\",\"287886\",\"0.0-28.0\",\"\",\"\",\"3-1\",\"4137\",\"39\",\"0\",\"Training\",\"Stims/Figures/118-C-20-2.bmp\",\"fa:sha:va\",\"Left\",\"37\",\"2\",\"9\",\"8\",\"C1\",\"J\",\"25\"
\"\",\"\",\"approach-retreat\",\"29\",\"293441\",\"0.0-29.0\",\"\",\"\",\"3-1\",\"4009\",\"39\",\"1\",\"Training\",\"Stims/Figures/93-J-0-1.bmp\",\"fa:shasha\",\"Left\",\"39\",\"2\",\"10\",\"8\",\"C1\",\"J\",\"26\"
\"\",\"\",\"approach-retreat\",\"30\",\"304075\",\"0.0-30.0\",\"\",\"\",\"3-1\",\"9086\",\"40\",\"0\",\"Training\",\"Stims/Figures/7-C-20-4.bmp\",\"sa:sa:za\",\"Up\",\"38\",\"2\",\"11\",\"8\",\"C2\",\"J\",\"27\"
\"\",\"\",\"approach-retreat\",\"31\",\"312431\",\"0.0-31.0\",\"\",\"\",\"3-1\",\"6818\",\"38\",\"0\",\"Training\",\"Stims/Figures/128-C-30-3.bmp\",\"za:ha:za\",\"Down\",\"40\",\"2\",\"12\",\"8\",\"C2\",\"J\",\"28\"
\"\",\"\",\"approach-retreat\",\"32\",\"319516\",\"0.0-32.0\",\"\",\"\",\"3-1\",\"5540\",\"38\",\"0\",\"Training\",\"Stims/Figures/93-C-30-1.bmp\",\"fa:fasha\",\"Down\",\"40\",\"2\",\"13\",\"8\",\"C1\",\"J\",\"29\"
\"\",\"\",\"approach-retreat\",\"33\",\"328483\",\"0.0-33.0\",\"\",\"\",\"3-1\",\"7419\",\"38\",\"1\",\"Training\",\"Stims/Figures/100-J-10-3.bmp\",\"sahaha\",\"Down\",\"38\",\"2\",\"14\",\"8\",\"C2\",\"J\",\"30\"
\"\",\"\",\"approach-retreat\",\"34\",\"334614\",\"0.0-34.0\",\"\",\"\",\"3-1\",\"4604\",\"39\",\"1\",\"Training\",\"Stims/Figures/128-J-10-3.bmp\",\"sa:saha\",\"Left\",\"39\",\"2\",\"15\",\"8\",\"C2\",\"J\",\"31\"
\"\",\"\",\"approach-retreat\",\"35\",\"341221\",\"0.0-35.0\",\"\",\"\",\"3-1\",\"5065\",\"40\",\"1\",\"Training\",\"Stims/Figures/102-C-20-4.bmp\",\"za:saza\",\"Down\",\"40\",\"2\",\"16\",\"8\",\"C2\",\"J\",\"32\"
\"\",\"\",\"approach-retreat\",\"36\",\"350104\",\"0.0-36.0\",\"\",\"\",\"3-1\",\"7352\",\"38\",\"1\",\"Training\",\"Stims/Figures/128-J-10-3.bmp\",\"sa:saha\",\"Down\",\"38\",\"3\",\"1\",\"8\",\"C2\",\"J\",\"33\"
\"\",\"\",\"approach-retreat\",\"37\",\"368931\",\"0.0-37.0\",\"\",\"\",\"3-1\",\"17290\",\"39\",\"1\",\"Training\",\"Stims/Figures/100-C-30-3.bmp\",\"saha:ha\",\"Right\",\"39\",\"3\",\"2\",\"8\",\"C2\",\"J\",\"34\"
\"\",\"\",\"approach-retreat\",\"38\",\"375124\",\"0.0-38.0\",\"\",\"\",\"3-1\",\"4647\",\"40\",\"0\",\"Training\",\"Stims/Figures/102-C-20-4.bmp\",\"za:saza\",\"Up\",\"38\",\"3\",\"3\",\"8\",\"C2\",\"J\",\"35\"
\"\",\"\",\"approach-retreat\",\"39\",\"381301\",\"0.0-39.0\",\"\",\"\",\"3-1\",\"4639\",\"39\",\"1\",\"Training\",\"Stims/Figures/100-J-10-3.bmp\",\"sahaha\",\"Left\",\"39\",\"3\",\"4\",\"8\",\"C2\",\"J\",\"36\"
\"\",\"\",\"approach-retreat\",\"40\",\"388449\",\"0.0-40.0\",\"\",\"\",\"3-1\",\"5613\",\"39\",\"1\",\"Training\",\"Stims/Figures/102-J-10-4.bmp\",\"sa:saza\",\"Left\",\"39\",\"3\",\"5\",\"8\",\"C2\",\"J\",\"37\"
\"\",\"\",\"approach-retreat\",\"41\",\"398902\",\"0.0-41.0\",\"\",\"\",\"3-1\",\"8915\",\"39\",\"1\",\"Training\",\"Stims/Figures/118-C-20-2.bmp\",\"fa:sha:va\",\"Right\",\"39\",\"3\",\"6\",\"8\",\"C1\",\"J\",\"38\"
\"\",\"\",\"approach-retreat\",\"42\",\"409136\",\"0.0-42.0\",\"\",\"\",\"3-1\",\"8694\",\"38\",\"0\",\"Training\",\"Stims/Figures/128-C-30-3.bmp\",\"za:ha:za\",\"Down\",\"40\",\"3\",\"7\",\"8\",\"C2\",\"J\",\"39\"
\"\",\"\",\"approach-retreat\",\"43\",\"414895\",\"0.0-43.0\",\"\",\"\",\"3-1\",\"4222\",\"38\",\"0\",\"Training\",\"Stims/Figures/93-J-0-1.bmp\",\"fa:shasha\",\"Up\",\"40\",\"3\",\"8\",\"8\",\"C1\",\"J\",\"40\"
\"\",\"\",\"approach-retreat\",\"44\",\"430652\",\"0.0-44.0\",\"\",\"\",\"3-1\",\"14220\",\"40\",\"1\",\"Training\",\"Stims/Figures/85-J-0-2.bmp\",\"fashava\",\"Up\",\"40\",\"3\",\"9\",\"8\",\"C1\",\"J\",\"41\"
\"\",\"\",\"approach-retreat\",\"45\",\"437163\",\"0.0-45.0\",\"\",\"\",\"3-1\",\"4979\",\"37\",\"0\",\"Training\",\"Stims/Figures/85-C-20-2.bmp\",\"va:sha:sha\",\"Right\",\"39\",\"3\",\"10\",\"8\",\"C1\",\"J\",\"42\"
\"\",\"\",\"approach-retreat\",\"46\",\"443855\",\"0.0-46.0\",\"\",\"\",\"3-1\",\"5150\",\"38\",\"0\",\"Training\",\"Stims/Figures/7-C-20-4.bmp\",\"sa:sa:za\",\"Down\",\"40\",\"3\",\"11\",\"8\",\"C2\",\"J\",\"43\"
\"\",\"\",\"approach-retreat\",\"47\",\"449412\",\"0.0-47.0\",\"\",\"\",\"3-1\",\"4012\",\"38\",\"1\",\"Training\",\"Stims/Figures/71-J-0-1.bmp\",\"va:shasha\",\"Down\",\"38\",\"3\",\"12\",\"8\",\"C1\",\"J\",\"44\"
\"\",\"\",\"approach-retreat\",\"48\",\"454921\",\"0.0-48.0\",\"\",\"\",\"3-1\",\"3973\",\"39\",\"1\",\"Training\",\"Stims/Figures/7-J-10-4.bmp\",\"za:ha:ha\",\"Left\",\"39\",\"3\",\"13\",\"8\",\"C2\",\"J\",\"45\"
\"\",\"\",\"approach-retreat\",\"49\",\"464424\",\"0.0-49.0\",\"\",\"\",\"3-1\",\"7966\",\"38\",\"1\",\"Training\",\"Stims/Figures/71-C-30-1.bmp\",\"fasha:sha\",\"Up\",\"38\",\"3\",\"14\",\"8\",\"C1\",\"J\",\"46\"
\"\",\"\",\"approach-retreat\",\"50\",\"473364\",\"0.0-50.0\",\"\",\"\",\"3-1\",\"7422\",\"37\",\"1\",\"Training\",\"Stims/Figures/118-J-0-2.bmp\",\"fa:fa:sha\",\"Right\",\"37\",\"3\",\"15\",\"8\",\"C1\",\"J\",\"47\"
\"\",\"\",\"approach-retreat\",\"51\",\"479615\",\"0.0-51.0\",\"\",\"\",\"3-1\",\"4717\",\"39\",\"0\",\"Training\",\"Stims/Figures/93-C-30-1.bmp\",\"fa:fasha\",\"Left\",\"37\",\"3\",\"16\",\"8\",\"C1\",\"J\",\"48\"
\"\",\"\",\"approach-retreat\",\"52\",\"486152\",\"0.0-52.0\",\"\",\"\",\"3-1\",\"4991\",\"40\",\"0\",\"Training\",\"Stims/Figures/7-C-20-4.bmp\",\"sa:sa:za\",\"Up\",\"38\",\"4\",\"1\",\"8\",\"C2\",\"J\",\"49\"
\"\",\"\",\"approach-retreat\",\"53\",\"492277\",\"0.0-53.0\",\"\",\"\",\"3-1\",\"4575\",\"39\",\"1\",\"Training\",\"Stims/Figures/71-J-0-1.bmp\",\"va:shasha\",\"Left\",\"39\",\"4\",\"2\",\"8\",\"C1\",\"J\",\"50\"
\"\",\"\",\"approach-retreat\",\"54\",\"506008\",\"0.0-54.0\",\"\",\"\",\"3-1\",\"12184\",\"39\",\"1\",\"Training\",\"Stims/Figures/100-C-30-3.bmp\",\"saha:ha\",\"Right\",\"39\",\"4\",\"3\",\"8\",\"C2\",\"J\",\"51\"
\"\",\"\",\"approach-retreat\",\"55\",\"516067\",\"0.0-55.0\",\"\",\"\",\"3-1\",\"8512\",\"40\",\"0\",\"Training\",\"Stims/Figures/85-C-20-2.bmp\",\"va:sha:sha\",\"Up\",\"38\",\"4\",\"4\",\"8\",\"C1\",\"J\",\"52\"
\"\",\"\",\"approach-retreat\",\"56\",\"525054\",\"0.0-56.0\",\"\",\"\",\"3-1\",\"7459\",\"38\",\"1\",\"Training\",\"Stims/Figures/93-J-0-1.bmp\",\"fa:shasha\",\"Down\",\"38\",\"4\",\"5\",\"8\",\"C1\",\"J\",\"53\"
\"\",\"\",\"approach-retreat\",\"57\",\"546538\",\"0.0-57.0\",\"\",\"\",\"3-1\",\"19937\",\"39\",\"1\",\"Training\",\"Stims/Figures/100-J-10-3.bmp\",\"sahaha\",\"Left\",\"39\",\"4\",\"6\",\"8\",\"C2\",\"J\",\"54\"
\"\",\"\",\"approach-retreat\",\"58\",\"552382\",\"0.0-58.0\",\"\",\"\",\"3-1\",\"4314\",\"37\",\"0\",\"Training\",\"Stims/Figures/71-C-30-1.bmp\",\"fasha:sha\",\"Right\",\"39\",\"4\",\"7\",\"8\",\"C1\",\"J\",\"55\"
\"\",\"\",\"approach-retreat\",\"59\",\"557925\",\"0.0-59.0\",\"\",\"\",\"3-1\",\"4004\",\"39\",\"1\",\"Training\",\"Stims/Figures/85-J-0-2.bmp\",\"fashava\",\"Left\",\"39\",\"4\",\"8\",\"8\",\"C1\",\"J\",\"56\"
\"\",\"\",\"approach-retreat\",\"60\",\"563485\",\"0.0-60.0\",\"\",\"\",\"3-1\",\"4019\",\"37\",\"0\",\"Training\",\"Stims/Figures/128-C-30-3.bmp\",\"za:ha:za\",\"Right\",\"39\",\"4\",\"9\",\"8\",\"C2\",\"J\",\"57\"
\"\",\"\",\"approach-retreat\",\"61\",\"572234\",\"0.0-61.0\",\"\",\"\",\"3-1\",\"7210\",\"38\",\"1\",\"Training\",\"Stims/Figures/128-J-10-3.bmp\",\"sa:saha\",\"Down\",\"38\",\"4\",\"10\",\"8\",\"C2\",\"J\",\"58\"
\"\",\"\",\"approach-retreat\",\"62\",\"578470\",\"0.0-62.0\",\"\",\"\",\"3-1\",\"4692\",\"38\",\"0\",\"Training\",\"Stims/Figures/118-C-20-2.bmp\",\"fa:sha:va\",\"Down\",\"40\",\"4\",\"11\",\"8\",\"C1\",\"J\",\"59\"
\"\",\"\",\"approach-retreat\",\"63\",\"585884\",\"0.0-63.0\",\"\",\"\",\"3-1\",\"5868\",\"38\",\"0\",\"Training\",\"Stims/Figures/118-J-0-2.bmp\",\"fa:fa:sha\",\"Up\",\"40\",\"4\",\"12\",\"8\",\"C1\",\"J\",\"60\"
\"\",\"\",\"approach-retreat\",\"64\",\"591770\",\"0.0-64.0\",\"\",\"\",\"3-1\",\"4343\",\"37\",\"0\",\"Training\",\"Stims/Figures/102-C-20-4.bmp\",\"za:saza\",\"Right\",\"39\",\"4\",\"13\",\"8\",\"C2\",\"J\",\"61\"
\"\",\"\",\"approach-retreat\",\"65\",\"606190\",\"0.0-65.0\",\"\",\"\",\"3-1\",\"12883\",\"38\",\"1\",\"Training\",\"Stims/Figures/102-J-10-4.bmp\",\"sa:saza\",\"Down\",\"38\",\"4\",\"14\",\"8\",\"C2\",\"J\",\"62\"
\"\",\"\",\"approach-retreat\",\"66\",\"612499\",\"0.0-66.0\",\"\",\"\",\"3-1\",\"4789\",\"40\",\"1\",\"Training\",\"Stims/Figures/7-J-10-4.bmp\",\"za:ha:ha\",\"Up\",\"40\",\"4\",\"15\",\"8\",\"C2\",\"J\",\"63\"
\"\",\"\",\"approach-retreat\",\"67\",\"620814\",\"0.0-67.0\",\"\",\"\",\"3-1\",\"6776\",\"39\",\"0\",\"Training\",\"Stims/Figures/93-C-30-1.bmp\",\"fa:fasha\",\"Left\",\"37\",\"4\",\"16\",\"8\",\"C1\",\"J\",\"64\"
\"\",\"\",\"approach-retreat\",\"68\",\"628001\",\"0.0-68.0\",\"\",\"\",\"3-1\",\"5650\",\"40\",\"0\",\"Training\",\"Stims/Figures/102-C-20-4.bmp\",\"za:saza\",\"Up\",\"38\",\"5\",\"1\",\"8\",\"C2\",\"J\",\"65\"
\"\",\"\",\"approach-retreat\",\"69\",\"636664\",\"0.0-69.0\",\"\",\"\",\"3-1\",\"7119\",\"40\",\"0\",\"Training\",\"Stims/Figures/128-C-30-3.bmp\",\"za:ha:za\",\"Up\",\"38\",\"5\",\"2\",\"8\",\"C2\",\"J\",\"66\"
\"\",\"\",\"approach-retreat\",\"70\",\"642191\",\"0.0-70.0\",\"\",\"\",\"3-1\",\"3984\",\"39\",\"1\",\"Training\",\"Stims/Figures/93-J-0-1.bmp\",\"fa:shasha\",\"Left\",\"39\",\"5\",\"3\",\"8\",\"C1\",\"J\",\"67\"
\"\",\"\",\"approach-retreat\",\"71\",\"649268\",\"0.0-71.0\",\"\",\"\",\"3-1\",\"5533\",\"39\",\"0\",\"Training\",\"Stims/Figures/71-C-30-1.bmp\",\"fasha:sha\",\"Left\",\"37\",\"5\",\"4\",\"8\",\"C1\",\"J\",\"68\"
\"\",\"\",\"approach-retreat\",\"72\",\"659429\",\"0.0-72.0\",\"\",\"\",\"3-1\",\"8612\",\"38\",\"1\",\"Training\",\"Stims/Figures/85-J-0-2.bmp\",\"fashava\",\"Down\",\"38\",\"5\",\"5\",\"8\",\"C1\",\"J\",\"69\"
\"\",\"\",\"approach-retreat\",\"73\",\"666483\",\"0.0-73.0\",\"\",\"\",\"3-1\",\"5510\",\"38\",\"1\",\"Training\",\"Stims/Figures/102-J-10-4.bmp\",\"sa:saza\",\"Down\",\"38\",\"5\",\"6\",\"8\",\"C2\",\"J\",\"70\"
\"\",\"\",\"approach-retreat\",\"74\",\"672283\",\"0.0-74.0\",\"\",\"\",\"3-1\",\"4266\",\"37\",\"0\",\"Training\",\"Stims/Figures/93-C-30-1.bmp\",\"fa:fasha\",\"Right\",\"39\",\"5\",\"7\",\"8\",\"C1\",\"J\",\"71\"
\"\",\"\",\"approach-retreat\",\"75\",\"683646\",\"0.0-75.0\",\"\",\"\",\"3-1\",\"9821\",\"37\",\"0\",\"Training\",\"Stims/Figures/100-C-30-3.bmp\",\"saha:ha\",\"Right\",\"39\",\"5\",\"8\",\"8\",\"C2\",\"J\",\"72\"
\"\",\"\",\"approach-retreat\",\"76\",\"689709\",\"0.0-76.0\",\"\",\"\",\"3-1\",\"4519\",\"38\",\"0\",\"Training\",\"Stims/Figures/7-C-20-4.bmp\",\"sa:sa:za\",\"Down\",\"40\",\"5\",\"9\",\"8\",\"C2\",\"J\",\"73\"
\"\",\"\",\"approach-retreat\",\"77\",\"695501\",\"0.0-77.0\",\"\",\"\",\"3-1\",\"4248\",\"38\",\"1\",\"Training\",\"Stims/Figures/128-J-10-3.bmp\",\"sa:saha\",\"Down\",\"38\",\"5\",\"10\",\"8\",\"C2\",\"J\",\"74\"
\"\",\"\",\"approach-retreat\",\"78\",\"705862\",\"0.0-78.0\",\"\",\"\",\"3-1\",\"8814\",\"37\",\"1\",\"Training\",\"Stims/Figures/7-J-10-4.bmp\",\"za:ha:ha\",\"Right\",\"37\",\"5\",\"11\",\"8\",\"C2\",\"J\",\"75\"
\"\",\"\",\"approach-retreat\",\"79\",\"714428\",\"0.0-79.0\",\"\",\"\",\"3-1\",\"7030\",\"37\",\"1\",\"Training\",\"Stims/Figures/71-J-0-1.bmp\",\"va:shasha\",\"Right\",\"37\",\"5\",\"12\",\"8\",\"C1\",\"J\",\"76\"
\"\",\"\",\"approach-retreat\",\"80\",\"723873\",\"0.0-80.0\",\"\",\"\",\"3-1\",\"7896\",\"39\",\"1\",\"Training\",\"Stims/Figures/100-J-10-3.bmp\",\"sahaha\",\"Left\",\"39\",\"5\",\"13\",\"8\",\"C2\",\"J\",\"77\"
\"\",\"\",\"approach-retreat\",\"81\",\"733288\",\"0.0-81.0\",\"\",\"\",\"3-1\",\"7867\",\"39\",\"0\",\"Training\",\"Stims/Figures/118-C-20-2.bmp\",\"fa:sha:va\",\"Left\",\"37\",\"5\",\"14\",\"8\",\"C1\",\"J\",\"78\"
\"\",\"\",\"approach-retreat\",\"82\",\"747578\",\"0.0-82.0\",\"\",\"\",\"3-1\",\"12752\",\"40\",\"0\",\"Training\",\"Stims/Figures/85-C-20-2.bmp\",\"va:sha:sha\",\"Up\",\"38\",\"5\",\"15\",\"8\",\"C1\",\"J\",\"79\"
\"\",\"\",\"approach-retreat\",\"83\",\"753595\",\"0.0-83.0\",\"\",\"\",\"3-1\",\"4472\",\"40\",\"1\",\"Training\",\"Stims/Figures/118-J-0-2.bmp\",\"fa:fa:sha\",\"Up\",\"40\",\"5\",\"16\",\"8\",\"C1\",\"J\",\"80\"
\"\",\"\",\"approach-retreat\",\"84\",\"759224\",\"0.0-84.0\",\"\",\"\",\"3-1\",\"4091\",\"37\",\"0\",\"Training\",\"Stims/Figures/71-C-30-1.bmp\",\"fasha:sha\",\"Right\",\"39\",\"6\",\"1\",\"8\",\"C1\",\"J\",\"81\"
\"\",\"\",\"approach-retreat\",\"85\",\"769251\",\"0.0-85.0\",\"\",\"\",\"3-1\",\"8484\",\"37\",\"1\",\"Training\",\"Stims/Figures/128-J-10-3.bmp\",\"sa:saha\",\"Right\",\"37\",\"6\",\"2\",\"8\",\"C2\",\"J\",\"82\"
\"\",\"\",\"approach-retreat\",\"86\",\"795293\",\"0.0-86.0\",\"\",\"\",\"3-1\",\"24499\",\"40\",\"1\",\"Training\",\"Stims/Figures/118-J-0-2.bmp\",\"fa:fa:sha\",\"Up\",\"40\",\"6\",\"3\",\"8\",\"C1\",\"J\",\"83\"
\"\",\"\",\"approach-retreat\",\"87\",\"806720\",\"0.0-87.0\",\"\",\"\",\"3-1\",\"9885\",\"38\",\"0\",\"Training\",\"Stims/Figures/85-C-20-2.bmp\",\"va:sha:sha\",\"Down\",\"40\",\"6\",\"4\",\"8\",\"C1\",\"J\",\"84\"
\"\",\"\",\"approach-retreat\",\"88\",\"813609\",\"0.0-88.0\",\"\",\"\",\"3-1\",\"5377\",\"40\",\"1\",\"Training\",\"Stims/Figures/93-J-0-1.bmp\",\"fa:shasha\",\"Up\",\"40\",\"6\",\"5\",\"8\",\"C1\",\"J\",\"85\"
\"\",\"\",\"approach-retreat\",\"89\",\"836039\",\"0.0-89.0\",\"\",\"\",\"3-1\",\"20887\",\"39\",\"0\",\"Training\",\"Stims/Figures/102-C-20-4.bmp\",\"za:saza\",\"Left\",\"37\",\"6\",\"6\",\"8\",\"C2\",\"J\",\"86\"
\"\",\"\",\"approach-retreat\",\"90\",\"846108\",\"0.0-90.0\",\"\",\"\",\"3-1\",\"8530\",\"39\",\"0\",\"Training\",\"Stims/Figures/118-C-20-2.bmp\",\"fa:sha:va\",\"Left\",\"37\",\"6\",\"7\",\"8\",\"C1\",\"J\",\"87\"
\"\",\"\",\"approach-retreat\",\"91\",\"853878\",\"0.0-91.0\",\"\",\"\",\"3-1\",\"6229\",\"38\",\"0\",\"Training\",\"Stims/Figures/100-C-30-3.bmp\",\"saha:ha\",\"Down\",\"40\",\"6\",\"8\",\"8\",\"C2\",\"J\",\"88\"
\"\",\"\",\"approach-retreat\",\"92\",\"859635\",\"0.0-92.0\",\"\",\"\",\"3-1\",\"4216\",\"40\",\"0\",\"Training\",\"Stims/Figures/93-C-30-1.bmp\",\"fa:fasha\",\"Up\",\"38\",\"6\",\"9\",\"8\",\"C1\",\"J\",\"89\"
\"\",\"\",\"approach-retreat\",\"93\",\"867730\",\"0.0-93.0\",\"\",\"\",\"3-1\",\"6552\",\"37\",\"1\",\"Training\",\"Stims/Figures/7-J-10-4.bmp\",\"za:ha:ha\",\"Right\",\"37\",\"6\",\"10\",\"8\",\"C2\",\"J\",\"90\"
\"\",\"\",\"approach-retreat\",\"94\",\"878769\",\"0.0-94.0\",\"\",\"\",\"3-1\",\"9496\",\"38\",\"1\",\"Training\",\"Stims/Figures/85-J-0-2.bmp\",\"fashava\",\"Down\",\"38\",\"6\",\"11\",\"8\",\"C1\",\"J\",\"91\"
\"\",\"\",\"approach-retreat\",\"95\",\"890328\",\"0.0-95.0\",\"\",\"\",\"3-1\",\"10015\",\"37\",\"1\",\"Training\",\"Stims/Figures/71-J-0-1.bmp\",\"va:shasha\",\"Right\",\"37\",\"6\",\"12\",\"8\",\"C1\",\"J\",\"92\"
\"\",\"\",\"approach-retreat\",\"96\",\"896190\",\"0.0-96.0\",\"\",\"\",\"3-1\",\"4322\",\"38\",\"0\",\"Training\",\"Stims/Figures/7-C-20-4.bmp\",\"sa:sa:za\",\"Down\",\"40\",\"6\",\"13\",\"8\",\"C2\",\"J\",\"93\"
\"\",\"\",\"approach-retreat\",\"97\",\"911599\",\"0.0-97.0\",\"\",\"\",\"3-1\",\"13870\",\"39\",\"0\",\"Training\",\"Stims/Figures/128-C-30-3.bmp\",\"za:ha:za\",\"Left\",\"37\",\"6\",\"14\",\"8\",\"C2\",\"J\",\"94\"
\"\",\"\",\"approach-retreat\",\"98\",\"921895\",\"0.0-98.0\",\"\",\"\",\"3-1\",\"8755\",\"39\",\"1\",\"Training\",\"Stims/Figures/100-J-10-3.bmp\",\"sahaha\",\"Left\",\"39\",\"6\",\"15\",\"8\",\"C2\",\"J\",\"95\"
\"\",\"\",\"approach-retreat\",\"99\",\"931288\",\"0.0-99.0\",\"\",\"\",\"3-1\",\"7855\",\"40\",\"1\",\"Training\",\"Stims/Figures/102-J-10-4.bmp\",\"sa:saza\",\"Up\",\"40\",\"6\",\"16\",\"8\",\"C2\",\"J\",\"96\"
\"\",\"\",\"approach-retreat\",\"100\",\"936841\",\"0.0-100.0\",\"\",\"\",\"3-1\",\"4015\",\"40\",\"0\",\"Training\",\"Stims/Figures/118-C-20-2.bmp\",\"fa:sha:va\",\"Up\",\"38\",\"7\",\"1\",\"8\",\"C1\",\"J\",\"97\"
\"\",\"\",\"approach-retreat\",\"101\",\"942482\",\"0.0-101.0\",\"\",\"\",\"3-1\",\"4096\",\"38\",\"0\",\"Training\",\"Stims/Figures/85-C-20-2.bmp\",\"va:sha:sha\",\"Down\",\"40\",\"7\",\"2\",\"8\",\"C1\",\"J\",\"98\"
\"\",\"\",\"approach-retreat\",\"102\",\"949140\",\"0.0-102.0\",\"\",\"\",\"3-1\",\"5119\",\"38\",\"0\",\"Training\",\"Stims/Figures/102-C-20-4.bmp\",\"za:saza\",\"Down\",\"40\",\"7\",\"3\",\"8\",\"C2\",\"J\",\"99\"
\"\",\"\",\"approach-retreat\",\"103\",\"956809\",\"0.0-103.0\",\"\",\"\",\"3-1\",\"6141\",\"40\",\"1\",\"Training\",\"Stims/Figures/102-J-10-4.bmp\",\"sa:saza\",\"Up\",\"40\",\"7\",\"4\",\"8\",\"C2\",\"J\",\"100\"
\"\",\"\",\"approach-retreat\",\"104\",\"963799\",\"0.0-104.0\",\"\",\"\",\"3-1\",\"5444\",\"39\",\"1\",\"Training\",\"Stims/Figures/100-C-30-3.bmp\",\"saha:ha\",\"Right\",\"39\",\"7\",\"5\",\"8\",\"C2\",\"J\",\"101\"
\"\",\"\",\"approach-retreat\",\"105\",\"969184\",\"0.0-105.0\",\"\",\"\",\"3-1\",\"3842\",\"39\",\"0\",\"Training\",\"Stims/Figures/93-J-0-1.bmp\",\"fa:shasha\",\"Right\",\"37\",\"7\",\"6\",\"8\",\"C1\",\"J\",\"102\"
\"\",\"\",\"approach-retreat\",\"106\",\"975536\",\"0.0-106.0\",\"\",\"\",\"3-1\",\"4805\",\"37\",\"1\",\"Training\",\"Stims/Figures/71-C-30-1.bmp\",\"fasha:sha\",\"Left\",\"37\",\"7\",\"7\",\"8\",\"C1\",\"J\",\"103\"
\"\",\"\",\"approach-retreat\",\"107\",\"982817\",\"0.0-107.0\",\"\",\"\",\"3-1\",\"5741\",\"39\",\"1\",\"Training\",\"Stims/Figures/71-J-0-1.bmp\",\"va:shasha\",\"Left\",\"39\",\"7\",\"8\",\"8\",\"C1\",\"J\",\"104\"
\"\",\"\",\"approach-retreat\",\"108\",\"988335\",\"0.0-108.0\",\"\",\"\",\"3-1\",\"3976\",\"39\",\"0\",\"Training\",\"Stims/Figures/93-C-30-1.bmp\",\"fa:fasha\",\"Left\",\"37\",\"7\",\"9\",\"8\",\"C1\",\"J\",\"105\"
\"\",\"\",\"approach-retreat\",\"109\",\"996132\",\"0.0-109.0\",\"\",\"\",\"3-1\",\"6255\",\"38\",\"1\",\"Training\",\"Stims/Figures/128-C-30-3.bmp\",\"za:ha:za\",\"Up\",\"38\",\"7\",\"10\",\"8\",\"C2\",\"J\",\"106\"
\"\",\"\",\"approach-retreat\",\"110\",\"1002718\",\"0.0-110.0\",\"\",\"\",\"3-1\",\"5042\",\"40\",\"0\",\"Training\",\"Stims/Figures/7-C-20-4.bmp\",\"sa:sa:za\",\"Up\",\"38\",\"7\",\"11\",\"8\",\"C2\",\"J\",\"107\"
\"\",\"\",\"approach-retreat\",\"111\",\"1008955\",\"0.0-111.0\",\"\",\"\",\"3-1\",\"4701\",\"39\",\"0\",\"Training\",\"Stims/Figures/7-J-10-4.bmp\",\"za:ha:ha\",\"Right\",\"37\",\"7\",\"12\",\"8\",\"C2\",\"J\",\"108\"
\"\",\"\",\"approach-retreat\",\"112\",\"1014037\",\"0.0-112.0\",\"\",\"\",\"3-1\",\"3540\",\"39\",\"1\",\"Training\",\"Stims/Figures/85-J-0-2.bmp\",\"fashava\",\"Left\",\"39\",\"7\",\"13\",\"8\",\"C1\",\"J\",\"109\"
\"\",\"\",\"approach-retreat\",\"113\",\"1021710\",\"0.0-113.0\",\"\",\"\",\"3-1\",\"6128\",\"38\",\"1\",\"Training\",\"Stims/Figures/118-J-0-2.bmp\",\"fa:fa:sha\",\"Down\",\"38\",\"7\",\"14\",\"8\",\"C1\",\"J\",\"110\"
\"\",\"\",\"approach-retreat\",\"114\",\"1029243\",\"0.0-114.0\",\"\",\"\",\"3-1\",\"5986\",\"37\",\"1\",\"Training\",\"Stims/Figures/128-J-10-3.bmp\",\"sa:saha\",\"Right\",\"37\",\"7\",\"15\",\"8\",\"C2\",\"J\",\"111\"
\"\",\"\",\"approach-retreat\",\"115\",\"1037012\",\"0.0-115.0\",\"\",\"\",\"3-1\",\"6227\",\"40\",\"0\",\"Training\",\"Stims/Figures/100-J-10-3.bmp\",\"sahaha\",\"Down\",\"38\",\"7\",\"16\",\"8\",\"C2\",\"J\",\"112\"
\"\",\"\",\"approach-retreat\",\"116\",\"1043139\",\"0.0-116.0\",\"\",\"\",\"3-1\",\"4578\",\"38\",\"1\",\"Training\",\"Stims/Figures/128-J-10-3.bmp\",\"sa:saha\",\"Down\",\"38\",\"8\",\"1\",\"8\",\"C2\",\"J\",\"113\"
\"\",\"\",\"approach-retreat\",\"117\",\"1049176\",\"0.0-117.0\",\"\",\"\",\"3-1\",\"4492\",\"40\",\"1\",\"Training\",\"Stims/Figures/118-J-0-2.bmp\",\"fa:fa:sha\",\"Up\",\"40\",\"8\",\"2\",\"8\",\"C1\",\"J\",\"114\"
\"\",\"\",\"approach-retreat\",\"118\",\"1054771\",\"0.0-118.0\",\"\",\"\",\"3-1\",\"4052\",\"40\",\"1\",\"Training\",\"Stims/Figures/7-C-20-4.bmp\",\"sa:sa:za\",\"Down\",\"40\",\"8\",\"3\",\"8\",\"C2\",\"J\",\"115\"
\"\",\"\",\"approach-retreat\",\"119\",\"1062884\",\"0.0-119.0\",\"\",\"\",\"3-1\",\"6573\",\"39\",\"1\",\"Training\",\"Stims/Figures/85-C-20-2.bmp\",\"va:sha:sha\",\"Right\",\"39\",\"8\",\"4\",\"8\",\"C1\",\"J\",\"116\"
\"\",\"\",\"approach-retreat\",\"120\",\"1068342\",\"0.0-120.0\",\"\",\"\",\"3-1\",\"3910\",\"39\",\"1\",\"Training\",\"Stims/Figures/100-J-10-3.bmp\",\"sahaha\",\"Left\",\"39\",\"8\",\"5\",\"8\",\"C2\",\"J\",\"117\"
\"\",\"\",\"approach-retreat\",\"121\",\"1074238\",\"0.0-121.0\",\"\",\"\",\"3-1\",\"4351\",\"39\",\"1\",\"Training\",\"Stims/Figures/71-J-0-1.bmp\",\"va:shasha\",\"Left\",\"39\",\"8\",\"6\",\"8\",\"C1\",\"J\",\"118\"
\"\",\"\",\"approach-retreat\",\"122\",\"1079628\",\"0.0-122.0\",\"\",\"\",\"3-1\",\"3854\",\"39\",\"1\",\"Training\",\"Stims/Figures/71-C-30-1.bmp\",\"fasha:sha\",\"Right\",\"39\",\"8\",\"7\",\"8\",\"C1\",\"J\",\"119\"
\"\",\"\",\"approach-retreat\",\"123\",\"1085754\",\"0.0-123.0\",\"\",\"\",\"3-1\",\"4583\",\"38\",\"1\",\"Training\",\"Stims/Figures/100-C-30-3.bmp\",\"saha:ha\",\"Up\",\"38\",\"8\",\"8\",\"8\",\"C2\",\"J\",\"120\"
\"\",\"\",\"approach-retreat\",\"124\",\"1092114\",\"0.0-124.0\",\"\",\"\",\"3-1\",\"4820\",\"39\",\"0\",\"Training\",\"Stims/Figures/93-C-30-1.bmp\",\"fa:fasha\",\"Left\",\"37\",\"8\",\"9\",\"8\",\"C1\",\"J\",\"121\"
\"\",\"\",\"approach-retreat\",\"125\",\"1098491\",\"0.0-125.0\",\"\",\"\",\"3-1\",\"4842\",\"39\",\"0\",\"Training\",\"Stims/Figures/85-J-0-2.bmp\",\"fashava\",\"Right\",\"37\",\"8\",\"10\",\"8\",\"C1\",\"J\",\"122\"
\"\",\"\",\"approach-retreat\",\"126\",\"1107874\",\"0.0-126.0\",\"\",\"\",\"3-1\",\"7836\",\"40\",\"1\",\"Training\",\"Stims/Figures/128-C-30-3.bmp\",\"za:ha:za\",\"Down\",\"40\",\"8\",\"11\",\"8\",\"C2\",\"J\",\"123\"
\"\",\"\",\"approach-retreat\",\"127\",\"1113520\",\"0.0-127.0\",\"\",\"\",\"3-1\",\"4101\",\"39\",\"0\",\"Training\",\"Stims/Figures/102-C-20-4.bmp\",\"za:saza\",\"Left\",\"37\",\"8\",\"12\",\"8\",\"C2\",\"J\",\"124\"
\"\",\"\",\"approach-retreat\",\"128\",\"1119994\",\"0.0-128.0\",\"\",\"\",\"3-1\",\"4927\",\"40\",\"0\",\"Training\",\"Stims/Figures/118-C-20-2.bmp\",\"fa:sha:va\",\"Up\",\"38\",\"8\",\"13\",\"8\",\"C1\",\"J\",\"125\"
\"\",\"\",\"approach-retreat\",\"129\",\"1127742\",\"0.0-129.0\",\"\",\"\",\"3-1\",\"6216\",\"39\",\"0\",\"Training\",\"Stims/Figures/93-J-0-1.bmp\",\"fa:shasha\",\"Right\",\"37\",\"8\",\"14\",\"8\",\"C1\",\"J\",\"126\"
\"\",\"\",\"approach-retreat\",\"130\",\"1135331\",\"0.0-130.0\",\"\",\"\",\"3-1\",\"6045\",\"40\",\"0\",\"Training\",\"Stims/Figures/7-J-10-4.bmp\",\"za:ha:ha\",\"Down\",\"38\",\"8\",\"15\",\"8\",\"C2\",\"J\",\"127\"
\"\",\"\",\"approach-retreat\",\"131\",\"1146017\",\"0.0-131.0\",\"\",\"\",\"3-1\",\"9140\",\"40\",\"1\",\"Training\",\"Stims/Figures/102-J-10-4.bmp\",\"sa:saza\",\"Up\",\"40\",\"8\",\"16\",\"8\",\"C2\",\"J\",\"128\"
\"\",\"\",\"approach-retreat\",\"132\",\"1154920\",\"0.0-132.0\",\"\",\"\",\"3-1\",\"7360\",\"40\",\"0\",\"Training\",\"Stims/Figures/128-J-10-3.bmp\",\"sa:saha\",\"Down\",\"38\",\"9\",\"1\",\"8\",\"C2\",\"J\",\"129\"
\"\",\"\",\"approach-retreat\",\"133\",\"1160461\",\"0.0-133.0\",\"\",\"\",\"3-1\",\"3993\",\"37\",\"1\",\"Training\",\"Stims/Figures/102-C-20-4.bmp\",\"za:saza\",\"Left\",\"37\",\"9\",\"2\",\"8\",\"C2\",\"J\",\"130\"
\"\",\"\",\"approach-retreat\",\"134\",\"1166671\",\"0.0-134.0\",\"\",\"\",\"3-1\",\"4676\",\"39\",\"0\",\"Training\",\"Stims/Figures/93-J-0-1.bmp\",\"fa:shasha\",\"Right\",\"37\",\"9\",\"3\",\"8\",\"C1\",\"J\",\"131\"
\"\",\"\",\"approach-retreat\",\"135\",\"1174439\",\"0.0-135.0\",\"\",\"\",\"3-1\",\"6221\",\"39\",\"1\",\"Training\",\"Stims/Figures/118-C-20-2.bmp\",\"fa:sha:va\",\"Right\",\"39\",\"9\",\"4\",\"8\",\"C1\",\"J\",\"132\"
\"\",\"\",\"approach-retreat\",\"136\",\"1180189\",\"0.0-136.0\",\"\",\"\",\"3-1\",\"4211\",\"39\",\"1\",\"Training\",\"Stims/Figures/118-J-0-2.bmp\",\"fa:fa:sha\",\"Left\",\"39\",\"9\",\"5\",\"8\",\"C1\",\"J\",\"133\"
\"\",\"\",\"approach-retreat\",\"137\",\"1187252\",\"0.0-137.0\",\"\",\"\",\"3-1\",\"5521\",\"39\",\"0\",\"Training\",\"Stims/Figures/85-C-20-2.bmp\",\"va:sha:sha\",\"Left\",\"37\",\"9\",\"6\",\"8\",\"C1\",\"J\",\"134\"
\"\",\"\",\"approach-retreat\",\"138\",\"1192900\",\"0.0-138.0\",\"\",\"\",\"3-1\",\"4104\",\"37\",\"1\",\"Training\",\"Stims/Figures/100-J-10-3.bmp\",\"sahaha\",\"Right\",\"37\",\"9\",\"7\",\"8\",\"C2\",\"J\",\"135\"
\"\",\"\",\"approach-retreat\",\"139\",\"1198513\",\"0.0-139.0\",\"\",\"\",\"3-1\",\"4067\",\"40\",\"1\",\"Training\",\"Stims/Figures/102-J-10-4.bmp\",\"sa:saza\",\"Up\",\"40\",\"9\",\"8\",\"8\",\"C2\",\"J\",\"136\"
\"\",\"\",\"approach-retreat\",\"140\",\"1204836\",\"0.0-140.0\",\"\",\"\",\"3-1\",\"4781\",\"38\",\"1\",\"Training\",\"Stims/Figures/128-C-30-3.bmp\",\"za:ha:za\",\"Up\",\"38\",\"9\",\"9\",\"8\",\"C2\",\"J\",\"137\"
\"\",\"\",\"approach-retreat\",\"141\",\"1213720\",\"0.0-141.0\",\"\",\"\",\"3-1\",\"7322\",\"38\",\"1\",\"Training\",\"Stims/Figures/7-C-20-4.bmp\",\"sa:sa:za\",\"Up\",\"38\",\"9\",\"10\",\"8\",\"C2\",\"J\",\"138\"
\"\",\"\",\"approach-retreat\",\"142\",\"1222070\",\"0.0-142.0\",\"\",\"\",\"3-1\",\"6817\",\"40\",\"0\",\"Training\",\"Stims/Figures/71-J-0-1.bmp\",\"va:shasha\",\"Down\",\"38\",\"9\",\"11\",\"8\",\"C1\",\"J\",\"139\"
\"\",\"\",\"approach-retreat\",\"143\",\"1227615\",\"0.0-143.0\",\"\",\"\",\"3-1\",\"4004\",\"38\",\"0\",\"Training\",\"Stims/Figures/7-J-10-4.bmp\",\"za:ha:ha\",\"Up\",\"40\",\"9\",\"12\",\"8\",\"C2\",\"J\",\"140\"
\"\",\"\",\"approach-retreat\",\"144\",\"1241459\",\"0.0-144.0\",\"\",\"\",\"3-1\",\"12298\",\"38\",\"1\",\"Training\",\"Stims/Figures/85-J-0-2.bmp\",\"fashava\",\"Down\",\"38\",\"9\",\"13\",\"8\",\"C1\",\"J\",\"141\"
\"\",\"\",\"approach-retreat\",\"145\",\"1248401\",\"0.0-145.0\",\"\",\"\",\"3-1\",\"5402\",\"37\",\"0\",\"Training\",\"Stims/Figures/71-C-30-1.bmp\",\"fasha:sha\",\"Right\",\"39\",\"9\",\"14\",\"8\",\"C1\",\"J\",\"142\"
\"\",\"\",\"approach-retreat\",\"146\",\"1255478\",\"0.0-146.0\",\"\",\"\",\"3-1\",\"5532\",\"39\",\"0\",\"Training\",\"Stims/Figures/100-C-30-3.bmp\",\"saha:ha\",\"Left\",\"37\",\"9\",\"15\",\"8\",\"C2\",\"J\",\"143\"
\"\",\"\",\"approach-retreat\",\"147\",\"1261473\",\"0.0-147.0\",\"\",\"\",\"3-1\",\"4448\",\"40\",\"1\",\"Training\",\"Stims/Figures/93-C-30-1.bmp\",\"fa:fasha\",\"Down\",\"40\",\"9\",\"16\",\"8\",\"C1\",\"J\",\"144\"
\"\",\"\",\"instructions\",\"148\",\"1267763\",\"0.0-148.0\",\"\",\"\",\"3-1\",\"10739\",\"38\",\"0\",\"Training\",\"Stims/Figures/93-C-30-1.bmp\",\"fa:fasha\",\"Down\",\"40\",\"9\",\"16\",\"8\",\"C1\",\"J\",\"\"
\"\",\"\",\"approach-retreat\",\"149\",\"1273749\",\"0.0-149.0\",\"\",\"\",\"3-1\",\"4453\",\"40\",\"1\",\"Testing\",\"Stims/Figures/93-J-0-1.bmp\",\"fa:shasha\",\"Up\",\"40\",\"1\",\"1\",\"8\",\"C1\",\"J\",\"1\"
\"\",\"\",\"approach-retreat\",\"150\",\"1279316\",\"0.0-150.0\",\"\",\"\",\"3-1\",\"4028\",\"40\",\"1\",\"Testing\",\"Stims/Figures/118-J-0-2.bmp\",\"fa:fa:sha\",\"Up\",\"40\",\"1\",\"2\",\"8\",\"C1\",\"J\",\"2\"
\"\",\"\",\"approach-retreat\",\"151\",\"1285540\",\"0.0-151.0\",\"\",\"\",\"3-1\",\"4691\",\"38\",\"0\",\"Testing\",\"Stims/Figures/57-C-30-1.bmp\",\"va:sha:va\",\"Down\",\"40\",\"1\",\"3\",\"8\",\"C1\",\"J\",\"3\"
\"\",\"\",\"approach-retreat\",\"152\",\"1291200\",\"0.0-152.0\",\"\",\"\",\"3-1\",\"4123\",\"39\",\"0\",\"Testing\",\"Stims/Figures/93-C-30-1.bmp\",\"fa:fasha\",\"Left\",\"37\",\"1\",\"4\",\"8\",\"C1\",\"J\",\"4\"
\"\",\"\",\"approach-retreat\",\"153\",\"1296379\",\"0.0-153.0\",\"\",\"\",\"3-1\",\"3647\",\"37\",\"0\",\"Testing\",\"Stims/Figures/85-J-0-2.bmp\",\"fashava\",\"Left\",\"39\",\"1\",\"5\",\"8\",\"C1\",\"J\",\"5\"
\"\",\"\",\"approach-retreat\",\"154\",\"1301599\",\"0.0-154.0\",\"\",\"\",\"3-1\",\"3686\",\"39\",\"1\",\"Testing\",\"Stims/Figures/7-C-20-4.bmp\",\"sa:sa:za\",\"Right\",\"39\",\"1\",\"6\",\"8\",\"C2\",\"J\",\"6\"
\"\",\"\",\"approach-retreat\",\"155\",\"1307598\",\"0.0-155.0\",\"\",\"\",\"3-1\",\"4467\",\"39\",\"0\",\"Testing\",\"Stims/Figures/85-C-20-2.bmp\",\"va:sha:sha\",\"Left\",\"37\",\"1\",\"7\",\"8\",\"C1\",\"J\",\"7\"
\"\",\"\",\"approach-retreat\",\"156\",\"1314271\",\"0.0-156.0\",\"\",\"\",\"3-1\",\"5140\",\"39\",\"0\",\"Testing\",\"Stims/Figures/100-J-10-3.bmp\",\"sahaha\",\"Right\",\"37\",\"1\",\"8\",\"8\",\"C2\",\"J\",\"8\"
\"\",\"\",\"approach-retreat\",\"157\",\"1320039\",\"0.0-157.0\",\"\",\"\",\"3-1\",\"4237\",\"40\",\"0\",\"Testing\",\"Stims/Figures/139-C-20-2.bmp\",\"fa:fa:va\",\"Up\",\"38\",\"1\",\"9\",\"8\",\"C1\",\"J\",\"9\"
\"\",\"\",\"approach-retreat\",\"158\",\"1325907\",\"0.0-158.0\",\"\",\"\",\"3-1\",\"4334\",\"38\",\"1\",\"Testing\",\"Stims/Figures/139-J-0-2.bmp\",\"vashava\",\"Down\",\"38\",\"1\",\"10\",\"8\",\"C1\",\"J\",\"10\"
\"\",\"\",\"approach-retreat\",\"159\",\"1331498\",\"0.0-159.0\",\"\",\"\",\"3-1\",\"4057\",\"38\",\"1\",\"Testing\",\"Stims/Figures/111-J-10-3.bmp\",\"zaha:za\",\"Down\",\"38\",\"1\",\"11\",\"8\",\"C2\",\"J\",\"11\"
\"\",\"\",\"approach-retreat\",\"160\",\"1337118\",\"0.0-160.0\",\"\",\"\",\"3-1\",\"4085\",\"38\",\"1\",\"Testing\",\"Stims/Figures/57-J-0-1.bmp\",\"vashasha\",\"Down\",\"38\",\"1\",\"12\",\"8\",\"C1\",\"J\",\"12\"
\"\",\"\",\"approach-retreat\",\"161\",\"1345064\",\"0.0-161.0\",\"\",\"\",\"3-1\",\"6411\",\"39\",\"1\",\"Testing\",\"Stims/Figures/87-J-10-4.bmp\",\"sa:sa:ha\",\"Left\",\"39\",\"1\",\"13\",\"8\",\"C2\",\"J\",\"13\"
\"\",\"\",\"approach-retreat\",\"162\",\"1351225\",\"0.0-162.0\",\"\",\"\",\"3-1\",\"4627\",\"39\",\"1\",\"Testing\",\"Stims/Figures/102-C-20-4.bmp\",\"za:saza\",\"Right\",\"39\",\"1\",\"14\",\"8\",\"C2\",\"J\",\"14\"
\"\",\"\",\"approach-retreat\",\"163\",\"1356754\",\"0.0-163.0\",\"\",\"\",\"3-1\",\"3998\",\"37\",\"0\",\"Testing\",\"Stims/Figures/111-C-30-3.bmp\",\"zasaha\",\"Right\",\"39\",\"1\",\"15\",\"8\",\"C2\",\"J\",\"15\"
\"\",\"\",\"approach-retreat\",\"164\",\"1362646\",\"0.0-164.0\",\"\",\"\",\"3-1\",\"4360\",\"38\",\"1\",\"Testing\",\"Stims/Figures/100-C-30-3.bmp\",\"saha:ha\",\"Up\",\"38\",\"1\",\"16\",\"8\",\"C2\",\"J\",\"16\"
\"\",\"\",\"approach-retreat\",\"165\",\"1371422\",\"0.0-165.0\",\"\",\"\",\"3-1\",\"7236\",\"37\",\"1\",\"Testing\",\"Stims/Figures/102-J-10-4.bmp\",\"sa:saza\",\"Right\",\"37\",\"1\",\"17\",\"8\",\"C2\",\"J\",\"17\"
\"\",\"\",\"approach-retreat\",\"166\",\"1377169\",\"0.0-166.0\",\"\",\"\",\"3-1\",\"4217\",\"38\",\"0\",\"Testing\",\"Stims/Figures/128-C-30-3.bmp\",\"za:ha:za\",\"Down\",\"40\",\"1\",\"18\",\"8\",\"C2\",\"J\",\"18\"
\"\",\"\",\"approach-retreat\",\"167\",\"1383460\",\"0.0-167.0\",\"\",\"\",\"3-1\",\"4737\",\"40\",\"0\",\"Testing\",\"Stims/Figures/7-J-10-4.bmp\",\"za:ha:ha\",\"Down\",\"38\",\"1\",\"19\",\"8\",\"C2\",\"J\",\"19\"
\"\",\"\",\"approach-retreat\",\"168\",\"1390771\",\"0.0-168.0\",\"\",\"\",\"3-1\",\"5778\",\"38\",\"0\",\"Testing\",\"Stims/Figures/71-J-0-1.bmp\",\"va:shasha\",\"Up\",\"40\",\"1\",\"20\",\"8\",\"C1\",\"J\",\"20\"
\"\",\"\",\"approach-retreat\",\"169\",\"1401019\",\"0.0-169.0\",\"\",\"\",\"3-1\",\"8719\",\"39\",\"0\",\"Testing\",\"Stims/Figures/87-C-20-4.bmp\",\"sasa:za\",\"Left\",\"37\",\"1\",\"21\",\"8\",\"C2\",\"J\",\"21\"
\"\",\"\",\"approach-retreat\",\"170\",\"1406724\",\"0.0-170.0\",\"\",\"\",\"3-1\",\"4175\",\"39\",\"0\",\"Testing\",\"Stims/Figures/118-C-20-2.bmp\",\"fa:sha:va\",\"Left\",\"37\",\"1\",\"22\",\"8\",\"C1\",\"J\",\"22\"
\"\",\"\",\"approach-retreat\",\"171\",\"1413627\",\"0.0-171.0\",\"\",\"\",\"3-1\",\"5395\",\"39\",\"1\",\"Testing\",\"Stims/Figures/71-C-30-1.bmp\",\"fasha:sha\",\"Right\",\"39\",\"1\",\"23\",\"8\",\"C1\",\"J\",\"23\"
\"\",\"\",\"approach-retreat\",\"172\",\"1419642\",\"0.0-172.0\",\"\",\"\",\"3-1\",\"4484\",\"38\",\"0\",\"Testing\",\"Stims/Figures/128-J-10-3.bmp\",\"sa:saha\",\"Up\",\"40\",\"1\",\"24\",\"8\",\"C2\",\"J\",\"24\"
\"\",\"\",\"approach-retreat\",\"173\",\"1428704\",\"0.0-173.0\",\"\",\"\",\"3-1\",\"7549\",\"38\",\"0\",\"Testing\",\"Stims/Figures/7-C-20-4.bmp\",\"sa:sa:za\",\"Down\",\"40\",\"2\",\"1\",\"8\",\"C2\",\"J\",\"25\"
\"\",\"\",\"approach-retreat\",\"174\",\"1434000\",\"0.0-174.0\",\"\",\"\",\"3-1\",\"3752\",\"39\",\"1\",\"Testing\",\"Stims/Figures/111-J-10-3.bmp\",\"zaha:za\",\"Left\",\"39\",\"2\",\"2\",\"8\",\"C2\",\"J\",\"26\"
\"\",\"\",\"approach-retreat\",\"175\",\"1445422\",\"0.0-175.0\",\"\",\"\",\"3-1\",\"9891\",\"38\",\"0\",\"Testing\",\"Stims/Figures/139-C-20-2.bmp\",\"fa:fa:va\",\"Down\",\"40\",\"2\",\"3\",\"8\",\"C1\",\"J\",\"27\"
\"\",\"\",\"approach-retreat\",\"176\",\"1458818\",\"0.0-176.0\",\"\",\"\",\"3-1\",\"11864\",\"39\",\"1\",\"Testing\",\"Stims/Figures/93-J-0-1.bmp\",\"fa:shasha\",\"Left\",\"39\",\"2\",\"4\",\"8\",\"C1\",\"J\",\"28\"
\"\",\"\",\"approach-retreat\",\"177\",\"1470345\",\"0.0-177.0\",\"\",\"\",\"3-1\",\"9995\",\"39\",\"1\",\"Testing\",\"Stims/Figures/85-C-20-2.bmp\",\"va:sha:sha\",\"Right\",\"39\",\"2\",\"5\",\"8\",\"C1\",\"J\",\"29\"
\"\",\"\",\"approach-retreat\",\"178\",\"1480375\",\"0.0-178.0\",\"\",\"\",\"3-1\",\"8496\",\"38\",\"0\",\"Testing\",\"Stims/Figures/87-C-20-4.bmp\",\"sasa:za\",\"Down\",\"40\",\"2\",\"6\",\"8\",\"C2\",\"J\",\"30\"
\"\",\"\",\"approach-retreat\",\"179\",\"1487055\",\"0.0-179.0\",\"\",\"\",\"3-1\",\"5146\",\"37\",\"0\",\"Testing\",\"Stims/Figures/111-C-30-3.bmp\",\"zasaha\",\"Right\",\"39\",\"2\",\"7\",\"8\",\"C2\",\"J\",\"31\"
\"\",\"\",\"approach-retreat\",\"180\",\"1494743\",\"0.0-180.0\",\"\",\"\",\"3-1\",\"6154\",\"39\",\"0\",\"Testing\",\"Stims/Figures/139-J-0-2.bmp\",\"vashava\",\"Right\",\"37\",\"2\",\"8\",\"8\",\"C1\",\"J\",\"32\"
\"\",\"\",\"approach-retreat\",\"181\",\"1500798\",\"0.0-181.0\",\"\",\"\",\"3-1\",\"4523\",\"39\",\"1\",\"Testing\",\"Stims/Figures/87-J-10-4.bmp\",\"sa:sa:ha\",\"Left\",\"39\",\"2\",\"9\",\"8\",\"C2\",\"J\",\"33\"
\"\",\"\",\"approach-retreat\",\"182\",\"1506460\",\"0.0-182.0\",\"\",\"\",\"3-1\",\"4128\",\"38\",\"0\",\"Testing\",\"Stims/Figures/102-C-20-4.bmp\",\"za:saza\",\"Down\",\"40\",\"2\",\"10\",\"8\",\"C2\",\"J\",\"34\"
\"\",\"\",\"approach-retreat\",\"183\",\"1512555\",\"0.0-183.0\",\"\",\"\",\"3-1\",\"4559\",\"40\",\"1\",\"Testing\",\"Stims/Figures/57-J-0-1.bmp\",\"vashasha\",\"Up\",\"40\",\"2\",\"11\",\"8\",\"C1\",\"J\",\"35\"
\"\",\"\",\"approach-retreat\",\"184\",\"1522283\",\"0.0-184.0\",\"\",\"\",\"3-1\",\"8197\",\"39\",\"1\",\"Testing\",\"Stims/Figures/57-C-30-1.bmp\",\"va:sha:va\",\"Right\",\"39\",\"2\",\"12\",\"8\",\"C1\",\"J\",\"36\"
\"\",\"\",\"approach-retreat\",\"185\",\"1528779\",\"0.0-185.0\",\"\",\"\",\"3-1\",\"4974\",\"40\",\"1\",\"Testing\",\"Stims/Figures/128-C-30-3.bmp\",\"za:ha:za\",\"Down\",\"40\",\"2\",\"13\",\"8\",\"C2\",\"J\",\"37\"
\"\",\"\",\"approach-retreat\",\"186\",\"1536657\",\"0.0-186.0\",\"\",\"\",\"3-1\",\"6345\",\"40\",\"0\",\"Testing\",\"Stims/Figures/102-J-10-4.bmp\",\"sa:saza\",\"Down\",\"38\",\"2\",\"14\",\"8\",\"C2\",\"J\",\"38\"
\"\",\"\",\"approach-retreat\",\"187\",\"1550057\",\"0.0-187.0\",\"\",\"\",\"3-1\",\"11870\",\"39\",\"1\",\"Testing\",\"Stims/Figures/100-J-10-3.bmp\",\"sahaha\",\"Left\",\"39\",\"2\",\"15\",\"8\",\"C2\",\"J\",\"39\"
\"\",\"\",\"approach-retreat\",\"188\",\"1560748\",\"0.0-188.0\",\"\",\"\",\"3-1\",\"9160\",\"40\",\"1\",\"Testing\",\"Stims/Figures/85-J-0-2.bmp\",\"fashava\",\"Up\",\"40\",\"2\",\"16\",\"8\",\"C1\",\"J\",\"40\"
\"\",\"\",\"approach-retreat\",\"189\",\"1566351\",\"0.0-189.0\",\"\",\"\",\"3-1\",\"4072\",\"39\",\"1\",\"Testing\",\"Stims/Figures/128-J-10-3.bmp\",\"sa:saha\",\"Left\",\"39\",\"2\",\"17\",\"8\",\"C2\",\"J\",\"41\"
\"\",\"\",\"approach-retreat\",\"190\",\"1575079\",\"0.0-190.0\",\"\",\"\",\"3-1\",\"7194\",\"39\",\"1\",\"Testing\",\"Stims/Figures/93-C-30-1.bmp\",\"fa:fasha\",\"Right\",\"39\",\"2\",\"18\",\"8\",\"C1\",\"J\",\"42\"
\"\",\"\",\"approach-retreat\",\"191\",\"1583334\",\"0.0-191.0\",\"\",\"\",\"3-1\",\"6723\",\"39\",\"1\",\"Testing\",\"Stims/Figures/71-J-0-1.bmp\",\"va:shasha\",\"Left\",\"39\",\"2\",\"19\",\"8\",\"C1\",\"J\",\"43\"
\"\",\"\",\"approach-retreat\",\"192\",\"1591348\",\"0.0-192.0\",\"\",\"\",\"3-1\",\"6483\",\"40\",\"0\",\"Testing\",\"Stims/Figures/71-C-30-1.bmp\",\"fasha:sha\",\"Up\",\"38\",\"2\",\"20\",\"8\",\"C1\",\"J\",\"44\"
\"\",\"\",\"approach-retreat\",\"193\",\"1596929\",\"0.0-193.0\",\"\",\"\",\"3-1\",\"4051\",\"40\",\"0\",\"Testing\",\"Stims/Figures/118-C-20-2.bmp\",\"fa:sha:va\",\"Up\",\"38\",\"2\",\"21\",\"8\",\"C1\",\"J\",\"45\"
\"\",\"\",\"approach-retreat\",\"194\",\"1602598\",\"0.0-194.0\",\"\",\"\",\"3-1\",\"4140\",\"40\",\"1\",\"Testing\",\"Stims/Figures/7-J-10-4.bmp\",\"za:ha:ha\",\"Up\",\"40\",\"2\",\"22\",\"8\",\"C2\",\"J\",\"46\"
\"\",\"\",\"approach-retreat\",\"195\",\"1608303\",\"0.0-195.0\",\"\",\"\",\"3-1\",\"4178\",\"40\",\"1\",\"Testing\",\"Stims/Figures/118-J-0-2.bmp\",\"fa:fa:sha\",\"Up\",\"40\",\"2\",\"23\",\"8\",\"C1\",\"J\",\"47\"
\"\",\"\",\"approach-retreat\",\"196\",\"1614889\",\"0.0-196.0\",\"\",\"\",\"3-1\",\"5055\",\"37\",\"0\",\"Testing\",\"Stims/Figures/100-C-30-3.bmp\",\"saha:ha\",\"Right\",\"39\",\"2\",\"24\",\"8\",\"C2\",\"J\",\"48\"
\"\",\"\",\"approach-retreat\",\"197\",\"1620719\",\"0.0-197.0\",\"\",\"\",\"3-1\",\"4299\",\"40\",\"1\",\"Testing\",\"Stims/Figures/102-J-10-4.bmp\",\"sa:saza\",\"Up\",\"40\",\"3\",\"1\",\"8\",\"C2\",\"J\",\"49\"
\"\",\"\",\"approach-retreat\",\"198\",\"1626365\",\"0.0-198.0\",\"\",\"\",\"3-1\",\"4113\",\"39\",\"0\",\"Testing\",\"Stims/Figures/111-C-30-3.bmp\",\"zasaha\",\"Left\",\"37\",\"3\",\"2\",\"8\",\"C2\",\"J\",\"50\"
\"\",\"\",\"approach-retreat\",\"199\",\"1632063\",\"0.0-199.0\",\"\",\"\",\"3-1\",\"4166\",\"40\",\"1\",\"Testing\",\"Stims/Figures/111-J-10-3.bmp\",\"zaha:za\",\"Up\",\"40\",\"3\",\"3\",\"8\",\"C2\",\"J\",\"51\"
\"\",\"\",\"approach-retreat\",\"200\",\"1639536\",\"0.0-200.0\",\"\",\"\",\"3-1\",\"5941\",\"40\",\"1\",\"Testing\",\"Stims/Figures/57-C-30-1.bmp\",\"va:sha:va\",\"Down\",\"40\",\"3\",\"4\",\"8\",\"C1\",\"J\",\"52\"
\"\",\"\",\"approach-retreat\",\"201\",\"1645626\",\"0.0-201.0\",\"\",\"\",\"3-1\",\"4557\",\"39\",\"0\",\"Testing\",\"Stims/Figures/128-J-10-3.bmp\",\"sa:saha\",\"Right\",\"37\",\"3\",\"5\",\"8\",\"C2\",\"J\",\"53\"
\"\",\"\",\"approach-retreat\",\"202\",\"1651967\",\"0.0-202.0\",\"\",\"\",\"3-1\",\"4808\",\"39\",\"1\",\"Testing\",\"Stims/Figures/71-C-30-1.bmp\",\"fasha:sha\",\"Right\",\"39\",\"3\",\"6\",\"8\",\"C1\",\"J\",\"54\"
\"\",\"\",\"approach-retreat\",\"203\",\"1658096\",\"0.0-203.0\",\"\",\"\",\"3-1\",\"4594\",\"40\",\"0\",\"Testing\",\"Stims/Figures/118-C-20-2.bmp\",\"fa:sha:va\",\"Up\",\"38\",\"3\",\"7\",\"8\",\"C1\",\"J\",\"55\"
\"\",\"\",\"approach-retreat\",\"204\",\"1664149\",\"0.0-204.0\",\"\",\"\",\"3-1\",\"4523\",\"38\",\"0\",\"Testing\",\"Stims/Figures/93-C-30-1.bmp\",\"fa:fasha\",\"Down\",\"40\",\"3\",\"8\",\"8\",\"C1\",\"J\",\"56\"
\"\",\"\",\"approach-retreat\",\"205\",\"1669651\",\"0.0-205.0\",\"\",\"\",\"3-1\",\"3970\",\"38\",\"0\",\"Testing\",\"Stims/Figures/87-C-20-4.bmp\",\"sasa:za\",\"Down\",\"40\",\"3\",\"9\",\"8\",\"C2\",\"J\",\"57\"
\"\",\"\",\"approach-retreat\",\"206\",\"1675345\",\"0.0-206.0\",\"\",\"\",\"3-1\",\"4163\",\"38\",\"1\",\"Testing\",\"Stims/Figures/139-J-0-2.bmp\",\"vashava\",\"Down\",\"38\",\"3\",\"10\",\"8\",\"C1\",\"J\",\"58\"
\"\",\"\",\"approach-retreat\",\"207\",\"1682655\",\"0.0-207.0\",\"\",\"\",\"3-1\",\"5778\",\"40\",\"1\",\"Testing\",\"Stims/Figures/118-J-0-2.bmp\",\"fa:fa:sha\",\"Up\",\"40\",\"3\",\"11\",\"8\",\"C1\",\"J\",\"59\"
\"\",\"\",\"approach-retreat\",\"208\",\"1692819\",\"0.0-208.0\",\"\",\"\",\"3-1\",\"8631\",\"39\",\"1\",\"Testing\",\"Stims/Figures/57-J-0-1.bmp\",\"vashasha\",\"Left\",\"39\",\"3\",\"12\",\"8\",\"C1\",\"J\",\"60\"
\"\",\"\",\"approach-retreat\",\"209\",\"1706338\",\"0.0-209.0\",\"\",\"\",\"3-1\",\"11982\",\"38\",\"1\",\"Testing\",\"Stims/Figures/87-J-10-4.bmp\",\"sa:sa:ha\",\"Down\",\"38\",\"3\",\"13\",\"8\",\"C2\",\"J\",\"61\"
\"\",\"\",\"approach-retreat\",\"210\",\"1713685\",\"0.0-210.0\",\"\",\"\",\"3-1\",\"5815\",\"40\",\"0\",\"Testing\",\"Stims/Figures/128-C-30-3.bmp\",\"za:ha:za\",\"Up\",\"38\",\"3\",\"14\",\"8\",\"C2\",\"J\",\"62\"
\"\",\"\",\"approach-retreat\",\"211\",\"1723095\",\"0.0-211.0\",\"\",\"\",\"3-1\",\"7879\",\"37\",\"1\",\"Testing\",\"Stims/Figures/71-J-0-1.bmp\",\"va:shasha\",\"Right\",\"37\",\"3\",\"15\",\"8\",\"C1\",\"J\",\"63\"
\"\",\"\",\"approach-retreat\",\"212\",\"1736958\",\"0.0-212.0\",\"\",\"\",\"3-1\",\"12352\",\"39\",\"0\",\"Testing\",\"Stims/Figures/85-J-0-2.bmp\",\"fashava\",\"Right\",\"37\",\"3\",\"16\",\"8\",\"C1\",\"J\",\"64\"
\"\",\"\",\"approach-retreat\",\"213\",\"1742666\",\"0.0-213.0\",\"\",\"\",\"3-1\",\"4172\",\"39\",\"1\",\"Testing\",\"Stims/Figures/7-J-10-4.bmp\",\"za:ha:ha\",\"Left\",\"39\",\"3\",\"17\",\"8\",\"C2\",\"J\",\"65\"
\"\",\"\",\"approach-retreat\",\"214\",\"1748291\",\"0.0-214.0\",\"\",\"\",\"3-1\",\"4091\",\"39\",\"0\",\"Testing\",\"Stims/Figures/7-C-20-4.bmp\",\"sa:sa:za\",\"Left\",\"37\",\"3\",\"18\",\"8\",\"C2\",\"J\",\"66\"
\"\",\"\",\"approach-retreat\",\"215\",\"1759707\",\"0.0-215.0\",\"\",\"\",\"3-1\",\"9885\",\"39\",\"0\",\"Testing\",\"Stims/Figures/85-C-20-2.bmp\",\"va:sha:sha\",\"Left\",\"37\",\"3\",\"19\",\"8\",\"C1\",\"J\",\"67\"
\"\",\"\",\"approach-retreat\",\"216\",\"1771094\",\"0.0-216.0\",\"\",\"\",\"3-1\",\"9856\",\"39\",\"1\",\"Testing\",\"Stims/Figures/100-C-30-3.bmp\",\"saha:ha\",\"Right\",\"39\",\"3\",\"20\",\"8\",\"C2\",\"J\",\"68\"
\"\",\"\",\"approach-retreat\",\"217\",\"1780665\",\"0.0-217.0\",\"\",\"\",\"3-1\",\"8037\",\"40\",\"0\",\"Testing\",\"Stims/Figures/102-C-20-4.bmp\",\"za:saza\",\"Up\",\"38\",\"3\",\"21\",\"8\",\"C2\",\"J\",\"69\"
\"\",\"\",\"approach-retreat\",\"218\",\"1798280\",\"0.0-218.0\",\"\",\"\",\"3-1\",\"16077\",\"40\",\"0\",\"Testing\",\"Stims/Figures/93-J-0-1.bmp\",\"fa:shasha\",\"Down\",\"38\",\"3\",\"22\",\"8\",\"C1\",\"J\",\"70\"
\"\",\"\",\"approach-retreat\",\"219\",\"1808583\",\"0.0-219.0\",\"\",\"\",\"3-1\",\"8796\",\"37\",\"0\",\"Testing\",\"Stims/Figures/139-C-20-2.bmp\",\"fa:fa:va\",\"Right\",\"39\",\"3\",\"23\",\"8\",\"C1\",\"J\",\"71\"
\"\",\"\",\"approach-retreat\",\"220\",\"1821087\",\"0.0-220.0\",\"\",\"\",\"3-1\",\"10969\",\"39\",\"1\",\"Testing\",\"Stims/Figures/100-J-10-3.bmp\",\"sahaha\",\"Left\",\"39\",\"3\",\"24\",\"8\",\"C2\",\"J\",\"72\"
\"\",\"\",\"approach-retreat\",\"221\",\"1829429\",\"0.0-221.0\",\"\",\"\",\"3-1\",\"6812\",\"40\",\"1\",\"Testing\",\"Stims/Figures/71-J-0-1.bmp\",\"va:shasha\",\"Up\",\"40\",\"4\",\"1\",\"8\",\"C1\",\"J\",\"73\"
\"\",\"\",\"approach-retreat\",\"222\",\"1838000\",\"0.0-222.0\",\"\",\"\",\"3-1\",\"7041\",\"39\",\"0\",\"Testing\",\"Stims/Figures/71-C-30-1.bmp\",\"fasha:sha\",\"Left\",\"37\",\"4\",\"2\",\"8\",\"C1\",\"J\",\"74\"
\"\",\"\",\"approach-retreat\",\"223\",\"1843981\",\"0.0-223.0\",\"\",\"\",\"3-1\",\"4450\",\"40\",\"0\",\"Testing\",\"Stims/Figures/128-J-10-3.bmp\",\"sa:saha\",\"Down\",\"38\",\"4\",\"3\",\"8\",\"C2\",\"J\",\"75\"
\"\",\"\",\"approach-retreat\",\"224\",\"1851081\",\"0.0-224.0\",\"\",\"\",\"3-1\",\"5578\",\"39\",\"0\",\"Testing\",\"Stims/Figures/111-C-30-3.bmp\",\"zasaha\",\"Left\",\"37\",\"4\",\"4\",\"8\",\"C2\",\"J\",\"76\"
\"\",\"\",\"approach-retreat\",\"225\",\"1859486\",\"0.0-225.0\",\"\",\"\",\"3-1\",\"6873\",\"38\",\"0\",\"Testing\",\"Stims/Figures/7-C-20-4.bmp\",\"sa:sa:za\",\"Down\",\"40\",\"4\",\"5\",\"8\",\"C2\",\"J\",\"77\"
\"\",\"\",\"approach-retreat\",\"226\",\"1865585\",\"0.0-226.0\",\"\",\"\",\"3-1\",\"4565\",\"39\",\"1\",\"Testing\",\"Stims/Figures/139-J-0-2.bmp\",\"vashava\",\"Left\",\"39\",\"4\",\"6\",\"8\",\"C1\",\"J\",\"78\"
\"\",\"\",\"approach-retreat\",\"227\",\"1872957\",\"0.0-227.0\",\"\",\"\",\"3-1\",\"5838\",\"39\",\"0\",\"Testing\",\"Stims/Figures/139-C-20-2.bmp\",\"fa:fa:va\",\"Left\",\"37\",\"4\",\"7\",\"8\",\"C1\",\"J\",\"79\"
\"\",\"\",\"approach-retreat\",\"228\",\"1878725\",\"0.0-228.0\",\"\",\"\",\"3-1\",\"4237\",\"37\",\"1\",\"Testing\",\"Stims/Figures/57-J-0-1.bmp\",\"vashasha\",\"Right\",\"37\",\"4\",\"8\",\"8\",\"C1\",\"J\",\"80\"
\"\",\"\",\"approach-retreat\",\"229\",\"1893915\",\"0.0-229.0\",\"\",\"\",\"3-1\",\"13656\",\"38\",\"0\",\"Testing\",\"Stims/Figures/85-C-20-2.bmp\",\"va:sha:sha\",\"Down\",\"40\",\"4\",\"9\",\"8\",\"C1\",\"J\",\"81\"
\"\",\"\",\"approach-retreat\",\"230\",\"1900927\",\"0.0-230.0\",\"\",\"\",\"3-1\",\"5477\",\"37\",\"1\",\"Testing\",\"Stims/Figures/93-J-0-1.bmp\",\"fa:shasha\",\"Right\",\"37\",\"4\",\"10\",\"8\",\"C1\",\"J\",\"82\"
\"\",\"\",\"approach-retreat\",\"231\",\"1907003\",\"0.0-231.0\",\"\",\"\",\"3-1\",\"4541\",\"38\",\"1\",\"Testing\",\"Stims/Figures/85-J-0-2.bmp\",\"fashava\",\"Down\",\"38\",\"4\",\"11\",\"8\",\"C1\",\"J\",\"83\"
\"\",\"\",\"approach-retreat\",\"232\",\"1912828\",\"0.0-232.0\",\"\",\"\",\"3-1\",\"4294\",\"37\",\"0\",\"Testing\",\"Stims/Figures/57-C-30-1.bmp\",\"va:sha:va\",\"Right\",\"39\",\"4\",\"12\",\"8\",\"C1\",\"J\",\"84\"
\"\",\"\",\"approach-retreat\",\"233\",\"1921850\",\"0.0-233.0\",\"\",\"\",\"3-1\",\"7507\",\"39\",\"1\",\"Testing\",\"Stims/Figures/7-J-10-4.bmp\",\"za:ha:ha\",\"Left\",\"39\",\"4\",\"13\",\"8\",\"C2\",\"J\",\"85\"
\"\",\"\",\"approach-retreat\",\"234\",\"1928368\",\"0.0-234.0\",\"\",\"\",\"3-1\",\"4985\",\"40\",\"0\",\"Testing\",\"Stims/Figures/128-C-30-3.bmp\",\"za:ha:za\",\"Up\",\"38\",\"4\",\"14\",\"8\",\"C2\",\"J\",\"86\"
\"\",\"\",\"approach-retreat\",\"235\",\"1935726\",\"0.0-235.0\",\"\",\"\",\"3-1\",\"5830\",\"40\",\"1\",\"Testing\",\"Stims/Figures/100-J-10-3.bmp\",\"sahaha\",\"Up\",\"40\",\"4\",\"15\",\"8\",\"C2\",\"J\",\"87\"
\"\",\"\",\"approach-retreat\",\"236\",\"1947206\",\"0.0-236.0\",\"\",\"\",\"3-1\",\"9947\",\"40\",\"1\",\"Testing\",\"Stims/Figures/118-J-0-2.bmp\",\"fa:fa:sha\",\"Up\",\"40\",\"4\",\"16\",\"8\",\"C1\",\"J\",\"88\"
\"\",\"\",\"approach-retreat\",\"237\",\"1957850\",\"0.0-237.0\",\"\",\"\",\"3-1\",\"9104\",\"40\",\"1\",\"Testing\",\"Stims/Figures/111-J-10-3.bmp\",\"zaha:za\",\"Up\",\"40\",\"4\",\"17\",\"8\",\"C2\",\"J\",\"89\"
\"\",\"\",\"approach-retreat\",\"238\",\"1964333\",\"0.0-238.0\",\"\",\"\",\"3-1\",\"4949\",\"40\",\"1\",\"Testing\",\"Stims/Figures/93-C-30-1.bmp\",\"fa:fasha\",\"Down\",\"40\",\"4\",\"18\",\"8\",\"C1\",\"J\",\"90\"
\"\",\"\",\"approach-retreat\",\"239\",\"1985529\",\"0.0-239.0\",\"\",\"\",\"3-1\",\"19663\",\"40\",\"0\",\"Testing\",\"Stims/Figures/87-J-10-4.bmp\",\"sa:sa:ha\",\"Down\",\"38\",\"4\",\"19\",\"8\",\"C2\",\"J\",\"91\"
\"\",\"\",\"approach-retreat\",\"240\",\"1991676\",\"0.0-240.0\",\"\",\"\",\"3-1\",\"4613\",\"39\",\"0\",\"Testing\",\"Stims/Figures/102-C-20-4.bmp\",\"za:saza\",\"Left\",\"37\",\"4\",\"20\",\"8\",\"C2\",\"J\",\"92\"
\"\",\"\",\"approach-retreat\",\"241\",\"2000272\",\"0.0-241.0\",\"\",\"\",\"3-1\",\"7061\",\"40\",\"0\",\"Testing\",\"Stims/Figures/118-C-20-2.bmp\",\"fa:sha:va\",\"Up\",\"38\",\"4\",\"21\",\"8\",\"C1\",\"J\",\"93\"
\"\",\"\",\"approach-retreat\",\"242\",\"2006121\",\"0.0-242.0\",\"\",\"\",\"3-1\",\"4316\",\"39\",\"1\",\"Testing\",\"Stims/Figures/87-C-20-4.bmp\",\"sasa:za\",\"Right\",\"39\",\"4\",\"22\",\"8\",\"C2\",\"J\",\"94\"
\"\",\"\",\"approach-retreat\",\"243\",\"2014274\",\"0.0-243.0\",\"\",\"\",\"3-1\",\"6619\",\"37\",\"0\",\"Testing\",\"Stims/Figures/100-C-30-3.bmp\",\"saha:ha\",\"Right\",\"39\",\"4\",\"23\",\"8\",\"C2\",\"J\",\"95\"
\"\",\"\",\"approach-retreat\",\"244\",\"2023700\",\"0.0-244.0\",\"\",\"\",\"3-1\",\"7892\",\"37\",\"1\",\"Testing\",\"Stims/Figures/102-J-10-4.bmp\",\"sa:saza\",\"Right\",\"37\",\"4\",\"24\",\"8\",\"C2\",\"J\",\"96\"
\"15752\",\"\",\"survey-text\",\"245\",\"2039476\",\"0.0-245.0\",\"\",\"{\"\"Q0\"\":\"\"PS170012\"\"}\",\"\",\"\",\"\",\"\",\"\",\"\",\"\",\"\",\"\",\"\",\"\",\"\",\"\",\"\",\"\"
