"rt","key_press","trial_type","trial_index","time_elapsed","internal_node_id","view_history","responses","Id","Rt","ResKeyCode","ResCorr","TrialType2","Image","Label","Location","CorrectResponse","Block","BlockTrial","Condition","LabelType","Subcondition","trialNum"
"3463","32","text","0","3465","0.0-0.0-0.0","","","","","","","","","","","","","","","","",""
"53403","","instructions","1","56868","0.0-1.0","[{""page_index"":0,""viewing_time"":53402}]","","","","","","","","","","","","","","","",""
"7137","","survey-multi-choice","2","64016","0.0-2.0","","{""Q0"":""Da"",""Q1"":""Da"",""Q2"":""Da"",""Q3"":""Da"",""Q4"":""Da"",""Q5"":""Da""}","","","","","","","","","","","","","","",""
"","","bio","3","68859","0.0-3.0","","{""age"":""19"",""gender"":""m"",""specify"":""""}","","","","","","","","","","","","","","",""
"","","approach-retreat","4","79498","0.0-4.0","","","2-5","9133","37","1","Training","Stims/Figures/71-C-30-1.bmp","pakata","Left","37","1","1","9","P","J","1"
"","","approach-retreat","5","85489","0.0-5.0","","","2-5","4488","37","0","Training","Stims/Figures/118-J-0-2.bmp","zasaza","Left","39","1","2","9","C2","J","2"
"","","approach-retreat","6","95138","0.0-6.0","","","2-5","8145","39","0","Training","Stims/Figures/87-J-10-4.bmp","ta:ka:ta","Right","37","1","3","9","P","J","3"
"","","approach-retreat","7","101824","0.0-7.0","","","2-5","5182","39","0","Training","Stims/Figures/111-J-10-3.bmp","na:la:na","Right","37","1","4","9","S","J","4"
"","","approach-retreat","8","112063","0.0-8.0","","","2-5","8736","38","1","Training","Stims/Figures/111-C-30-3.bmp","pa:ka:ka","Up","38","1","5","9","P","J","5"
"","","approach-retreat","9","118782","0.0-9.0","","","2-5","5217","40","1","Training","Stims/Figures/118-C-20-2.bmp","zaha:za","Down","40","1","6","9","C2","J","6"
"","","approach-retreat","10","125622","0.0-10.0","","","2-5","5337","38","0","Training","Stims/Figures/139-J-0-2.bmp","va:fa:sha","Up","40","1","7","9","C1","J","7"
"","","approach-retreat","11","137838","0.0-11.0","","","2-5","10713","37","0","Training","Stims/Figures/87-C-20-4.bmp","vashava","Right","39","1","8","9","C1","J","8"
"","","approach-retreat","12","144215","0.0-12.0","","","2-5","4873","39","1","Training","Stims/Figures/93-C-30-1.bmp","pa:ka:ta","Right","39","1","9","9","P","J","9"
"","","approach-retreat","13","150888","0.0-13.0","","","2-5","5168","39","1","Training","Stims/Figures/93-J-0-1.bmp","zahaha","Left","39","1","10","9","C2","J","10"
"","","approach-retreat","14","157686","0.0-14.0","","","2-5","5294","38","1","Training","Stims/Figures/144-J-10-3.bmp","za:haha","Down","38","1","11","9","C2","J","11"
"","","approach-retreat","15","164190","0.0-15.0","","","2-5","5002","38","0","Training","Stims/Figures/144-C-30-3.bmp","fasha:sha","Down","40","1","12","9","C1","J","12"
"","","approach-retreat","16","172318","0.0-16.0","","","2-5","6626","37","0","Training","Stims/Figures/102-J-10-4.bmp","nalala","Left","39","1","13","9","S","J","13"
"","","approach-retreat","17","180838","0.0-17.0","","","2-5","7017","38","1","Training","Stims/Figures/139-C-20-2.bmp","fafava","Up","38","1","14","9","C1","J","14"
"","","approach-retreat","18","191886","0.0-18.0","","","2-5","9545","40","0","Training","Stims/Figures/102-C-20-4.bmp","fa:sha:va","Up","38","1","15","9","C1","J","15"
"","","approach-retreat","19","199031","0.0-19.0","","","2-5","5641","40","0","Training","Stims/Figures/71-J-0-1.bmp","vafa:sha","Down","38","1","16","9","C1","J","16"
"","","approach-retreat","20","204831","0.0-20.0","","","2-5","4296","39","0","Training","Stims/Figures/111-J-10-3.bmp","na:la:na","Right","37","2","1","9","S","J","17"
"","","approach-retreat","21","211038","0.0-21.0","","","2-5","4705","38","1","Training","Stims/Figures/93-C-30-1.bmp","pa:ka:ta","Up","38","2","2","9","P","J","18"
"","","approach-retreat","22","218624","0.0-22.0","","","2-5","6081","39","0","Training","Stims/Figures/87-C-20-4.bmp","vashava","Left","37","2","3","9","C1","J","19"
"","","approach-retreat","23","225523","0.0-23.0","","","2-5","5395","39","1","Training","Stims/Figures/71-J-0-1.bmp","vafa:sha","Left","39","2","4","9","C1","J","20"
"","","approach-retreat","24","239427","0.0-24.0","","","2-5","12400","40","1","Training","Stims/Figures/87-J-10-4.bmp","ta:ka:ta","Up","40","2","5","9","P","J","21"
"","","approach-retreat","25","246692","0.0-25.0","","","2-5","5760","39","0","Training","Stims/Figures/102-C-20-4.bmp","fa:sha:va","Left","37","2","6","9","C1","J","22"
"","","approach-retreat","26","253722","0.0-26.0","","","2-5","5528","38","0","Training","Stims/Figures/102-J-10-4.bmp","nalala","Up","40","2","7","9","S","J","23"
"","","approach-retreat","27","262371","0.0-27.0","","","2-5","7145","38","0","Training","Stims/Figures/118-C-20-2.bmp","zaha:za","Down","40","2","8","9","C2","J","24"
"","","approach-retreat","28","268955","0.0-28.0","","","2-5","5080","39","0","Training","Stims/Figures/118-J-0-2.bmp","zasaza","Right","37","2","9","9","C2","J","25"
"","","approach-retreat","29","275044","0.0-29.0","","","2-5","4586","37","0","Training","Stims/Figures/93-J-0-1.bmp","zahaha","Left","39","2","10","9","C2","J","26"
"","","approach-retreat","30","281148","0.0-30.0","","","2-5","4600","38","1","Training","Stims/Figures/71-C-30-1.bmp","pakata","Up","38","2","11","9","P","J","27"
"","","approach-retreat","31","287118","0.0-31.0","","","2-5","4467","40","1","Training","Stims/Figures/144-C-30-3.bmp","fasha:sha","Down","40","2","12","9","C1","J","28"
"","","approach-retreat","32","293310","0.0-32.0","","","2-5","4687","39","1","Training","Stims/Figures/111-C-30-3.bmp","pa:ka:ka","Right","39","2","13","9","P","J","29"
"","","approach-retreat","33","298973","0.0-33.0","","","2-5","4161","38","0","Training","Stims/Figures/139-C-20-2.bmp","fafava","Down","40","2","14","9","C1","J","30"
"","","approach-retreat","34","318463","0.0-34.0","","","2-5","17984","40","0","Training","Stims/Figures/139-J-0-2.bmp","va:fa:sha","Down","38","2","15","9","C1","J","31"
"","","approach-retreat","35","324726","0.0-35.0","","","2-5","4760","39","0","Training","Stims/Figures/144-J-10-3.bmp","za:haha","Right","37","2","16","9","C2","J","32"
"","","approach-retreat","36","331199","0.0-36.0","","","2-5","4968","37","0","Training","Stims/Figures/102-C-20-4.bmp","fa:sha:va","Right","39","3","1","9","C1","J","33"
"","","approach-retreat","37","336733","0.0-37.0","","","2-5","4032","39","1","Training","Stims/Figures/93-C-30-1.bmp","pa:ka:ta","Right","39","3","2","9","P","J","34"
"","","approach-retreat","38","344063","0.0-38.0","","","2-5","5827","40","1","Training","Stims/Figures/111-J-10-3.bmp","na:la:na","Up","40","3","3","9","S","J","35"
"","","approach-retreat","39","352194","0.0-39.0","","","2-5","6628","38","0","Training","Stims/Figures/118-J-0-2.bmp","zasaza","Up","40","3","4","9","C2","J","36"
"","","approach-retreat","40","358370","0.0-40.0","","","2-5","4673","38","1","Training","Stims/Figures/139-J-0-2.bmp","va:fa:sha","Down","38","3","5","9","C1","J","37"
"","","approach-retreat","41","364689","0.0-41.0","","","2-5","4815","40","1","Training","Stims/Figures/144-J-10-3.bmp","za:haha","Up","40","3","6","9","C2","J","38"
"","","approach-retreat","42","370546","0.0-42.0","","","2-5","4353","37","0","Training","Stims/Figures/139-C-20-2.bmp","fafava","Right","39","3","7","9","C1","J","39"
"","","approach-retreat","43","380497","0.0-43.0","","","2-5","8448","37","1","Training","Stims/Figures/71-J-0-1.bmp","vafa:sha","Right","37","3","8","9","C1","J","40"
"","","approach-retreat","44","387282","0.0-44.0","","","2-5","5281","39","1","Training","Stims/Figures/102-J-10-4.bmp","nalala","Left","39","3","9","9","S","J","41"
"","","approach-retreat","45","393985","0.0-45.0","","","2-5","5200","39","1","Training","Stims/Figures/87-J-10-4.bmp","ta:ka:ta","Left","39","3","10","9","P","J","42"
"","","approach-retreat","46","400354","0.0-46.0","","","2-5","4866","37","1","Training","Stims/Figures/111-C-30-3.bmp","pa:ka:ka","Left","37","3","11","9","P","J","43"
"","","approach-retreat","47","407029","0.0-47.0","","","2-5","5185","38","1","Training","Stims/Figures/87-C-20-4.bmp","vashava","Up","38","3","12","9","C1","J","44"
"","","approach-retreat","48","413982","0.0-48.0","","","2-5","5449","40","0","Training","Stims/Figures/93-J-0-1.bmp","zahaha","Down","38","3","13","9","C2","J","45"
"","","approach-retreat","49","421143","0.0-49.0","","","2-5","5656","39","0","Training","Stims/Figures/144-C-30-3.bmp","fasha:sha","Left","37","3","14","9","C1","J","46"
"","","approach-retreat","50","429254","0.0-50.0","","","2-5","6607","38","0","Training","Stims/Figures/118-C-20-2.bmp","zaha:za","Down","40","3","15","9","C2","J","47"
"","","approach-retreat","51","434909","0.0-51.0","","","2-5","4151","40","1","Training","Stims/Figures/71-C-30-1.bmp","pakata","Down","40","3","16","9","P","J","48"
"","","approach-retreat","52","444407","0.0-52.0","","","2-5","7993","37","1","Training","Stims/Figures/144-J-10-3.bmp","za:haha","Right","37","4","1","9","C2","J","49"
"","","approach-retreat","53","453885","0.0-53.0","","","2-5","7976","39","0","Training","Stims/Figures/111-J-10-3.bmp","na:la:na","Right","37","4","2","9","S","J","50"
"","","approach-retreat","54","460590","0.0-54.0","","","2-5","5201","40","0","Training","Stims/Figures/111-C-30-3.bmp","pa:ka:ka","Up","38","4","3","9","P","J","51"
"","","approach-retreat","55","466469","0.0-55.0","","","2-5","4377","39","0","Training","Stims/Figures/102-C-20-4.bmp","fa:sha:va","Left","37","4","4","9","C1","J","52"
"","","approach-retreat","56","472401","0.0-56.0","","","2-5","4427","39","0","Training","Stims/Figures/118-C-20-2.bmp","zaha:za","Left","37","4","5","9","C2","J","53"
"","","approach-retreat","57","479952","0.0-57.0","","","2-5","6048","40","1","Training","Stims/Figures/102-J-10-4.bmp","nalala","Up","40","4","6","9","S","J","54"
"","","approach-retreat","58","485496","0.0-58.0","","","2-5","4039","39","1","Training","Stims/Figures/93-J-0-1.bmp","zahaha","Left","39","4","7","9","C2","J","55"
"","","approach-retreat","59","491057","0.0-59.0","","","2-5","4057","37","0","Training","Stims/Figures/144-C-30-3.bmp","fasha:sha","Right","39","4","8","9","C1","J","56"
"","","approach-retreat","60","498121","0.0-60.0","","","2-5","5561","40","0","Training","Stims/Figures/93-C-30-1.bmp","pa:ka:ta","Up","38","4","9","9","P","J","57"
"","","approach-retreat","61","507618","0.0-61.0","","","2-5","7991","40","1","Training","Stims/Figures/87-C-20-4.bmp","vashava","Down","40","4","10","9","C1","J","58"
"","","approach-retreat","62","514041","0.0-62.0","","","2-5","4920","40","1","Training","Stims/Figures/118-J-0-2.bmp","zasaza","Up","40","4","11","9","C2","J","59"
"","","approach-retreat","63","519762","0.0-63.0","","","2-5","4217","38","0","Training","Stims/Figures/139-C-20-2.bmp","fafava","Down","40","4","12","9","C1","J","60"
"","","approach-retreat","64","526233","0.0-64.0","","","2-5","4968","40","0","Training","Stims/Figures/139-J-0-2.bmp","va:fa:sha","Down","38","4","13","9","C1","J","61"
"","","approach-retreat","65","531798","0.0-65.0","","","2-5","4061","40","1","Training","Stims/Figures/71-C-30-1.bmp","pakata","Down","40","4","14","9","P","J","62"
"","","approach-retreat","66","541852","0.0-66.0","","","2-5","8550","37","1","Training","Stims/Figures/71-J-0-1.bmp","vafa:sha","Right","37","4","15","9","C1","J","63"
"","","approach-retreat","67","547885","0.0-67.0","","","2-5","4529","37","0","Training","Stims/Figures/87-J-10-4.bmp","ta:ka:ta","Left","39","4","16","9","P","J","64"
"","","approach-retreat","68","553582","0.0-68.0","","","2-5","4192","37","0","Training","Stims/Figures/111-J-10-3.bmp","na:la:na","Left","39","5","1","9","S","J","65"
"","","approach-retreat","69","569933","0.0-69.0","","","2-5","14847","40","0","Training","Stims/Figures/87-C-20-4.bmp","vashava","Up","38","5","2","9","C1","J","66"
"","","approach-retreat","70","575885","0.0-70.0","","","2-5","4448","40","0","Training","Stims/Figures/111-C-30-3.bmp","pa:ka:ka","Up","38","5","3","9","P","J","67"
"","","approach-retreat","71","583244","0.0-71.0","","","2-5","5857","39","1","Training","Stims/Figures/102-C-20-4.bmp","fa:sha:va","Right","39","5","4","9","C1","J","68"
"","","approach-retreat","72","591216","0.0-72.0","","","2-5","6468","37","0","Training","Stims/Figures/93-C-30-1.bmp","pa:ka:ta","Right","39","5","5","9","P","J","69"
"","","approach-retreat","73","599624","0.0-73.0","","","2-5","6905","40","0","Training","Stims/Figures/118-J-0-2.bmp","zasaza","Down","38","5","6","9","C2","J","70"
"","","approach-retreat","74","607618","0.0-74.0","","","2-5","6489","38","0","Training","Stims/Figures/144-J-10-3.bmp","za:haha","Up","40","5","7","9","C2","J","71"
"","","approach-retreat","75","613809","0.0-75.0","","","2-5","4688","38","1","Training","Stims/Figures/102-J-10-4.bmp","nalala","Down","38","5","8","9","S","J","72"
"","","approach-retreat","76","619368","0.0-76.0","","","2-5","4057","39","0","Training","Stims/Figures/87-J-10-4.bmp","ta:ka:ta","Right","37","5","9","9","P","J","73"
"","","approach-retreat","77","625049","0.0-77.0","","","2-5","4176","37","1","Training","Stims/Figures/71-C-30-1.bmp","pakata","Left","37","5","10","9","P","J","74"
"","","approach-retreat","78","631065","0.0-78.0","","","2-5","4511","37","0","Training","Stims/Figures/139-J-0-2.bmp","va:fa:sha","Left","39","5","11","9","C1","J","75"
"","","approach-retreat","79","637873","0.0-79.0","","","2-5","5305","40","1","Training","Stims/Figures/139-C-20-2.bmp","fafava","Down","40","5","12","9","C1","J","76"
"","","approach-retreat","80","645144","0.0-80.0","","","2-5","5768","39","1","Training","Stims/Figures/93-J-0-1.bmp","zahaha","Left","39","5","13","9","C2","J","77"
"","","approach-retreat","81","654715","0.0-81.0","","","2-5","8068","39","1","Training","Stims/Figures/118-C-20-2.bmp","zaha:za","Right","39","5","14","9","C2","J","78"
"","","approach-retreat","82","660978","0.0-82.0","","","2-5","4761","40","0","Training","Stims/Figures/144-C-30-3.bmp","fasha:sha","Up","38","5","15","9","C1","J","79"
"","","approach-retreat","83","667843","0.0-83.0","","","2-5","5362","38","1","Training","Stims/Figures/71-J-0-1.bmp","vafa:sha","Down","38","5","16","9","C1","J","80"
"","","approach-retreat","84","675092","0.0-84.0","","","2-5","5745","38","0","Training","Stims/Figures/111-J-10-3.bmp","na:la:na","Up","40","6","1","9","S","J","81"
"","","approach-retreat","85","681818","0.0-85.0","","","2-5","5223","39","1","Training","Stims/Figures/118-J-0-2.bmp","zasaza","Left","39","6","2","9","C2","J","82"
"","","approach-retreat","86","702970","0.0-86.0","","","2-5","19650","37","1","Training","Stims/Figures/71-J-0-1.bmp","vafa:sha","Right","37","6","3","9","C1","J","83"
"","","approach-retreat","87","711050","0.0-87.0","","","2-5","6578","39","1","Training","Stims/Figures/111-C-30-3.bmp","pa:ka:ka","Right","39","6","4","9","P","J","84"
"","","approach-retreat","88","718254","0.0-88.0","","","2-5","5701","40","1","Training","Stims/Figures/87-C-20-4.bmp","vashava","Down","40","6","5","9","C1","J","85"
"","","approach-retreat","89","732949","0.0-89.0","","","2-5","13193","39","0","Training","Stims/Figures/102-C-20-4.bmp","fa:sha:va","Left","37","6","6","9","C1","J","86"
"","","approach-retreat","90","740854","0.0-90.0","","","2-5","6401","39","1","Training","Stims/Figures/139-C-20-2.bmp","fafava","Right","39","6","7","9","C1","J","87"
"","","approach-retreat","91","746526","0.0-91.0","","","2-5","4169","38","0","Training","Stims/Figures/118-C-20-2.bmp","zaha:za","Down","40","6","8","9","C2","J","88"
"","","approach-retreat","92","753373","0.0-92.0","","","2-5","5345","40","1","Training","Stims/Figures/144-C-30-3.bmp","fasha:sha","Down","40","6","9","9","C1","J","89"
"","","approach-retreat","93","759151","0.0-93.0","","","2-5","4273","39","1","Training","Stims/Figures/71-C-30-1.bmp","pakata","Right","39","6","10","9","P","J","90"
"","","approach-retreat","94","769191","0.0-94.0","","","2-5","8535","38","0","Training","Stims/Figures/144-J-10-3.bmp","za:haha","Up","40","6","11","9","C2","J","91"
"","","approach-retreat","95","778345","0.0-95.0","","","2-5","7650","40","0","Training","Stims/Figures/93-C-30-1.bmp","pa:ka:ta","Up","38","6","12","9","P","J","92"
"","","approach-retreat","96","783993","0.0-96.0","","","2-5","4146","40","0","Training","Stims/Figures/93-J-0-1.bmp","zahaha","Down","38","6","13","9","C2","J","93"
"","","approach-retreat","97","791673","0.0-97.0","","","2-5","6178","39","1","Training","Stims/Figures/102-J-10-4.bmp","nalala","Left","39","6","14","9","S","J","94"
"","","approach-retreat","98","798163","0.0-98.0","","","2-5","4986","40","1","Training","Stims/Figures/139-J-0-2.bmp","va:fa:sha","Up","40","6","15","9","C1","J","95"
"","","approach-retreat","99","804442","0.0-99.0","","","2-5","4775","39","1","Training","Stims/Figures/87-J-10-4.bmp","ta:ka:ta","Left","39","6","16","9","P","J","96"
"","","approach-retreat","100","810586","0.0-100.0","","","2-5","4640","37","1","Training","Stims/Figures/111-J-10-3.bmp","na:la:na","Right","37","7","1","9","S","J","97"
"","","approach-retreat","101","817186","0.0-101.0","","","2-5","5095","37","1","Training","Stims/Figures/93-J-0-1.bmp","zahaha","Right","37","7","2","9","C2","J","98"
"","","approach-retreat","102","823242","0.0-102.0","","","2-5","4553","38","1","Training","Stims/Figures/71-J-0-1.bmp","vafa:sha","Down","38","7","3","9","C1","J","99"
"","","approach-retreat","103","828890","0.0-103.0","","","2-5","4144","37","1","Training","Stims/Figures/71-C-30-1.bmp","pakata","Left","37","7","4","9","P","J","100"
"","","approach-retreat","104","835264","0.0-104.0","","","2-5","4872","38","1","Training","Stims/Figures/144-J-10-3.bmp","za:haha","Down","38","7","5","9","C2","J","101"
"","","approach-retreat","105","840846","0.0-105.0","","","2-5","4077","39","1","Training","Stims/Figures/118-C-20-2.bmp","zaha:za","Right","39","7","6","9","C2","J","102"
"","","approach-retreat","106","846422","0.0-106.0","","","2-5","4072","40","1","Training","Stims/Figures/118-J-0-2.bmp","zasaza","Up","40","7","7","9","C2","J","103"
"","","approach-retreat","107","852205","0.0-107.0","","","2-5","4279","40","0","Training","Stims/Figures/144-C-30-3.bmp","fasha:sha","Up","38","7","8","9","C1","J","104"
"","","approach-retreat","108","857677","0.0-108.0","","","2-5","3969","39","0","Training","Stims/Figures/111-C-30-3.bmp","pa:ka:ka","Left","37","7","9","9","P","J","105"
"","","approach-retreat","109","864380","0.0-109.0","","","2-5","5201","40","1","Training","Stims/Figures/93-C-30-1.bmp","pa:ka:ta","Down","40","7","10","9","P","J","106"
"","","approach-retreat","110","869917","0.0-110.0","","","2-5","4033","40","1","Training","Stims/Figures/102-C-20-4.bmp","fa:sha:va","Down","40","7","11","9","C1","J","107"
"","","approach-retreat","111","876286","0.0-111.0","","","2-5","4865","37","1","Training","Stims/Figures/102-J-10-4.bmp","nalala","Right","37","7","12","9","S","J","108"
"","","approach-retreat","112","881884","0.0-112.0","","","2-5","4095","39","0","Training","Stims/Figures/87-C-20-4.bmp","vashava","Left","37","7","13","9","C1","J","109"
"","","approach-retreat","113","887494","0.0-113.0","","","2-5","4105","40","1","Training","Stims/Figures/87-J-10-4.bmp","ta:ka:ta","Up","40","7","14","9","P","J","110"
"","","approach-retreat","114","893326","0.0-114.0","","","2-5","4328","38","0","Training","Stims/Figures/139-J-0-2.bmp","va:fa:sha","Up","40","7","15","9","C1","J","111"
"","","approach-retreat","115","899394","0.0-115.0","","","2-5","4564","39","0","Training","Stims/Figures/139-C-20-2.bmp","fafava","Left","37","7","16","9","C1","J","112"
"","","approach-retreat","116","905162","0.0-116.0","","","2-5","4264","38","0","Training","Stims/Figures/144-J-10-3.bmp","za:haha","Up","40","8","1","9","C2","J","113"
"","","approach-retreat","117","916649","0.0-117.0","","","2-5","9984","38","1","Training","Stims/Figures/111-J-10-3.bmp","na:la:na","Down","38","8","2","9","S","J","114"
"","","approach-retreat","118","922401","0.0-118.0","","","2-5","4249","39","0","Training","Stims/Figures/102-C-20-4.bmp","fa:sha:va","Left","37","8","3","9","C1","J","115"
"","","approach-retreat","119","928953","0.0-119.0","","","2-5","5049","38","1","Training","Stims/Figures/87-J-10-4.bmp","ta:ka:ta","Down","38","8","4","9","P","J","116"
"","","approach-retreat","120","934706","0.0-120.0","","","2-5","4248","37","0","Training","Stims/Figures/87-C-20-4.bmp","vashava","Right","39","8","5","9","C1","J","117"
"","","approach-retreat","121","941721","0.0-121.0","","","2-5","5512","37","1","Training","Stims/Figures/118-C-20-2.bmp","zaha:za","Left","37","8","6","9","C2","J","118"
"","","approach-retreat","122","947257","0.0-122.0","","","2-5","4032","37","1","Training","Stims/Figures/71-C-30-1.bmp","pakata","Left","37","8","7","9","P","J","119"
"","","approach-retreat","123","953682","0.0-123.0","","","2-5","4922","39","0","Training","Stims/Figures/93-C-30-1.bmp","pa:ka:ta","Left","37","8","8","9","P","J","120"
"","","approach-retreat","124","959373","0.0-124.0","","","2-5","4200","38","1","Training","Stims/Figures/93-J-0-1.bmp","zahaha","Down","38","8","9","9","C2","J","121"
"","","approach-retreat","125","964892","0.0-125.0","","","2-5","4016","38","0","Training","Stims/Figures/71-J-0-1.bmp","vafa:sha","Up","40","8","10","9","C1","J","122"
"","","approach-retreat","126","970692","0.0-126.0","","","2-5","4297","37","1","Training","Stims/Figures/118-J-0-2.bmp","zasaza","Right","37","8","11","9","C2","J","123"
"","","approach-retreat","127","976317","0.0-127.0","","","2-5","4121","37","0","Training","Stims/Figures/139-C-20-2.bmp","fafava","Right","39","8","12","9","C1","J","124"
"","","approach-retreat","128","982012","0.0-128.0","","","2-5","4193","40","0","Training","Stims/Figures/111-C-30-3.bmp","pa:ka:ka","Up","38","8","13","9","P","J","125"
"","","approach-retreat","129","987613","0.0-129.0","","","2-5","4098","40","1","Training","Stims/Figures/139-J-0-2.bmp","va:fa:sha","Up","40","8","14","9","C1","J","126"
"","","approach-retreat","130","994772","0.0-130.0","","","2-5","5656","39","1","Training","Stims/Figures/144-C-30-3.bmp","fasha:sha","Right","39","8","15","9","C1","J","127"
"","","approach-retreat","131","1008814","0.0-131.0","","","2-5","12538","40","0","Training","Stims/Figures/102-J-10-4.bmp","nalala","Down","38","8","16","9","S","J","128"
"","","approach-retreat","132","1014451","0.0-132.0","","","2-5","4136","39","1","Training","Stims/Figures/111-C-30-3.bmp","pa:ka:ka","Right","39","9","1","9","P","J","129"
"","","approach-retreat","133","1022065","0.0-133.0","","","2-5","6109","38","1","Training","Stims/Figures/144-J-10-3.bmp","za:haha","Down","38","9","2","9","C2","J","130"
"","","approach-retreat","134","1028047","0.0-134.0","","","2-5","4479","39","1","Training","Stims/Figures/102-C-20-4.bmp","fa:sha:va","Right","39","9","3","9","C1","J","131"
"","","approach-retreat","135","1034711","0.0-135.0","","","2-5","5161","37","0","Training","Stims/Figures/71-J-0-1.bmp","vafa:sha","Left","39","9","4","9","C1","J","132"
"","","approach-retreat","136","1041551","0.0-136.0","","","2-5","5337","38","0","Training","Stims/Figures/93-J-0-1.bmp","zahaha","Up","40","9","5","9","C2","J","133"
"","","approach-retreat","137","1047345","0.0-137.0","","","2-5","4289","40","1","Training","Stims/Figures/118-J-0-2.bmp","zasaza","Up","40","9","6","9","C2","J","134"
"","","approach-retreat","138","1053488","0.0-138.0","","","2-5","4640","40","1","Training","Stims/Figures/144-C-30-3.bmp","fasha:sha","Down","40","9","7","9","C1","J","135"
"","","approach-retreat","139","1059152","0.0-139.0","","","2-5","4160","39","1","Training","Stims/Figures/93-C-30-1.bmp","pa:ka:ta","Right","39","9","8","9","P","J","136"
"","","approach-retreat","140","1065120","0.0-140.0","","","2-5","4465","39","1","Training","Stims/Figures/102-J-10-4.bmp","nalala","Left","39","9","9","9","S","J","137"
"","","approach-retreat","141","1070584","0.0-141.0","","","2-5","3960","39","1","Training","Stims/Figures/87-J-10-4.bmp","ta:ka:ta","Left","39","9","10","9","P","J","138"
"","","approach-retreat","142","1076569","0.0-142.0","","","2-5","4480","38","1","Training","Stims/Figures/111-J-10-3.bmp","na:la:na","Down","38","9","11","9","S","J","139"
"","","approach-retreat","143","1084195","0.0-143.0","","","2-5","6123","38","1","Training","Stims/Figures/87-C-20-4.bmp","vashava","Up","38","9","12","9","C1","J","140"
"","","approach-retreat","144","1089900","0.0-144.0","","","2-5","4201","40","1","Training","Stims/Figures/139-J-0-2.bmp","va:fa:sha","Up","40","9","13","9","C1","J","141"
"","","approach-retreat","145","1095363","0.0-145.0","","","2-5","3961","37","0","Training","Stims/Figures/118-C-20-2.bmp","zaha:za","Right","39","9","14","9","C2","J","142"
"","","approach-retreat","146","1100939","0.0-146.0","","","2-5","4074","37","1","Training","Stims/Figures/71-C-30-1.bmp","pakata","Left","37","9","15","9","P","J","143"
"","","approach-retreat","147","1108219","0.0-147.0","","","2-5","5777","38","0","Training","Stims/Figures/139-C-20-2.bmp","fafava","Down","40","9","16","9","C1","J","144"
"17244","","instructions","148","1125463","0.0-148.0","[{""page_index"":0,""viewing_time"":17243}]","","","","","","","","","","","","","","","",""
"","","approach-retreat","149","1145728","0.0-149.0","","","2-5","18762","37","1","Testing","Stims/Figures/118-J-0-2.bmp","zasaza","Right","37","1","1","9","C2","J","1"
"","","approach-retreat","150","1151286","0.0-150.0","","","2-5","4056","37","1","Testing","Stims/Figures/139-J-0-2.bmp","va:fa:sha","Right","37","1","2","9","C1","J","2"
"","","approach-retreat","151","1162982","0.0-151.0","","","2-5","10194","37","0","Testing","Stims/Figures/57-J-0-1.bmp","fasha:va","Left","39","1","3","9","C1","J","3"
"","","approach-retreat","152","1169375","0.0-152.0","","","2-5","4890","39","1","Testing","Stims/Figures/94-J-0-2.bmp","sa:ha:ha","Left","39","1","4","9","C2","J","4"
"","","approach-retreat","153","1176559","0.0-153.0","","","2-5","5682","38","0","Testing","Stims/Figures/144-J-10-3.bmp","za:haha","Up","40","1","5","9","C2","J","5"
"","","approach-retreat","154","1182190","0.0-154.0","","","2-5","4128","37","0","Testing","Stims/Figures/71-J-0-1.bmp","vafa:sha","Left","39","1","6","9","C1","J","6"
"","","approach-retreat","155","1188047","0.0-155.0","","","2-5","4354","39","1","Testing","Stims/Figures/139-C-20-2.bmp","fafava","Right","39","1","7","9","C1","J","7"
"","","approach-retreat","156","1195974","0.0-156.0","","","2-5","6425","39","1","Testing","Stims/Figures/7-C-20-4.bmp","va:sha:sha","Right","39","1","8","9","C1","J","8"
"","","approach-retreat","157","1201486","0.0-157.0","","","2-5","4009","39","0","Testing","Stims/Figures/102-C-20-4.bmp","fa:sha:va","Left","37","1","9","9","C1","J","9"
"","","approach-retreat","158","1209670","0.0-158.0","","","2-5","6676","40","0","Testing","Stims/Figures/102-J-10-4.bmp","nalala","Down","38","1","10","9","S","J","10"
"","","approach-retreat","159","1217842","0.0-159.0","","","2-5","6670","39","1","Testing","Stims/Figures/7-J-10-4.bmp","ma:la:la","Left","39","1","11","9","S","J","11"
"","","approach-retreat","160","1225987","0.0-160.0","","","2-5","6640","39","0","Testing","Stims/Figures/111-J-10-3.bmp","na:la:na","Right","37","1","12","9","S","J","12"
"","","approach-retreat","161","1232746","0.0-161.0","","","2-5","5256","38","1","Testing","Stims/Figures/87-C-20-4.bmp","vashava","Up","38","1","13","9","C1","J","13"
"","","approach-retreat","162","1239537","0.0-162.0","","","2-5","5290","38","1","Testing","Stims/Figures/128-C-30-3.bmp","va:shasha","Up","38","1","14","9","C1","J","14"
"","","approach-retreat","163","1245993","0.0-163.0","","","2-5","4954","40","1","Testing","Stims/Figures/94-C-20-2.bmp","mama:la","Down","40","1","15","9","S","J","15"
"","","approach-retreat","164","1252658","0.0-164.0","","","2-5","5161","38","0","Testing","Stims/Figures/57-C-30-1.bmp","papata","Down","40","1","16","9","P","J","16"
"","","approach-retreat","165","1259569","0.0-165.0","","","2-5","5408","39","0","Testing","Stims/Figures/87-J-10-4.bmp","ta:ka:ta","Right","37","1","17","9","P","J","17"
"","","approach-retreat","166","1265458","0.0-166.0","","","2-5","4385","40","0","Testing","Stims/Figures/128-J-10-3.bmp","mama:na","Down","38","1","18","9","S","J","18"
"","","approach-retreat","167","1271732","0.0-167.0","","","2-5","4769","40","1","Testing","Stims/Figures/118-C-20-2.bmp","zaha:za","Down","40","1","19","9","C2","J","19"
"","","approach-retreat","168","1278093","0.0-168.0","","","2-5","4857","38","1","Testing","Stims/Figures/71-C-30-1.bmp","pakata","Up","38","1","20","9","P","J","20"
"","","approach-retreat","169","1284589","0.0-169.0","","","2-5","4992","38","1","Testing","Stims/Figures/93-J-0-1.bmp","zahaha","Down","38","1","21","9","C2","J","21"
"","","approach-retreat","170","1291268","0.0-170.0","","","2-5","5176","38","1","Testing","Stims/Figures/93-C-30-1.bmp","pa:ka:ta","Up","38","1","22","9","P","J","22"
"","","approach-retreat","171","1297918","0.0-171.0","","","2-5","5147","37","1","Testing","Stims/Figures/111-C-30-3.bmp","pa:ka:ka","Left","37","1","23","9","P","J","23"
"","","approach-retreat","172","1303500","0.0-172.0","","","2-5","4079","38","1","Testing","Stims/Figures/144-C-30-3.bmp","fasha:sha","Up","38","1","24","9","C1","J","24"
"","","approach-retreat","173","1309301","0.0-173.0","","","2-5","4297","38","0","Testing","Stims/Figures/71-J-0-1.bmp","vafa:sha","Up","40","2","1","9","C1","J","25"
"","","approach-retreat","174","1315565","0.0-174.0","","","2-5","4760","38","0","Testing","Stims/Figures/111-J-10-3.bmp","na:la:na","Up","40","2","2","9","S","J","26"
"","","approach-retreat","175","1322387","0.0-175.0","","","2-5","5321","39","0","Testing","Stims/Figures/118-J-0-2.bmp","zasaza","Right","37","2","3","9","C2","J","27"
"","","approach-retreat","176","1332271","0.0-176.0","","","2-5","8382","39","1","Testing","Stims/Figures/57-J-0-1.bmp","fasha:va","Left","39","2","4","9","C1","J","28"
"","","approach-retreat","177","1338113","0.0-177.0","","","2-5","4338","37","1","Testing","Stims/Figures/93-C-30-1.bmp","pa:ka:ta","Left","37","2","5","9","P","J","29"
"","","approach-retreat","178","1347777","0.0-178.0","","","2-5","8160","39","1","Testing","Stims/Figures/128-C-30-3.bmp","va:shasha","Right","39","2","6","9","C1","J","30"
"","","approach-retreat","179","1354009","0.0-179.0","","","2-5","4728","38","1","Testing","Stims/Figures/102-C-20-4.bmp","fa:sha:va","Up","38","2","7","9","C1","J","31"
"","","approach-retreat","180","1365801","0.0-180.0","","","2-5","10288","40","0","Testing","Stims/Figures/57-C-30-1.bmp","papata","Up","38","2","8","9","P","J","32"
"","","approach-retreat","181","1372271","0.0-181.0","","","2-5","4968","39","1","Testing","Stims/Figures/94-J-0-2.bmp","sa:ha:ha","Left","39","2","9","9","C2","J","33"
"","","approach-retreat","182","1377905","0.0-182.0","","","2-5","4130","39","0","Testing","Stims/Figures/94-C-20-2.bmp","mama:la","Left","37","2","10","9","S","J","34"
"","","approach-retreat","183","1384553","0.0-183.0","","","2-5","5144","38","0","Testing","Stims/Figures/7-C-20-4.bmp","va:sha:sha","Down","40","2","11","9","C1","J","35"
"","","approach-retreat","184","1393573","0.0-184.0","","","2-5","7516","38","0","Testing","Stims/Figures/7-J-10-4.bmp","ma:la:la","Up","40","2","12","9","S","J","36"
"","","approach-retreat","185","1400011","0.0-185.0","","","2-5","4936","39","0","Testing","Stims/Figures/111-C-30-3.bmp","pa:ka:ka","Left","37","2","13","9","P","J","37"
"","","approach-retreat","186","1406124","0.0-186.0","","","2-5","4609","40","0","Testing","Stims/Figures/93-J-0-1.bmp","zahaha","Down","38","2","14","9","C2","J","38"
"","","approach-retreat","187","1411972","0.0-187.0","","","2-5","4344","39","0","Testing","Stims/Figures/87-C-20-4.bmp","vashava","Left","37","2","15","9","C1","J","39"
"","","approach-retreat","188","1418749","0.0-188.0","","","2-5","5272","40","0","Testing","Stims/Figures/71-C-30-1.bmp","pakata","Up","38","2","16","9","P","J","40"
"","","approach-retreat","189","1425178","0.0-189.0","","","2-5","4928","38","1","Testing","Stims/Figures/128-J-10-3.bmp","mama:na","Down","38","2","17","9","S","J","41"
"","","approach-retreat","190","1432645","0.0-190.0","","","2-5","5961","40","0","Testing","Stims/Figures/102-J-10-4.bmp","nalala","Down","38","2","18","9","S","J","42"
"","","approach-retreat","191","1438523","0.0-191.0","","","2-5","4377","39","1","Testing","Stims/Figures/118-C-20-2.bmp","zaha:za","Right","39","2","19","9","C2","J","43"
"","","approach-retreat","192","1444189","0.0-192.0","","","2-5","4161","39","0","Testing","Stims/Figures/87-J-10-4.bmp","ta:ka:ta","Right","37","2","20","9","P","J","44"
"","","approach-retreat","193","1450275","0.0-193.0","","","2-5","4584","40","0","Testing","Stims/Figures/139-J-0-2.bmp","va:fa:sha","Down","38","2","21","9","C1","J","45"
"","","approach-retreat","194","1457007","0.0-194.0","","","2-5","5230","39","1","Testing","Stims/Figures/144-C-30-3.bmp","fasha:sha","Right","39","2","22","9","C1","J","46"
"","","approach-retreat","195","1463118","0.0-195.0","","","2-5","4609","37","0","Testing","Stims/Figures/139-C-20-2.bmp","fafava","Right","39","2","23","9","C1","J","47"
"","","approach-retreat","196","1469742","0.0-196.0","","","2-5","5122","40","0","Testing","Stims/Figures/144-J-10-3.bmp","za:haha","Down","38","2","24","9","C2","J","48"
"","","approach-retreat","197","1476222","0.0-197.0","","","2-5","4977","38","1","Testing","Stims/Figures/128-C-30-3.bmp","va:shasha","Up","38","3","1","9","C1","J","49"
"","","approach-retreat","198","1485678","0.0-198.0","","","2-5","7954","38","0","Testing","Stims/Figures/111-C-30-3.bmp","pa:ka:ka","Down","40","3","2","9","P","J","50"
"","","approach-retreat","199","1492447","0.0-199.0","","","2-5","5265","39","0","Testing","Stims/Figures/71-J-0-1.bmp","vafa:sha","Right","37","3","3","9","C1","J","51"
"","","approach-retreat","200","1498400","0.0-200.0","","","2-5","4449","38","1","Testing","Stims/Figures/102-C-20-4.bmp","fa:sha:va","Up","38","3","4","9","C1","J","52"
"","","approach-retreat","201","1506911","0.0-201.0","","","2-5","7008","39","1","Testing","Stims/Figures/93-J-0-1.bmp","zahaha","Left","39","3","5","9","C2","J","53"
"","","approach-retreat","202","1513486","0.0-202.0","","","2-5","5071","38","1","Testing","Stims/Figures/128-J-10-3.bmp","mama:na","Down","38","3","6","9","S","J","54"
"","","approach-retreat","203","1521843","0.0-203.0","","","2-5","6852","38","0","Testing","Stims/Figures/102-J-10-4.bmp","nalala","Up","40","3","7","9","S","J","55"
"","","approach-retreat","204","1528689","0.0-204.0","","","2-5","5345","40","1","Testing","Stims/Figures/118-C-20-2.bmp","zaha:za","Down","40","3","8","9","C2","J","56"
"","","approach-retreat","205","1534714","0.0-205.0","","","2-5","4522","39","0","Testing","Stims/Figures/94-C-20-2.bmp","mama:la","Left","37","3","9","9","S","J","57"
"","","approach-retreat","206","1547593","0.0-206.0","","","2-5","11377","38","0","Testing","Stims/Figures/144-J-10-3.bmp","za:haha","Up","40","3","10","9","C2","J","58"
"","","approach-retreat","207","1556106","0.0-207.0","","","2-5","7009","37","0","Testing","Stims/Figures/87-C-20-4.bmp","vashava","Right","39","3","11","9","C1","J","59"
"","","approach-retreat","208","1562003","0.0-208.0","","","2-5","4392","40","1","Testing","Stims/Figures/139-J-0-2.bmp","va:fa:sha","Up","40","3","12","9","C1","J","60"
"","","approach-retreat","209","1569209","0.0-209.0","","","2-5","5704","40","1","Testing","Stims/Figures/7-C-20-4.bmp","va:sha:sha","Down","40","3","13","9","C1","J","61"
"","","approach-retreat","210","1575259","0.0-210.0","","","2-5","4546","38","1","Testing","Stims/Figures/118-J-0-2.bmp","zasaza","Down","38","3","14","9","C2","J","62"
"","","approach-retreat","211","1581597","0.0-211.0","","","2-5","4848","37","0","Testing","Stims/Figures/144-C-30-3.bmp","fasha:sha","Right","39","3","15","9","C1","J","63"
"","","approach-retreat","212","1587454","0.0-212.0","","","2-5","4353","37","0","Testing","Stims/Figures/94-J-0-2.bmp","sa:ha:ha","Left","39","3","16","9","C2","J","64"
"","","approach-retreat","213","1595181","0.0-213.0","","","2-5","6224","39","0","Testing","Stims/Figures/139-C-20-2.bmp","fafava","Left","37","3","17","9","C1","J","65"
"","","approach-retreat","214","1600877","0.0-214.0","","","2-5","4194","37","1","Testing","Stims/Figures/87-J-10-4.bmp","ta:ka:ta","Right","37","3","18","9","P","J","66"
"","","approach-retreat","215","1611574","0.0-215.0","","","2-5","9194","37","0","Testing","Stims/Figures/57-J-0-1.bmp","fasha:va","Left","39","3","19","9","C1","J","67"
"","","approach-retreat","216","1618054","0.0-216.0","","","2-5","4977","39","0","Testing","Stims/Figures/111-J-10-3.bmp","na:la:na","Right","37","3","20","9","S","J","68"
"","","approach-retreat","217","1631031","0.0-217.0","","","2-5","11473","38","0","Testing","Stims/Figures/71-C-30-1.bmp","pakata","Down","40","3","21","9","P","J","69"
"","","approach-retreat","218","1640790","0.0-218.0","","","2-5","8256","38","0","Testing","Stims/Figures/7-J-10-4.bmp","ma:la:la","Up","40","3","22","9","S","J","70"
"","","approach-retreat","219","1647329","0.0-219.0","","","2-5","5035","39","1","Testing","Stims/Figures/93-C-30-1.bmp","pa:ka:ta","Right","39","3","23","9","P","J","71"
"","","approach-retreat","220","1653580","0.0-220.0","","","2-5","4745","37","1","Testing","Stims/Figures/57-C-30-1.bmp","papata","Left","37","3","24","9","P","J","72"
"","","approach-retreat","221","1659202","0.0-221.0","","","2-5","4118","39","1","Testing","Stims/Figures/94-J-0-2.bmp","sa:ha:ha","Left","39","4","1","9","C2","J","73"
"","","approach-retreat","222","1665385","0.0-222.0","","","2-5","4680","39","0","Testing","Stims/Figures/144-J-10-3.bmp","za:haha","Right","37","4","2","9","C2","J","74"
"","","approach-retreat","223","1671714","0.0-223.0","","","2-5","4827","40","1","Testing","Stims/Figures/111-J-10-3.bmp","na:la:na","Up","40","4","3","9","S","J","75"
"","","approach-retreat","224","1677744","0.0-224.0","","","2-5","4529","37","0","Testing","Stims/Figures/139-J-0-2.bmp","va:fa:sha","Left","39","4","4","9","C1","J","76"
"","","approach-retreat","225","1683969","0.0-225.0","","","2-5","4722","39","1","Testing","Stims/Figures/144-C-30-3.bmp","fasha:sha","Right","39","4","5","9","C1","J","77"
"","","approach-retreat","226","1690097","0.0-226.0","","","2-5","4625","39","0","Testing","Stims/Figures/7-C-20-4.bmp","va:sha:sha","Left","37","4","6","9","C1","J","78"
"","","approach-retreat","227","1696097","0.0-227.0","","","2-5","4497","38","1","Testing","Stims/Figures/71-C-30-1.bmp","pakata","Up","38","4","7","9","P","J","79"
"","","approach-retreat","228","1702124","0.0-228.0","","","2-5","4538","39","1","Testing","Stims/Figures/118-C-20-2.bmp","zaha:za","Right","39","4","8","9","C2","J","80"
"","","approach-retreat","229","1708989","0.0-229.0","","","2-5","5362","38","0","Testing","Stims/Figures/139-C-20-2.bmp","fafava","Down","40","4","9","9","C1","J","81"
"","","approach-retreat","230","1716420","0.0-230.0","","","2-5","5930","39","0","Testing","Stims/Figures/71-J-0-1.bmp","vafa:sha","Right","37","4","10","9","C1","J","82"
"","","approach-retreat","231","1722830","0.0-231.0","","","2-5","4906","39","0","Testing","Stims/Figures/111-C-30-3.bmp","pa:ka:ka","Left","37","4","11","9","P","J","83"
"","","approach-retreat","232","1731430","0.0-232.0","","","2-5","7096","40","1","Testing","Stims/Figures/128-J-10-3.bmp","mama:na","Up","40","4","12","9","S","J","84"
"","","approach-retreat","233","1738164","0.0-233.0","","","2-5","5232","38","1","Testing","Stims/Figures/87-J-10-4.bmp","ta:ka:ta","Down","38","4","13","9","P","J","85"
"","","approach-retreat","234","1745646","0.0-234.0","","","2-5","5977","39","1","Testing","Stims/Figures/87-C-20-4.bmp","vashava","Right","39","4","14","9","C1","J","86"
"","","approach-retreat","235","1753502","0.0-235.0","","","2-5","6352","38","1","Testing","Stims/Figures/102-J-10-4.bmp","nalala","Down","38","4","15","9","S","J","87"
"","","approach-retreat","236","1760213","0.0-236.0","","","2-5","5208","39","0","Testing","Stims/Figures/128-C-30-3.bmp","va:shasha","Left","37","4","16","9","C1","J","88"
"","","approach-retreat","237","1767752","0.0-237.0","","","2-5","6037","40","1","Testing","Stims/Figures/94-C-20-2.bmp","mama:la","Down","40","4","17","9","S","J","89"
"","","approach-retreat","238","1774279","0.0-238.0","","","2-5","5025","39","0","Testing","Stims/Figures/118-J-0-2.bmp","zasaza","Right","37","4","18","9","C2","J","90"
"","","approach-retreat","239","1780231","0.0-239.0","","","2-5","4450","40","1","Testing","Stims/Figures/93-C-30-1.bmp","pa:ka:ta","Down","40","4","19","9","P","J","91"
"","","approach-retreat","240","1788169","0.0-240.0","","","2-5","6433","38","1","Testing","Stims/Figures/57-C-30-1.bmp","papata","Up","38","4","20","9","P","J","92"
"","","approach-retreat","241","1794831","0.0-241.0","","","2-5","5160","40","0","Testing","Stims/Figures/57-J-0-1.bmp","fasha:va","Down","38","4","21","9","C1","J","93"
"","","approach-retreat","242","1802089","0.0-242.0","","","2-5","5754","40","0","Testing","Stims/Figures/102-C-20-4.bmp","fa:sha:va","Up","38","4","22","9","C1","J","94"
"","","approach-retreat","243","1808984","0.0-243.0","","","2-5","5393","39","1","Testing","Stims/Figures/7-J-10-4.bmp","ma:la:la","Left","39","4","23","9","S","J","95"
"","","approach-retreat","244","1818519","0.0-244.0","","","2-5","8033","40","1","Testing","Stims/Figures/93-J-0-1.bmp","zahaha","Up","40","4","24","9","C2","J","96"
"27989","","survey-text","245","1846510","0.0-245.0","","{""Q0"":""2018/0002""}","","","","","","","","","","","","","","",""
