"rt","key_press","trial_type","trial_index","time_elapsed","internal_node_id","view_history","responses","Id","Rt","ResKeyCode","ResCorr","TrialType2","Image","Label","Location","CorrectResponse","Block","BlockTrial","Condition","LabelType","Subcondition","trialNum"
"72342","32","text","0","72346","0.0-0.0-0.0","","","","","","","","","","","","","","","","",""
"124800","","instructions","1","197150","0.0-1.0","[{""page_index"":0,""viewing_time"":124799}]","","","","","","","","","","","","","","","",""
"38620","","survey-multi-choice","2","235825","0.0-2.0","","{""Q0"":""Da"",""Q1"":""Da"",""Q2"":""Da"",""Q3"":""Da"",""Q4"":""Da"",""Q5"":""Da""}","","","","","","","","","","","","","","",""
"","","bio","3","245422","0.0-3.0","","{""age"":""18"",""gender"":""f"",""specify"":""""}","","","","","","","","","","","","","","",""
"","","approach-retreat","4","254480","0.0-4.0","","","2-2","7531","38","0","Training","Stims/Figures/74-C-20-4.bmp","sa:ha:ha","Down","40","1","1","8","C2","J","1"
"","","approach-retreat","5","273641","0.0-5.0","","","2-2","17649","40","1","Training","Stims/Figures/93-J-0-1.bmp","vafa:va","Up","40","1","2","8","C1","J","2"
"","","approach-retreat","6","281581","0.0-6.0","","","2-2","6430","39","1","Training","Stims/Figures/118-C-20-2.bmp","vashava","Right","39","1","3","8","C1","J","3"
"","","approach-retreat","7","289177","0.0-7.0","","","2-2","6083","37","1","Training","Stims/Figures/84-C-20-2.bmp","fasha:sha","Left","37","1","4","8","C1","J","4"
"","","approach-retreat","8","296345","0.0-8.0","","","2-2","5656","40","1","Training","Stims/Figures/84-J-0-2.bmp","fa:sha:va","Up","40","1","5","8","C1","J","5"
"","","approach-retreat","9","304521","0.0-9.0","","","2-2","6664","40","0","Training","Stims/Figures/118-J-0-2.bmp","fa:shava","Down","38","1","6","8","C1","J","6"
"","","approach-retreat","10","314702","0.0-10.0","","","2-2","8661","37","1","Training","Stims/Figures/27-J-0-1.bmp","fa:fa:sha","Right","37","1","7","8","C1","J","7"
"","","approach-retreat","11","320921","0.0-11.0","","","2-2","4686","37","0","Training","Stims/Figures/128-J-10-3.bmp","sa:sa:ha","Left","39","1","8","8","C2","J","8"
"","","approach-retreat","12","332974","0.0-12.0","","","2-2","10543","40","0","Training","Stims/Figures/44-C-30-3.bmp","zahaza","Up","38","1","9","8","C2","J","9"
"","","approach-retreat","13","343149","0.0-13.0","","","2-2","8665","40","1","Training","Stims/Figures/128-C-30-3.bmp","zasaza","Down","40","1","10","8","C2","J","10"
"","","approach-retreat","14","350958","0.0-14.0","","","2-2","6293","38","0","Training","Stims/Figures/19-C-20-4.bmp","za:saha","Down","40","1","11","8","C2","J","11"
"","","approach-retreat","15","356965","0.0-15.0","","","2-2","4496","39","0","Training","Stims/Figures/44-J-10-3.bmp","zasa:za","Right","37","1","12","8","C2","J","12"
"","","approach-retreat","16","363850","0.0-16.0","","","2-2","5376","39","0","Training","Stims/Figures/27-C-30-1.bmp","fafa:sha","Left","37","1","13","8","C1","J","13"
"","","approach-retreat","17","369969","0.0-17.0","","","2-2","4609","38","0","Training","Stims/Figures/74-J-10-4.bmp","sahaza","Up","40","1","14","8","C2","J","14"
"","","approach-retreat","18","377210","0.0-18.0","","","2-2","5732","39","0","Training","Stims/Figures/93-C-30-1.bmp","va:sha:va","Left","37","1","15","8","C1","J","15"
"","","approach-retreat","19","384339","0.0-19.0","","","2-2","5621","37","1","Training","Stims/Figures/19-J-10-4.bmp","za:ha:ha","Right","37","1","16","8","C2","J","16"
"","","approach-retreat","20","391652","0.0-20.0","","","2-2","5802","37","0","Training","Stims/Figures/44-J-10-3.bmp","zasa:za","Left","39","2","1","8","C2","J","17"
"","","approach-retreat","21","404723","0.0-21.0","","","2-2","11562","40","1","Training","Stims/Figures/19-J-10-4.bmp","za:ha:ha","Up","40","2","2","8","C2","J","18"
"","","approach-retreat","22","413186","0.0-22.0","","","2-2","6953","38","0","Training","Stims/Figures/84-C-20-2.bmp","fasha:sha","Down","40","2","3","8","C1","J","19"
"","","approach-retreat","23","420988","0.0-23.0","","","2-2","6291","38","0","Training","Stims/Figures/118-J-0-2.bmp","fa:shava","Up","40","2","4","8","C1","J","20"
"","","approach-retreat","24","427159","0.0-24.0","","","2-2","4660","37","0","Training","Stims/Figures/118-C-20-2.bmp","vashava","Right","39","2","5","8","C1","J","21"
"","","approach-retreat","25","433127","0.0-25.0","","","2-2","4458","37","1","Training","Stims/Figures/74-J-10-4.bmp","sahaza","Right","37","2","6","8","C2","J","22"
"","","approach-retreat","26","439051","0.0-26.0","","","2-2","4412","38","0","Training","Stims/Figures/93-C-30-1.bmp","va:sha:va","Down","40","2","7","8","C1","J","23"
"","","approach-retreat","27","447820","0.0-27.0","","","2-2","7257","40","0","Training","Stims/Figures/19-C-20-4.bmp","za:saha","Up","38","2","8","8","C2","J","24"
"","","approach-retreat","28","455075","0.0-28.0","","","2-2","5738","37","1","Training","Stims/Figures/84-J-0-2.bmp","fa:sha:va","Right","37","2","9","8","C1","J","25"
"","","approach-retreat","29","465145","0.0-29.0","","","2-2","8559","39","1","Training","Stims/Figures/93-J-0-1.bmp","vafa:va","Left","39","2","10","8","C1","J","26"
"","","approach-retreat","30","473239","0.0-30.0","","","2-2","6579","39","0","Training","Stims/Figures/128-C-30-3.bmp","zasaza","Left","37","2","11","8","C2","J","27"
"","","approach-retreat","31","478988","0.0-31.0","","","2-2","4214","38","1","Training","Stims/Figures/128-J-10-3.bmp","sa:sa:ha","Down","38","2","12","8","C2","J","28"
"","","approach-retreat","32","485646","0.0-32.0","","","2-2","5143","37","1","Training","Stims/Figures/74-C-20-4.bmp","sa:ha:ha","Left","37","2","13","8","C2","J","29"
"","","approach-retreat","33","491691","0.0-33.0","","","2-2","4525","38","1","Training","Stims/Figures/44-C-30-3.bmp","zahaza","Up","38","2","14","8","C2","J","30"
"","","approach-retreat","34","498290","0.0-34.0","","","2-2","5063","39","1","Training","Stims/Figures/27-C-30-1.bmp","fafa:sha","Right","39","2","15","8","C1","J","31"
"","","approach-retreat","35","505312","0.0-35.0","","","2-2","5504","40","0","Training","Stims/Figures/27-J-0-1.bmp","fa:fa:sha","Down","38","2","16","8","C1","J","32"
"","","approach-retreat","36","512573","0.0-36.0","","","2-2","5750","40","0","Training","Stims/Figures/118-J-0-2.bmp","fa:shava","Down","38","3","1","8","C1","J","33"
"","","approach-retreat","37","519456","0.0-37.0","","","2-2","5373","37","0","Training","Stims/Figures/93-J-0-1.bmp","vafa:va","Left","39","3","2","8","C1","J","34"
"","","approach-retreat","38","528062","0.0-38.0","","","2-2","7072","38","0","Training","Stims/Figures/128-J-10-3.bmp","sa:sa:ha","Up","40","3","3","8","C2","J","35"
"","","approach-retreat","39","534054","0.0-39.0","","","2-2","4479","40","1","Training","Stims/Figures/74-J-10-4.bmp","sahaza","Up","40","3","4","8","C2","J","36"
"","","approach-retreat","40","539998","0.0-40.0","","","2-2","4435","37","1","Training","Stims/Figures/84-C-20-2.bmp","fasha:sha","Left","37","3","5","8","C1","J","37"
"","","approach-retreat","41","548410","0.0-41.0","","","2-2","6901","40","1","Training","Stims/Figures/118-C-20-2.bmp","vashava","Down","40","3","6","8","C1","J","38"
"","","approach-retreat","42","555601","0.0-42.0","","","2-2","5680","39","0","Training","Stims/Figures/27-C-30-1.bmp","fafa:sha","Left","37","3","7","8","C1","J","39"
"","","approach-retreat","43","563709","0.0-43.0","","","2-2","6599","38","1","Training","Stims/Figures/27-J-0-1.bmp","fa:fa:sha","Down","38","3","8","8","C1","J","40"
"","","approach-retreat","44","570282","0.0-44.0","","","2-2","5048","38","1","Training","Stims/Figures/44-J-10-3.bmp","zasa:za","Down","38","3","9","8","C2","J","41"
"","","approach-retreat","45","576369","0.0-45.0","","","2-2","4576","37","0","Training","Stims/Figures/44-C-30-3.bmp","zahaza","Right","39","3","10","8","C2","J","42"
"","","approach-retreat","46","587389","0.0-46.0","","","2-2","9495","37","1","Training","Stims/Figures/74-C-20-4.bmp","sa:ha:ha","Left","37","3","11","8","C2","J","43"
"","","approach-retreat","47","596759","0.0-47.0","","","2-2","7860","40","0","Training","Stims/Figures/19-C-20-4.bmp","za:saha","Up","38","3","12","8","C2","J","44"
"","","approach-retreat","48","603223","0.0-48.0","","","2-2","4934","37","1","Training","Stims/Figures/19-J-10-4.bmp","za:ha:ha","Right","37","3","13","8","C2","J","45"
"","","approach-retreat","49","609673","0.0-49.0","","","2-2","4911","37","0","Training","Stims/Figures/93-C-30-1.bmp","va:sha:va","Right","39","3","14","8","C1","J","46"
"","","approach-retreat","50","622903","0.0-50.0","","","2-2","11693","39","1","Training","Stims/Figures/128-C-30-3.bmp","zasaza","Right","39","3","15","8","C2","J","47"
"","","approach-retreat","51","648133","0.0-51.0","","","2-2","23693","40","1","Training","Stims/Figures/84-J-0-2.bmp","fa:sha:va","Up","40","3","16","8","C1","J","48"
"","","approach-retreat","52","655237","0.0-52.0","","","2-2","5564","40","1","Training","Stims/Figures/27-J-0-1.bmp","fa:fa:sha","Up","40","4","1","8","C1","J","49"
"","","approach-retreat","53","660915","0.0-53.0","","","2-2","4146","40","0","Training","Stims/Figures/74-C-20-4.bmp","sa:ha:ha","Up","38","4","2","8","C2","J","50"
"","","approach-retreat","54","668566","0.0-54.0","","","2-2","6114","40","1","Training","Stims/Figures/27-C-30-1.bmp","fafa:sha","Down","40","4","3","8","C1","J","51"
"","","approach-retreat","55","674694","0.0-55.0","","","2-2","4587","38","1","Training","Stims/Figures/128-J-10-3.bmp","sa:sa:ha","Down","38","4","4","8","C2","J","52"
"","","approach-retreat","56","681239","0.0-56.0","","","2-2","5008","37","0","Training","Stims/Figures/19-J-10-4.bmp","za:ha:ha","Left","39","4","5","8","C2","J","53"
"","","approach-retreat","57","687245","0.0-57.0","","","2-2","4472","37","1","Training","Stims/Figures/44-C-30-3.bmp","zahaza","Left","37","4","6","8","C2","J","54"
"","","approach-retreat","58","693105","0.0-58.0","","","2-2","4329","39","1","Training","Stims/Figures/128-C-30-3.bmp","zasaza","Right","39","4","7","8","C2","J","55"
"","","approach-retreat","59","698933","0.0-59.0","","","2-2","4288","39","0","Training","Stims/Figures/93-C-30-1.bmp","va:sha:va","Left","37","4","8","8","C1","J","56"
"","","approach-retreat","60","704736","0.0-60.0","","","2-2","4268","38","0","Training","Stims/Figures/74-J-10-4.bmp","sahaza","Up","40","4","9","8","C2","J","57"
"","","approach-retreat","61","711333","0.0-61.0","","","2-2","5056","37","1","Training","Stims/Figures/93-J-0-1.bmp","vafa:va","Right","37","4","10","8","C1","J","58"
"","","approach-retreat","62","717816","0.0-62.0","","","2-2","4945","37","1","Training","Stims/Figures/44-J-10-3.bmp","zasa:za","Right","37","4","11","8","C2","J","59"
"","","approach-retreat","63","724014","0.0-63.0","","","2-2","4659","39","0","Training","Stims/Figures/118-C-20-2.bmp","vashava","Left","37","4","12","8","C1","J","60"
"","","approach-retreat","64","739391","0.0-64.0","","","2-2","13841","38","1","Training","Stims/Figures/84-J-0-2.bmp","fa:sha:va","Down","38","4","13","8","C1","J","61"
"","","approach-retreat","65","745890","0.0-65.0","","","2-2","4960","38","0","Training","Stims/Figures/118-J-0-2.bmp","fa:shava","Up","40","4","14","8","C1","J","62"
"","","approach-retreat","66","752485","0.0-66.0","","","2-2","5086","38","0","Training","Stims/Figures/19-C-20-4.bmp","za:saha","Down","40","4","15","8","C2","J","63"
"","","approach-retreat","67","758708","0.0-67.0","","","2-2","4688","39","1","Training","Stims/Figures/84-C-20-2.bmp","fasha:sha","Right","39","4","16","8","C1","J","64"
"","","approach-retreat","68","765480","0.0-68.0","","","2-2","5233","39","0","Training","Stims/Figures/128-J-10-3.bmp","sa:sa:ha","Right","37","5","1","8","C2","J","65"
"","","approach-retreat","69","771410","0.0-69.0","","","2-2","4398","38","1","Training","Stims/Figures/19-J-10-4.bmp","za:ha:ha","Down","38","5","2","8","C2","J","66"
"","","approach-retreat","70","778848","0.0-70.0","","","2-2","5901","38","0","Training","Stims/Figures/118-J-0-2.bmp","fa:shava","Up","40","5","3","8","C1","J","67"
"","","approach-retreat","71","785629","0.0-71.0","","","2-2","5242","37","0","Training","Stims/Figures/44-C-30-3.bmp","zahaza","Right","39","5","4","8","C2","J","68"
"","","approach-retreat","72","798189","0.0-72.0","","","2-2","11021","38","0","Training","Stims/Figures/27-J-0-1.bmp","fa:fa:sha","Up","40","5","5","8","C1","J","69"
"","","approach-retreat","73","805200","0.0-73.0","","","2-2","5472","39","0","Training","Stims/Figures/74-J-10-4.bmp","sahaza","Right","37","5","6","8","C2","J","70"
"","","approach-retreat","74","816588","0.0-74.0","","","2-2","9867","39","1","Training","Stims/Figures/19-C-20-4.bmp","za:saha","Right","39","5","7","8","C2","J","71"
"","","approach-retreat","75","823267","0.0-75.0","","","2-2","5141","37","1","Training","Stims/Figures/84-C-20-2.bmp","fasha:sha","Left","37","5","8","8","C1","J","72"
"","","approach-retreat","76","834177","0.0-76.0","","","2-2","9368","38","1","Training","Stims/Figures/93-J-0-1.bmp","vafa:va","Down","38","5","9","8","C1","J","73"
"","","approach-retreat","77","841285","0.0-77.0","","","2-2","5594","38","0","Training","Stims/Figures/84-J-0-2.bmp","fa:sha:va","Up","40","5","10","8","C1","J","74"
"","","approach-retreat","78","848023","0.0-78.0","","","2-2","5203","37","1","Training","Stims/Figures/118-C-20-2.bmp","vashava","Left","37","5","11","8","C1","J","75"
"","","approach-retreat","79","858894","0.0-79.0","","","2-2","9331","40","1","Training","Stims/Figures/27-C-30-1.bmp","fafa:sha","Down","40","5","12","8","C1","J","76"
"","","approach-retreat","80","866095","0.0-80.0","","","2-2","5667","38","1","Training","Stims/Figures/128-C-30-3.bmp","zasaza","Up","38","5","13","8","C2","J","77"
"","","approach-retreat","81","872806","0.0-81.0","","","2-2","5178","38","1","Training","Stims/Figures/44-J-10-3.bmp","zasa:za","Down","38","5","14","8","C2","J","78"
"","","approach-retreat","82","878503","0.0-82.0","","","2-2","4159","39","0","Training","Stims/Figures/93-C-30-1.bmp","va:sha:va","Left","37","5","15","8","C1","J","79"
"","","approach-retreat","83","884822","0.0-83.0","","","2-2","4779","37","1","Training","Stims/Figures/74-C-20-4.bmp","sa:ha:ha","Left","37","5","16","8","C2","J","80"
"","","approach-retreat","84","890741","0.0-84.0","","","2-2","4381","40","1","Training","Stims/Figures/27-J-0-1.bmp","fa:fa:sha","Up","40","6","1","8","C1","J","81"
"","","approach-retreat","85","896728","0.0-85.0","","","2-2","4447","38","0","Training","Stims/Figures/74-J-10-4.bmp","sahaza","Up","40","6","2","8","C2","J","82"
"","","approach-retreat","86","902638","0.0-86.0","","","2-2","4389","40","1","Training","Stims/Figures/19-J-10-4.bmp","za:ha:ha","Up","40","6","3","8","C2","J","83"
"","","approach-retreat","87","911590","0.0-87.0","","","2-2","7418","37","0","Training","Stims/Figures/44-J-10-3.bmp","zasa:za","Left","39","6","4","8","C2","J","84"
"","","approach-retreat","88","917606","0.0-88.0","","","2-2","4475","40","1","Training","Stims/Figures/128-C-30-3.bmp","zasaza","Down","40","6","5","8","C2","J","85"
"","","approach-retreat","89","924288","0.0-89.0","","","2-2","5148","39","1","Training","Stims/Figures/84-J-0-2.bmp","fa:sha:va","Left","39","6","6","8","C1","J","86"
"","","approach-retreat","90","931682","0.0-90.0","","","2-2","5855","39","1","Training","Stims/Figures/19-C-20-4.bmp","za:saha","Right","39","6","7","8","C2","J","87"
"","","approach-retreat","91","937622","0.0-91.0","","","2-2","4402","40","1","Training","Stims/Figures/118-C-20-2.bmp","vashava","Down","40","6","8","8","C1","J","88"
"","","approach-retreat","92","943349","0.0-92.0","","","2-2","4196","38","0","Training","Stims/Figures/128-J-10-3.bmp","sa:sa:ha","Up","40","6","9","8","C2","J","89"
"","","approach-retreat","93","950363","0.0-93.0","","","2-2","5482","39","0","Training","Stims/Figures/44-C-30-3.bmp","zahaza","Left","37","6","10","8","C2","J","90"
"","","approach-retreat","94","957433","0.0-94.0","","","2-2","5535","37","0","Training","Stims/Figures/27-C-30-1.bmp","fafa:sha","Right","39","6","11","8","C1","J","91"
"","","approach-retreat","95","963204","0.0-95.0","","","2-2","4233","38","1","Training","Stims/Figures/93-J-0-1.bmp","vafa:va","Down","38","6","12","8","C1","J","92"
"","","approach-retreat","96","969441","0.0-96.0","","","2-2","4726","37","0","Training","Stims/Figures/93-C-30-1.bmp","va:sha:va","Right","39","6","13","8","C1","J","93"
"","","approach-retreat","97","982430","0.0-97.0","","","2-2","11454","37","0","Training","Stims/Figures/74-C-20-4.bmp","sa:ha:ha","Right","39","6","14","8","C2","J","94"
"","","approach-retreat","98","989619","0.0-98.0","","","2-2","5651","39","1","Training","Stims/Figures/118-J-0-2.bmp","fa:shava","Left","39","6","15","8","C1","J","95"
"","","approach-retreat","99","995530","0.0-99.0","","","2-2","4372","38","0","Training","Stims/Figures/84-C-20-2.bmp","fasha:sha","Down","40","6","16","8","C1","J","96"
"","","approach-retreat","100","1001938","0.0-100.0","","","2-2","4869","37","1","Training","Stims/Figures/19-J-10-4.bmp","za:ha:ha","Right","37","7","1","8","C2","J","97"
"","","approach-retreat","101","1007986","0.0-101.0","","","2-2","4517","38","1","Training","Stims/Figures/27-J-0-1.bmp","fa:fa:sha","Down","38","7","2","8","C1","J","98"
"","","approach-retreat","102","1017065","0.0-102.0","","","2-2","7538","40","0","Training","Stims/Figures/118-C-20-2.bmp","vashava","Up","38","7","3","8","C1","J","99"
"","","approach-retreat","103","1023016","0.0-103.0","","","2-2","4422","40","1","Training","Stims/Figures/74-J-10-4.bmp","sahaza","Up","40","7","4","8","C2","J","100"
"","","approach-retreat","104","1028897","0.0-104.0","","","2-2","4342","40","0","Training","Stims/Figures/128-J-10-3.bmp","sa:sa:ha","Down","38","7","5","8","C2","J","101"
"","","approach-retreat","105","1035026","0.0-105.0","","","2-2","4619","38","0","Training","Stims/Figures/44-J-10-3.bmp","zasa:za","Up","40","7","6","8","C2","J","102"
"","","approach-retreat","106","1043608","0.0-106.0","","","2-2","7045","40","1","Training","Stims/Figures/128-C-30-3.bmp","zasaza","Down","40","7","7","8","C2","J","103"
"","","approach-retreat","107","1051045","0.0-107.0","","","2-2","5900","39","0","Training","Stims/Figures/74-C-20-4.bmp","sa:ha:ha","Left","37","7","8","8","C2","J","104"
"","","approach-retreat","108","1059997","0.0-108.0","","","2-2","7414","38","1","Training","Stims/Figures/44-C-30-3.bmp","zahaza","Up","38","7","9","8","C2","J","105"
"","","approach-retreat","109","1067902","0.0-109.0","","","2-2","6372","38","0","Training","Stims/Figures/93-C-30-1.bmp","va:sha:va","Down","40","7","10","8","C1","J","106"
"","","approach-retreat","110","1075879","0.0-110.0","","","2-2","6437","39","0","Training","Stims/Figures/19-C-20-4.bmp","za:saha","Left","37","7","11","8","C2","J","107"
"","","approach-retreat","111","1082778","0.0-111.0","","","2-2","5359","39","1","Training","Stims/Figures/84-C-20-2.bmp","fasha:sha","Right","39","7","12","8","C1","J","108"
"","","approach-retreat","112","1090086","0.0-112.0","","","2-2","5767","39","0","Training","Stims/Figures/27-C-30-1.bmp","fafa:sha","Left","37","7","13","8","C1","J","109"
"","","approach-retreat","113","1096008","0.0-113.0","","","2-2","4391","37","1","Training","Stims/Figures/84-J-0-2.bmp","fa:sha:va","Right","37","7","14","8","C1","J","110"
"","","approach-retreat","114","1102518","0.0-114.0","","","2-2","4999","37","1","Training","Stims/Figures/93-J-0-1.bmp","vafa:va","Right","37","7","15","8","C1","J","111"
"","","approach-retreat","115","1108476","0.0-115.0","","","2-2","4416","37","0","Training","Stims/Figures/118-J-0-2.bmp","fa:shava","Left","39","7","16","8","C1","J","112"
"","","approach-retreat","116","1114360","0.0-116.0","","","2-2","4350","39","0","Training","Stims/Figures/74-C-20-4.bmp","sa:ha:ha","Left","37","8","1","8","C2","J","113"
"","","approach-retreat","117","1120661","0.0-117.0","","","2-2","4767","37","0","Training","Stims/Figures/27-C-30-1.bmp","fafa:sha","Right","39","8","2","8","C1","J","114"
"","","approach-retreat","118","1129785","0.0-118.0","","","2-2","7585","37","1","Training","Stims/Figures/128-J-10-3.bmp","sa:sa:ha","Right","37","8","3","8","C2","J","115"
"","","approach-retreat","119","1136353","0.0-119.0","","","2-2","5029","38","1","Training","Stims/Figures/27-J-0-1.bmp","fa:fa:sha","Down","38","8","4","8","C1","J","116"
"","","approach-retreat","120","1144215","0.0-120.0","","","2-2","6333","38","0","Training","Stims/Figures/19-C-20-4.bmp","za:saha","Down","40","8","5","8","C2","J","117"
"","","approach-retreat","121","1151575","0.0-121.0","","","2-2","5823","40","0","Training","Stims/Figures/74-J-10-4.bmp","sahaza","Down","38","8","6","8","C2","J","118"
"","","approach-retreat","122","1157457","0.0-122.0","","","2-2","4345","40","1","Training","Stims/Figures/93-J-0-1.bmp","vafa:va","Up","40","8","7","8","C1","J","119"
"","","approach-retreat","123","1164096","0.0-123.0","","","2-2","5102","40","1","Training","Stims/Figures/84-C-20-2.bmp","fasha:sha","Down","40","8","8","8","C1","J","120"
"","","approach-retreat","124","1172141","0.0-124.0","","","2-2","6513","38","1","Training","Stims/Figures/128-C-30-3.bmp","zasaza","Up","38","8","9","8","C2","J","121"
"","","approach-retreat","125","1184600","0.0-125.0","","","2-2","10920","37","1","Training","Stims/Figures/84-J-0-2.bmp","fa:sha:va","Right","37","8","10","8","C1","J","122"
"","","approach-retreat","126","1191502","0.0-126.0","","","2-2","5362","39","1","Training","Stims/Figures/118-J-0-2.bmp","fa:shava","Left","39","8","11","8","C1","J","123"
"","","approach-retreat","127","1198666","0.0-127.0","","","2-2","5624","38","1","Training","Stims/Figures/93-C-30-1.bmp","va:sha:va","Up","38","8","12","8","C1","J","124"
"","","approach-retreat","128","1206067","0.0-128.0","","","2-2","5861","37","1","Training","Stims/Figures/19-J-10-4.bmp","za:ha:ha","Right","37","8","13","8","C2","J","125"
"","","approach-retreat","129","1213660","0.0-129.0","","","2-2","6060","37","1","Training","Stims/Figures/44-C-30-3.bmp","zahaza","Left","37","8","14","8","C2","J","126"
"","","approach-retreat","130","1219892","0.0-130.0","","","2-2","4701","39","1","Training","Stims/Figures/44-J-10-3.bmp","zasa:za","Left","39","8","15","8","C2","J","127"
"","","approach-retreat","131","1226465","0.0-131.0","","","2-2","5039","38","1","Training","Stims/Figures/118-C-20-2.bmp","vashava","Up","38","8","16","8","C1","J","128"
"","","approach-retreat","132","1234289","0.0-132.0","","","2-2","6313","38","1","Training","Stims/Figures/44-J-10-3.bmp","zasa:za","Down","38","9","1","8","C2","J","129"
"","","approach-retreat","133","1240255","0.0-133.0","","","2-2","4431","40","1","Training","Stims/Figures/93-J-0-1.bmp","vafa:va","Up","40","9","2","8","C1","J","130"
"","","approach-retreat","134","1248358","0.0-134.0","","","2-2","6564","38","1","Training","Stims/Figures/118-J-0-2.bmp","fa:shava","Down","38","9","3","8","C1","J","131"
"","","approach-retreat","135","1255293","0.0-135.0","","","2-2","5398","38","0","Training","Stims/Figures/19-J-10-4.bmp","za:ha:ha","Up","40","9","4","8","C2","J","132"
"","","approach-retreat","136","1262142","0.0-136.0","","","2-2","5317","37","1","Training","Stims/Figures/84-C-20-2.bmp","fasha:sha","Left","37","9","5","8","C1","J","133"
"","","approach-retreat","137","1269052","0.0-137.0","","","2-2","5378","37","1","Training","Stims/Figures/74-C-20-4.bmp","sa:ha:ha","Left","37","9","6","8","C2","J","134"
"","","approach-retreat","138","1277861","0.0-138.0","","","2-2","7263","37","0","Training","Stims/Figures/19-C-20-4.bmp","za:saha","Right","39","9","7","8","C2","J","135"
"","","approach-retreat","139","1285160","0.0-139.0","","","2-2","5758","39","0","Training","Stims/Figures/118-C-20-2.bmp","vashava","Left","37","9","8","8","C1","J","136"
"","","approach-retreat","140","1292371","0.0-140.0","","","2-2","5673","40","1","Training","Stims/Figures/128-J-10-3.bmp","sa:sa:ha","Up","40","9","9","8","C2","J","137"
"","","approach-retreat","141","1298390","0.0-141.0","","","2-2","4485","37","1","Training","Stims/Figures/44-C-30-3.bmp","zahaza","Left","37","9","10","8","C2","J","138"
"","","approach-retreat","142","1305015","0.0-142.0","","","2-2","5086","39","1","Training","Stims/Figures/128-C-30-3.bmp","zasaza","Right","39","9","11","8","C2","J","139"
"","","approach-retreat","143","1310800","0.0-143.0","","","2-2","4244","37","1","Training","Stims/Figures/27-J-0-1.bmp","fa:fa:sha","Right","37","9","12","8","C1","J","140"
"","","approach-retreat","144","1319186","0.0-144.0","","","2-2","6847","39","1","Training","Stims/Figures/27-C-30-1.bmp","fafa:sha","Right","39","9","13","8","C1","J","141"
"","","approach-retreat","145","1326792","0.0-145.0","","","2-2","6066","40","1","Training","Stims/Figures/74-J-10-4.bmp","sahaza","Up","40","9","14","8","C2","J","142"
"","","approach-retreat","146","1334310","0.0-146.0","","","2-2","5989","38","0","Training","Stims/Figures/93-C-30-1.bmp","va:sha:va","Down","40","9","15","8","C1","J","143"
"","","approach-retreat","147","1340054","0.0-147.0","","","2-2","4208","38","1","Training","Stims/Figures/84-J-0-2.bmp","fa:sha:va","Down","38","9","16","8","C1","J","144"
"44450","","instructions","148","1384507","0.0-148.0","[{""page_index"":0,""viewing_time"":44449}]","","","","","","","","","","","","","","","",""
"","","approach-retreat","149","1394248","0.0-149.0","","","2-2","8215","40","1","Testing","Stims/Figures/102-J-10-4.bmp","sahaha","Up","40","1","1","8","C2","J","1"
"","","approach-retreat","150","1400147","0.0-150.0","","","2-2","4367","38","1","Testing","Stims/Figures/27-J-0-1.bmp","fa:fa:sha","Down","38","1","2","8","C1","J","2"
"","","approach-retreat","151","1406110","0.0-151.0","","","2-2","4430","40","1","Testing","Stims/Figures/27-C-30-1.bmp","fafa:sha","Down","40","1","3","8","C1","J","3"
"","","approach-retreat","152","1416950","0.0-152.0","","","2-2","9309","38","0","Testing","Stims/Figures/118-C-20-2.bmp","vashava","Down","40","1","4","8","C1","J","4"
"","","approach-retreat","153","1425243","0.0-153.0","","","2-2","6764","37","0","Testing","Stims/Figures/74-C-20-4.bmp","sa:ha:ha","Right","39","1","5","8","C2","J","5"
"","","approach-retreat","154","1434482","0.0-154.0","","","2-2","7709","37","0","Testing","Stims/Figures/100-C-30-3.bmp","za:haza","Right","39","1","6","8","C2","J","6"
"","","approach-retreat","155","1440683","0.0-155.0","","","2-2","4671","39","1","Testing","Stims/Figures/93-J-0-1.bmp","vafa:va","Left","39","1","7","8","C1","J","7"
"","","approach-retreat","156","1449366","0.0-156.0","","","2-2","7151","40","0","Testing","Stims/Figures/128-C-30-3.bmp","zasaza","Up","38","1","8","8","C2","J","8"
"","","approach-retreat","157","1455492","0.0-157.0","","","2-2","4601","40","1","Testing","Stims/Figures/139-J-0-2.bmp","va:fa:va","Up","40","1","9","8","C1","J","9"
"","","approach-retreat","158","1462851","0.0-158.0","","","2-2","5830","37","1","Testing","Stims/Figures/44-J-10-3.bmp","zasa:za","Right","37","1","10","8","C2","J","10"
"","","approach-retreat","159","1468748","0.0-159.0","","","2-2","4369","37","1","Testing","Stims/Figures/102-C-20-4.bmp","za:sa:za","Left","37","1","11","8","C2","J","11"
"","","approach-retreat","160","1474597","0.0-160.0","","","2-2","4319","37","1","Testing","Stims/Figures/84-J-0-2.bmp","fa:sha:va","Right","37","1","12","8","C1","J","12"
"","","approach-retreat","161","1480625","0.0-161.0","","","2-2","4517","40","1","Testing","Stims/Figures/84-C-20-2.bmp","fasha:sha","Down","40","1","13","8","C1","J","13"
"","","approach-retreat","162","1486451","0.0-162.0","","","2-2","4318","39","1","Testing","Stims/Figures/74-J-10-4.bmp","sahaza","Left","39","1","14","8","C2","J","14"
"","","approach-retreat","163","1493070","0.0-163.0","","","2-2","5112","39","1","Testing","Stims/Figures/44-C-30-3.bmp","zahaza","Right","39","1","15","8","C2","J","15"
"","","approach-retreat","164","1500936","0.0-164.0","","","2-2","6334","38","1","Testing","Stims/Figures/128-J-10-3.bmp","sa:sa:ha","Down","38","1","16","8","C2","J","16"
"","","approach-retreat","165","1507025","0.0-165.0","","","2-2","4559","37","0","Testing","Stims/Figures/100-J-10-3.bmp","zasa:ha","Left","39","1","17","8","C2","J","17"
"","","approach-retreat","166","1512694","0.0-166.0","","","2-2","4142","40","0","Testing","Stims/Figures/86-C-30-1.bmp","fa:fa:va","Up","38","1","18","8","C1","J","18"
"","","approach-retreat","167","1521431","0.0-167.0","","","2-2","7198","38","1","Testing","Stims/Figures/118-J-0-2.bmp","fa:shava","Down","38","1","19","8","C1","J","19"
"","","approach-retreat","168","1527773","0.0-168.0","","","2-2","4813","37","1","Testing","Stims/Figures/93-C-30-1.bmp","va:sha:va","Left","37","1","20","8","C1","J","20"
"","","approach-retreat","169","1534211","0.0-169.0","","","2-2","4909","37","1","Testing","Stims/Figures/19-J-10-4.bmp","za:ha:ha","Right","37","1","21","8","C2","J","21"
"","","approach-retreat","170","1542924","0.0-170.0","","","2-2","7190","39","0","Testing","Stims/Figures/19-C-20-4.bmp","za:saha","Left","37","1","22","8","C2","J","22"
"","","approach-retreat","171","1548805","0.0-171.0","","","2-2","4350","40","1","Testing","Stims/Figures/86-J-0-1.bmp","fashasha","Up","40","1","23","8","C1","J","23"
"","","approach-retreat","172","1554595","0.0-172.0","","","2-2","4262","38","1","Testing","Stims/Figures/139-C-20-2.bmp","vasha:va","Up","38","1","24","8","C1","J","24"
"","","approach-retreat","173","1561345","0.0-173.0","","","2-2","5242","40","0","Testing","Stims/Figures/74-J-10-4.bmp","sahaza","Down","38","2","1","8","C2","J","25"
"","","approach-retreat","174","1567372","0.0-174.0","","","2-2","4496","37","1","Testing","Stims/Figures/27-J-0-1.bmp","fa:fa:sha","Right","37","2","2","8","C1","J","26"
"","","approach-retreat","175","1574137","0.0-175.0","","","2-2","5234","39","1","Testing","Stims/Figures/139-C-20-2.bmp","vasha:va","Right","39","2","3","8","C1","J","27"
"","","approach-retreat","176","1580472","0.0-176.0","","","2-2","4807","39","0","Testing","Stims/Figures/100-C-30-3.bmp","za:haza","Left","37","2","4","8","C2","J","28"
"","","approach-retreat","177","1586761","0.0-177.0","","","2-2","4759","40","1","Testing","Stims/Figures/93-J-0-1.bmp","vafa:va","Up","40","2","5","8","C1","J","29"
"","","approach-retreat","178","1592569","0.0-178.0","","","2-2","4279","40","1","Testing","Stims/Figures/44-J-10-3.bmp","zasa:za","Up","40","2","6","8","C2","J","30"
"","","approach-retreat","179","1603200","0.0-179.0","","","2-2","9101","37","1","Testing","Stims/Figures/118-C-20-2.bmp","vashava","Left","37","2","7","8","C1","J","31"
"","","approach-retreat","180","1610154","0.0-180.0","","","2-2","5425","38","0","Testing","Stims/Figures/102-C-20-4.bmp","za:sa:za","Down","40","2","8","8","C2","J","32"
"","","approach-retreat","181","1616138","0.0-181.0","","","2-2","4454","38","1","Testing","Stims/Figures/139-J-0-2.bmp","va:fa:va","Down","38","2","9","8","C1","J","33"
"","","approach-retreat","182","1622120","0.0-182.0","","","2-2","4455","39","1","Testing","Stims/Figures/84-C-20-2.bmp","fasha:sha","Right","39","2","10","8","C1","J","34"
"","","approach-retreat","183","1628198","0.0-183.0","","","2-2","4568","37","0","Testing","Stims/Figures/74-C-20-4.bmp","sa:ha:ha","Right","39","2","11","8","C2","J","35"
"","","approach-retreat","184","1634482","0.0-184.0","","","2-2","4756","40","1","Testing","Stims/Figures/102-J-10-4.bmp","sahaha","Up","40","2","12","8","C2","J","36"
"","","approach-retreat","185","1640361","0.0-185.0","","","2-2","4351","37","0","Testing","Stims/Figures/128-C-30-3.bmp","zasaza","Right","39","2","13","8","C2","J","37"
"","","approach-retreat","186","1646087","0.0-186.0","","","2-2","4197","40","1","Testing","Stims/Figures/118-J-0-2.bmp","fa:shava","Up","40","2","14","8","C1","J","38"
"","","approach-retreat","187","1651976","0.0-187.0","","","2-2","4362","37","1","Testing","Stims/Figures/27-C-30-1.bmp","fafa:sha","Left","37","2","15","8","C1","J","39"
"","","approach-retreat","188","1658111","0.0-188.0","","","2-2","4604","38","1","Testing","Stims/Figures/100-J-10-3.bmp","zasa:ha","Down","38","2","16","8","C2","J","40"
"","","approach-retreat","189","1664128","0.0-189.0","","","2-2","4489","40","1","Testing","Stims/Figures/86-J-0-1.bmp","fashasha","Up","40","2","17","8","C1","J","41"
"","","approach-retreat","190","1672889","0.0-190.0","","","2-2","7231","39","0","Testing","Stims/Figures/44-C-30-3.bmp","zahaza","Left","37","2","18","8","C2","J","42"
"","","approach-retreat","191","1678664","0.0-191.0","","","2-2","4242","38","1","Testing","Stims/Figures/128-J-10-3.bmp","sa:sa:ha","Down","38","2","19","8","C2","J","43"
"","","approach-retreat","192","1684613","0.0-192.0","","","2-2","4443","38","0","Testing","Stims/Figures/19-C-20-4.bmp","za:saha","Down","40","2","20","8","C2","J","44"
"","","approach-retreat","193","1690323","0.0-193.0","","","2-2","4199","37","1","Testing","Stims/Figures/86-C-30-1.bmp","fa:fa:va","Left","37","2","21","8","C1","J","45"
"","","approach-retreat","194","1696417","0.0-194.0","","","2-2","4565","38","1","Testing","Stims/Figures/93-C-30-1.bmp","va:sha:va","Up","38","2","22","8","C1","J","46"
"","","approach-retreat","195","1703482","0.0-195.0","","","2-2","5536","39","0","Testing","Stims/Figures/19-J-10-4.bmp","za:ha:ha","Right","37","2","23","8","C2","J","47"
"","","approach-retreat","196","1709397","0.0-196.0","","","2-2","4386","39","1","Testing","Stims/Figures/84-J-0-2.bmp","fa:sha:va","Left","39","2","24","8","C1","J","48"
"","","approach-retreat","197","1715771","0.0-197.0","","","2-2","4846","40","0","Testing","Stims/Figures/19-J-10-4.bmp","za:ha:ha","Down","38","3","1","8","C2","J","49"
"","","approach-retreat","198","1721482","0.0-198.0","","","2-2","4185","38","1","Testing","Stims/Figures/128-J-10-3.bmp","sa:sa:ha","Down","38","3","2","8","C2","J","50"
"","","approach-retreat","199","1727315","0.0-199.0","","","2-2","4303","40","1","Testing","Stims/Figures/44-J-10-3.bmp","zasa:za","Up","40","3","3","8","C2","J","51"
"","","approach-retreat","200","1733233","0.0-200.0","","","2-2","4391","37","1","Testing","Stims/Figures/93-J-0-1.bmp","vafa:va","Right","37","3","4","8","C1","J","52"
"","","approach-retreat","201","1741136","0.0-201.0","","","2-2","6370","39","0","Testing","Stims/Figures/102-C-20-4.bmp","za:sa:za","Left","37","3","5","8","C2","J","53"
"","","approach-retreat","202","1747072","0.0-202.0","","","2-2","4404","37","0","Testing","Stims/Figures/74-C-20-4.bmp","sa:ha:ha","Right","39","3","6","8","C2","J","54"
"","","approach-retreat","203","1752771","0.0-203.0","","","2-2","4170","37","1","Testing","Stims/Figures/139-J-0-2.bmp","va:fa:va","Right","37","3","7","8","C1","J","55"
"","","approach-retreat","204","1758815","0.0-204.0","","","2-2","4513","40","1","Testing","Stims/Figures/84-J-0-2.bmp","fa:sha:va","Up","40","3","8","8","C1","J","56"
"","","approach-retreat","205","1767043","0.0-205.0","","","2-2","6699","39","1","Testing","Stims/Figures/102-J-10-4.bmp","sahaha","Left","39","3","9","8","C2","J","57"
"","","approach-retreat","206","1773039","0.0-206.0","","","2-2","4465","37","1","Testing","Stims/Figures/44-C-30-3.bmp","zahaza","Left","37","3","10","8","C2","J","58"
"","","approach-retreat","207","1778955","0.0-207.0","","","2-2","4390","37","0","Testing","Stims/Figures/100-C-30-3.bmp","za:haza","Right","39","3","11","8","C2","J","59"
"","","approach-retreat","208","1785715","0.0-208.0","","","2-2","5232","39","0","Testing","Stims/Figures/128-C-30-3.bmp","zasaza","Left","37","3","12","8","C2","J","60"
"","","approach-retreat","209","1792481","0.0-209.0","","","2-2","5234","38","1","Testing","Stims/Figures/86-J-0-1.bmp","fashasha","Down","38","3","13","8","C1","J","61"
"","","approach-retreat","210","1799519","0.0-210.0","","","2-2","5507","39","1","Testing","Stims/Figures/118-C-20-2.bmp","vashava","Right","39","3","14","8","C1","J","62"
"","","approach-retreat","211","1805691","0.0-211.0","","","2-2","4645","37","1","Testing","Stims/Figures/19-C-20-4.bmp","za:saha","Left","37","3","15","8","C2","J","63"
"","","approach-retreat","212","1811466","0.0-212.0","","","2-2","4248","37","1","Testing","Stims/Figures/118-J-0-2.bmp","fa:shava","Right","37","3","16","8","C1","J","64"
"","","approach-retreat","213","1817343","0.0-213.0","","","2-2","4351","38","1","Testing","Stims/Figures/100-J-10-3.bmp","zasa:ha","Down","38","3","17","8","C2","J","65"
"","","approach-retreat","214","1823340","0.0-214.0","","","2-2","4467","40","1","Testing","Stims/Figures/27-J-0-1.bmp","fa:fa:sha","Up","40","3","18","8","C1","J","66"
"","","approach-retreat","215","1829842","0.0-215.0","","","2-2","4973","40","1","Testing","Stims/Figures/93-C-30-1.bmp","va:sha:va","Down","40","3","19","8","C1","J","67"
"","","approach-retreat","216","1835834","0.0-216.0","","","2-2","4480","38","1","Testing","Stims/Figures/84-C-20-2.bmp","fasha:sha","Up","38","3","20","8","C1","J","68"
"","","approach-retreat","217","1881294","0.0-217.0","","","2-2","43930","38","0","Testing","Stims/Figures/86-C-30-1.bmp","fa:fa:va","Down","40","3","21","8","C1","J","69"
"","","approach-retreat","218","1891285","0.0-218.0","","","2-2","8479","40","1","Testing","Stims/Figures/74-J-10-4.bmp","sahaza","Up","40","3","22","8","C2","J","70"
"","","approach-retreat","219","1897192","0.0-219.0","","","2-2","4381","38","1","Testing","Stims/Figures/27-C-30-1.bmp","fafa:sha","Up","38","3","23","8","C1","J","71"
"","","approach-retreat","220","1905142","0.0-220.0","","","2-2","6418","37","1","Testing","Stims/Figures/139-C-20-2.bmp","vasha:va","Left","37","3","24","8","C1","J","72"
"","","approach-retreat","221","1937491","0.0-221.0","","","2-2","30825","39","0","Testing","Stims/Figures/128-C-30-3.bmp","zasaza","Left","37","4","1","8","C2","J","73"
"","","approach-retreat","222","1943279","0.0-222.0","","","2-2","4258","37","1","Testing","Stims/Figures/27-J-0-1.bmp","fa:fa:sha","Right","37","4","2","8","C1","J","74"
"","","approach-retreat","223","1952592","0.0-223.0","","","2-2","7781","37","1","Testing","Stims/Figures/74-C-20-4.bmp","sa:ha:ha","Left","37","4","3","8","C2","J","75"
"","","approach-retreat","224","1958787","0.0-224.0","","","2-2","4668","38","0","Testing","Stims/Figures/74-J-10-4.bmp","sahaza","Up","40","4","4","8","C2","J","76"
"","","approach-retreat","225","1964411","0.0-225.0","","","2-2","4093","39","0","Testing","Stims/Figures/19-J-10-4.bmp","za:ha:ha","Right","37","4","5","8","C2","J","77"
"","","approach-retreat","226","1970688","0.0-226.0","","","2-2","4749","40","1","Testing","Stims/Figures/86-C-30-1.bmp","fa:fa:va","Down","40","4","6","8","C1","J","78"
"","","approach-retreat","227","1976632","0.0-227.0","","","2-2","4414","39","1","Testing","Stims/Figures/84-J-0-2.bmp","fa:sha:va","Left","39","4","7","8","C1","J","79"
"","","approach-retreat","228","1983736","0.0-228.0","","","2-2","5578","40","1","Testing","Stims/Figures/128-J-10-3.bmp","sa:sa:ha","Up","40","4","8","8","C2","J","80"
"","","approach-retreat","229","1990232","0.0-229.0","","","2-2","4966","37","1","Testing","Stims/Figures/93-J-0-1.bmp","vafa:va","Right","37","4","9","8","C1","J","81"
"","","approach-retreat","230","1996718","0.0-230.0","","","2-2","4954","38","1","Testing","Stims/Figures/93-C-30-1.bmp","va:sha:va","Up","38","4","10","8","C1","J","82"
"","","approach-retreat","231","2002429","0.0-231.0","","","2-2","4182","38","1","Testing","Stims/Figures/139-J-0-2.bmp","va:fa:va","Down","38","4","11","8","C1","J","83"
"","","approach-retreat","232","2008349","0.0-232.0","","","2-2","4391","39","1","Testing","Stims/Figures/86-J-0-1.bmp","fashasha","Left","39","4","12","8","C1","J","84"
"","","approach-retreat","233","2014230","0.0-233.0","","","2-2","4350","37","1","Testing","Stims/Figures/27-C-30-1.bmp","fafa:sha","Left","37","4","13","8","C1","J","85"
"","","approach-retreat","234","2020530","0.0-234.0","","","2-2","4789","37","1","Testing","Stims/Figures/118-C-20-2.bmp","vashava","Left","37","4","14","8","C1","J","86"
"","","approach-retreat","235","2026339","0.0-235.0","","","2-2","4281","39","1","Testing","Stims/Figures/84-C-20-2.bmp","fasha:sha","Right","39","4","15","8","C1","J","87"
"","","approach-retreat","236","2033386","0.0-236.0","","","2-2","5515","40","1","Testing","Stims/Figures/118-J-0-2.bmp","fa:shava","Up","40","4","16","8","C1","J","88"
"","","approach-retreat","237","2040452","0.0-237.0","","","2-2","5537","38","1","Testing","Stims/Figures/102-C-20-4.bmp","za:sa:za","Up","38","4","17","8","C2","J","89"
"","","approach-retreat","238","2046260","0.0-238.0","","","2-2","4276","39","0","Testing","Stims/Figures/102-J-10-4.bmp","sahaha","Right","37","4","18","8","C2","J","90"
"","","approach-retreat","239","2054447","0.0-239.0","","","2-2","6657","38","1","Testing","Stims/Figures/44-J-10-3.bmp","zasa:za","Down","38","4","19","8","C2","J","91"
"","","approach-retreat","240","2061729","0.0-240.0","","","2-2","5753","37","0","Testing","Stims/Figures/100-C-30-3.bmp","za:haza","Right","39","4","20","8","C2","J","92"
"","","approach-retreat","241","2068118","0.0-241.0","","","2-2","4860","40","1","Testing","Stims/Figures/44-C-30-3.bmp","zahaza","Down","40","4","21","8","C2","J","93"
"","","approach-retreat","242","2077631","0.0-242.0","","","2-2","7986","38","1","Testing","Stims/Figures/19-C-20-4.bmp","za:saha","Up","38","4","22","8","C2","J","94"
"","","approach-retreat","243","2084116","0.0-243.0","","","2-2","4974","38","1","Testing","Stims/Figures/100-J-10-3.bmp","zasa:ha","Down","38","4","23","8","C2","J","95"
"","","approach-retreat","244","2090074","0.0-244.0","","","2-2","4433","40","1","Testing","Stims/Figures/139-C-20-2.bmp","vasha:va","Down","40","4","24","8","C1","J","96"
"32548","","survey-text","245","2122638","0.0-245.0","","{""Q0"":""0056/2018""}","","","","","","","","","","","","","","",""
