"rt","key_press","trial_type","trial_index","time_elapsed","internal_node_id","view_history","responses","Id","Rt","ResKeyCode","ResCorr","TrialType2","Image","Label","Location","CorrectResponse","Block","BlockTrial","Condition","LabelType","Subcondition","trialNum"
"29308","32","text","0","29314","0.0-0.0-0.0","","","","","","","","","","","","","","","","",""
"52899","","instructions","1","82218","0.0-1.0","[{""page_index"":0,""viewing_time"":52899}]","","","","","","","","","","","","","","","",""
"20879","","survey-multi-choice","2","103157","0.0-2.0","","{""Q0"":""Da"",""Q1"":""Da"",""Q2"":""Da"",""Q3"":""Da"",""Q4"":""Da"",""Q5"":""Da""}","","","","","","","","","","","","","","",""
"","","bio","3","110309","0.0-3.0","","{""age"":""19"",""gender"":""f"",""specify"":""""}","","","","","","","","","","","","","","",""
"","","approach-retreat","4","127445","0.0-4.0","","","3-2","15403","40","0","Training","Stims/Figures/118-J-0-2.bmp","nama:la","Up","38","1","1","5","S","C","1"
"","","approach-retreat","5","135955","0.0-5.0","","","3-2","6917","38","1","Training","Stims/Figures/118-C-20-2.bmp","papa:ta","Down","38","1","2","5","P","C","2"
"","","approach-retreat","6","143587","0.0-6.0","","","3-2","6077","40","0","Training","Stims/Figures/102-C-20-4.bmp","taka:ta","Down","38","1","3","5","P","C","3"
"","","approach-retreat","7","149756","0.0-7.0","","","3-2","4615","38","0","Training","Stims/Figures/100-J-10-3.bmp","ma:ma:la","Down","40","1","4","5","S","C","4"
"","","approach-retreat","8","157199","0.0-8.0","","","3-2","5888","37","0","Training","Stims/Figures/100-C-30-3.bmp","pakata","Left","39","1","5","5","P","C","5"
"","","approach-retreat","9","166110","0.0-9.0","","","3-2","7367","40","0","Training","Stims/Figures/44-J-10-3.bmp","ma:la:na","Up","38","1","6","5","S","C","6"
"","","approach-retreat","10","172619","0.0-10.0","","","3-2","4956","37","1","Training","Stims/Figures/27-C-30-1.bmp","pa:ka:ta","Right","37","1","7","5","P","C","7"
"","","approach-retreat","11","179826","0.0-11.0","","","3-2","5640","39","1","Training","Stims/Figures/44-C-30-3.bmp","taka:ka","Left","39","1","8","5","P","C","8"
"","","approach-retreat","12","186493","0.0-12.0","","","3-2","5102","40","1","Training","Stims/Figures/7-C-20-4.bmp","paka:ta","Up","40","1","9","5","P","C","9"
"","","approach-retreat","13","195113","0.0-13.0","","","3-2","7078","37","1","Training","Stims/Figures/57-J-0-1.bmp","na:ma:la","Left","37","1","10","5","S","C","10"
"","","approach-retreat","14","202172","0.0-14.0","","","3-2","5511","39","0","Training","Stims/Figures/139-C-20-2.bmp","takata","Right","37","1","11","5","P","C","11"
"","","approach-retreat","15","211281","0.0-15.0","","","3-2","7555","38","0","Training","Stims/Figures/7-J-10-4.bmp","na:la:na","Down","40","1","12","5","S","C","12"
"","","approach-retreat","16","221508","0.0-16.0","","","3-2","8692","37","1","Training","Stims/Figures/27-J-0-1.bmp","mama:la","Left","37","1","13","5","S","C","13"
"","","approach-retreat","17","229613","0.0-17.0","","","3-2","6542","40","1","Training","Stims/Figures/57-C-30-1.bmp","tapa:ka","Up","40","1","14","5","P","C","14"
"","","approach-retreat","18","239631","0.0-18.0","","","3-2","8471","37","0","Training","Stims/Figures/102-J-10-4.bmp","na:lala","Right","39","1","15","5","S","C","15"
"","","approach-retreat","19","247025","0.0-19.0","","","3-2","5849","39","1","Training","Stims/Figures/139-J-0-2.bmp","na:la:la","Right","39","1","16","5","S","C","16"
"","","approach-retreat","20","254942","0.0-20.0","","","3-2","6364","37","1","Training","Stims/Figures/44-J-10-3.bmp","ma:la:na","Left","37","2","1","5","S","C","17"
"","","approach-retreat","21","263705","0.0-21.0","","","3-2","7208","40","1","Training","Stims/Figures/118-J-0-2.bmp","nama:la","Down","40","2","2","5","S","C","18"
"","","approach-retreat","22","270650","0.0-22.0","","","3-2","5395","38","0","Training","Stims/Figures/139-J-0-2.bmp","na:la:la","Down","40","2","3","5","S","C","19"
"","","approach-retreat","23","277411","0.0-23.0","","","3-2","5210","40","0","Training","Stims/Figures/27-J-0-1.bmp","mama:la","Up","38","2","4","5","S","C","20"
"","","approach-retreat","24","283680","0.0-24.0","","","3-2","4727","37","0","Training","Stims/Figures/7-J-10-4.bmp","na:la:na","Right","39","2","5","5","S","C","21"
"","","approach-retreat","25","289686","0.0-25.0","","","3-2","4447","38","0","Training","Stims/Figures/44-C-30-3.bmp","taka:ka","Up","40","2","6","5","P","C","22"
"","","approach-retreat","26","297991","0.0-26.0","","","3-2","6761","40","0","Training","Stims/Figures/100-C-30-3.bmp","pakata","Down","38","2","7","5","P","C","23"
"","","approach-retreat","27","303864","0.0-27.0","","","3-2","4330","39","1","Training","Stims/Figures/139-C-20-2.bmp","takata","Left","39","2","8","5","P","C","24"
"","","approach-retreat","28","310478","0.0-28.0","","","3-2","5059","40","0","Training","Stims/Figures/57-C-30-1.bmp","tapa:ka","Down","38","2","9","5","P","C","25"
"","","approach-retreat","29","316432","0.0-29.0","","","3-2","4399","38","0","Training","Stims/Figures/27-C-30-1.bmp","pa:ka:ta","Up","40","2","10","5","P","C","26"
"","","approach-retreat","30","330609","0.0-30.0","","","3-2","12615","39","1","Training","Stims/Figures/100-J-10-3.bmp","ma:ma:la","Right","39","2","11","5","S","C","27"
"","","approach-retreat","31","405637","0.0-31.0","","","3-2","73472","39","0","Training","Stims/Figures/7-C-20-4.bmp","paka:ta","Right","37","2","12","5","P","C","28"
"","","approach-retreat","32","411394","0.0-32.0","","","3-2","4214","37","0","Training","Stims/Figures/118-C-20-2.bmp","papa:ta","Left","39","2","13","5","P","C","29"
"","","approach-retreat","33","421435","0.0-33.0","","","3-2","8500","40","1","Training","Stims/Figures/102-C-20-4.bmp","taka:ta","Up","40","2","14","5","P","C","30"
"","","approach-retreat","34","427844","0.0-34.0","","","3-2","4857","37","1","Training","Stims/Figures/102-J-10-4.bmp","na:lala","Left","37","2","15","5","S","C","31"
"","","approach-retreat","35","433547","0.0-35.0","","","3-2","4156","39","1","Training","Stims/Figures/57-J-0-1.bmp","na:ma:la","Right","39","2","16","5","S","C","32"
"","","approach-retreat","36","439989","0.0-36.0","","","3-2","4887","40","1","Training","Stims/Figures/118-C-20-2.bmp","papa:ta","Up","40","3","1","5","P","C","33"
"","","approach-retreat","37","447170","0.0-37.0","","","3-2","5633","38","1","Training","Stims/Figures/100-J-10-3.bmp","ma:ma:la","Up","38","3","2","5","S","C","34"
"","","approach-retreat","38","454123","0.0-38.0","","","3-2","5394","40","1","Training","Stims/Figures/139-J-0-2.bmp","na:la:la","Down","40","3","3","5","S","C","35"
"","","approach-retreat","39","462022","0.0-39.0","","","3-2","6349","37","0","Training","Stims/Figures/102-C-20-4.bmp","taka:ta","Left","39","3","4","5","P","C","36"
"","","approach-retreat","40","469939","0.0-40.0","","","3-2","6364","40","1","Training","Stims/Figures/102-J-10-4.bmp","na:lala","Down","40","3","5","5","S","C","37"
"","","approach-retreat","41","478875","0.0-41.0","","","3-2","7387","39","0","Training","Stims/Figures/7-C-20-4.bmp","paka:ta","Right","37","3","6","5","P","C","38"
"","","approach-retreat","42","484857","0.0-42.0","","","3-2","4432","37","0","Training","Stims/Figures/44-C-30-3.bmp","taka:ka","Left","39","3","7","5","P","C","39"
"","","approach-retreat","43","491825","0.0-43.0","","","3-2","5427","38","1","Training","Stims/Figures/139-C-20-2.bmp","takata","Down","38","3","8","5","P","C","40"
"","","approach-retreat","44","499453","0.0-44.0","","","3-2","6075","40","0","Training","Stims/Figures/27-C-30-1.bmp","pa:ka:ta","Down","38","3","9","5","P","C","41"
"","","approach-retreat","45","505560","0.0-45.0","","","3-2","4552","38","1","Training","Stims/Figures/57-J-0-1.bmp","na:ma:la","Up","38","3","10","5","S","C","42"
"","","approach-retreat","46","511788","0.0-46.0","","","3-2","4681","37","0","Training","Stims/Figures/118-J-0-2.bmp","nama:la","Right","39","3","11","5","S","C","43"
"","","approach-retreat","47","519014","0.0-47.0","","","3-2","5672","37","1","Training","Stims/Figures/57-C-30-1.bmp","tapa:ka","Right","37","3","12","5","P","C","44"
"","","approach-retreat","48","528351","0.0-48.0","","","3-2","7776","39","1","Training","Stims/Figures/100-C-30-3.bmp","pakata","Left","39","3","13","5","P","C","45"
"","","approach-retreat","49","534848","0.0-49.0","","","3-2","4947","37","0","Training","Stims/Figures/7-J-10-4.bmp","na:la:na","Right","39","3","14","5","S","C","46"
"","","approach-retreat","50","540690","0.0-50.0","","","3-2","4307","40","0","Training","Stims/Figures/27-J-0-1.bmp","mama:la","Up","38","3","15","5","S","C","47"
"","","approach-retreat","51","548713","0.0-51.0","","","3-2","6486","39","0","Training","Stims/Figures/44-J-10-3.bmp","ma:la:na","Left","37","3","16","5","S","C","48"
"","","approach-retreat","52","587064","0.0-52.0","","","3-2","36799","39","0","Training","Stims/Figures/57-C-30-1.bmp","tapa:ka","Right","37","4","1","5","P","C","49"
"","","approach-retreat","53","594506","0.0-53.0","","","3-2","5893","40","0","Training","Stims/Figures/27-C-30-1.bmp","pa:ka:ta","Down","38","4","2","5","P","C","50"
"","","approach-retreat","54","605451","0.0-54.0","","","3-2","9395","38","0","Training","Stims/Figures/100-C-30-3.bmp","pakata","Up","40","4","3","5","P","C","51"
"","","approach-retreat","55","611352","0.0-55.0","","","3-2","4354","40","0","Training","Stims/Figures/118-C-20-2.bmp","papa:ta","Down","38","4","4","5","P","C","52"
"","","approach-retreat","56","617868","0.0-56.0","","","3-2","4964","38","0","Training","Stims/Figures/139-C-20-2.bmp","takata","Up","40","4","5","5","P","C","53"
"","","approach-retreat","57","628016","0.0-57.0","","","3-2","8603","37","0","Training","Stims/Figures/27-J-0-1.bmp","mama:la","Right","39","4","6","5","S","C","54"
"","","approach-retreat","58","636759","0.0-58.0","","","3-2","7194","37","0","Training","Stims/Figures/7-J-10-4.bmp","na:la:na","Right","39","4","7","5","S","C","55"
"","","approach-retreat","59","642938","0.0-59.0","","","3-2","4630","40","0","Training","Stims/Figures/7-C-20-4.bmp","paka:ta","Down","38","4","8","5","P","C","56"
"","","approach-retreat","60","649150","0.0-60.0","","","3-2","4673","37","0","Training","Stims/Figures/44-J-10-3.bmp","ma:la:na","Right","39","4","9","5","S","C","57"
"","","approach-retreat","61","654832","0.0-61.0","","","3-2","4133","39","0","Training","Stims/Figures/102-J-10-4.bmp","na:lala","Left","37","4","10","5","S","C","58"
"","","approach-retreat","62","661137","0.0-62.0","","","3-2","4755","38","1","Training","Stims/Figures/118-J-0-2.bmp","nama:la","Up","38","4","11","5","S","C","59"
"","","approach-retreat","63","670784","0.0-63.0","","","3-2","8090","39","1","Training","Stims/Figures/102-C-20-4.bmp","taka:ta","Left","39","4","12","5","P","C","60"
"","","approach-retreat","64","680823","0.0-64.0","","","3-2","8480","37","1","Training","Stims/Figures/139-J-0-2.bmp","na:la:la","Left","37","4","13","5","S","C","61"
"","","approach-retreat","65","687881","0.0-65.0","","","3-2","5506","40","1","Training","Stims/Figures/44-C-30-3.bmp","taka:ka","Up","40","4","14","5","P","C","62"
"","","approach-retreat","66","696107","0.0-66.0","","","3-2","6683","39","0","Training","Stims/Figures/100-J-10-3.bmp","ma:ma:la","Left","37","4","15","5","S","C","63"
"","","approach-retreat","67","702112","0.0-67.0","","","3-2","4457","40","1","Training","Stims/Figures/57-J-0-1.bmp","na:ma:la","Down","40","4","16","5","S","C","64"
"","","approach-retreat","68","709460","0.0-68.0","","","3-2","5796","39","1","Training","Stims/Figures/27-J-0-1.bmp","mama:la","Right","39","5","1","5","S","C","65"
"","","approach-retreat","69","716022","0.0-69.0","","","3-2","5020","40","0","Training","Stims/Figures/7-J-10-4.bmp","na:la:na","Up","38","5","2","5","S","C","66"
"","","approach-retreat","70","722142","0.0-70.0","","","3-2","4587","40","1","Training","Stims/Figures/100-C-30-3.bmp","pakata","Up","40","5","3","5","P","C","67"
"","","approach-retreat","71","730418","0.0-71.0","","","3-2","6740","38","0","Training","Stims/Figures/139-J-0-2.bmp","na:la:la","Down","40","5","4","5","S","C","68"
"","","approach-retreat","72","736844","0.0-72.0","","","3-2","4902","40","1","Training","Stims/Figures/118-J-0-2.bmp","nama:la","Down","40","5","5","5","S","C","69"
"","","approach-retreat","73","743230","0.0-73.0","","","3-2","4848","39","1","Training","Stims/Figures/102-C-20-4.bmp","taka:ta","Left","39","5","6","5","P","C","70"
"","","approach-retreat","74","752134","0.0-74.0","","","3-2","7336","38","0","Training","Stims/Figures/7-C-20-4.bmp","paka:ta","Up","40","5","7","5","P","C","71"
"","","approach-retreat","75","758100","0.0-75.0","","","3-2","4419","39","0","Training","Stims/Figures/100-J-10-3.bmp","ma:ma:la","Left","37","5","8","5","S","C","72"
"","","approach-retreat","76","764040","0.0-76.0","","","3-2","4390","40","1","Training","Stims/Figures/102-J-10-4.bmp","na:lala","Down","40","5","9","5","S","C","73"
"","","approach-retreat","77","771806","0.0-77.0","","","3-2","6210","39","1","Training","Stims/Figures/27-C-30-1.bmp","pa:ka:ta","Left","39","5","10","5","P","C","74"
"","","approach-retreat","78","779015","0.0-78.0","","","3-2","5662","37","1","Training","Stims/Figures/44-C-30-3.bmp","taka:ka","Right","37","5","11","5","P","C","75"
"","","approach-retreat","79","784869","0.0-79.0","","","3-2","4294","39","0","Training","Stims/Figures/57-C-30-1.bmp","tapa:ka","Right","37","5","12","5","P","C","76"
"","","approach-retreat","80","791540","0.0-80.0","","","3-2","5122","40","0","Training","Stims/Figures/44-J-10-3.bmp","ma:la:na","Up","38","5","13","5","S","C","77"
"","","approach-retreat","81","798362","0.0-81.0","","","3-2","5276","37","0","Training","Stims/Figures/57-J-0-1.bmp","na:ma:la","Right","39","5","14","5","S","C","78"
"","","approach-retreat","82","804439","0.0-82.0","","","3-2","4529","40","0","Training","Stims/Figures/118-C-20-2.bmp","papa:ta","Down","38","5","15","5","P","C","79"
"","","approach-retreat","83","811818","0.0-83.0","","","3-2","5832","39","1","Training","Stims/Figures/139-C-20-2.bmp","takata","Left","39","5","16","5","P","C","80"
"","","approach-retreat","84","819535","0.0-84.0","","","3-2","6170","37","1","Training","Stims/Figures/139-J-0-2.bmp","na:la:la","Left","37","6","1","5","S","C","81"
"","","approach-retreat","85","829243","0.0-85.0","","","3-2","8152","40","1","Training","Stims/Figures/57-C-30-1.bmp","tapa:ka","Up","40","6","2","5","P","C","82"
"","","approach-retreat","86","838184","0.0-86.0","","","3-2","7390","37","0","Training","Stims/Figures/57-J-0-1.bmp","na:ma:la","Right","39","6","3","5","S","C","83"
"","","approach-retreat","87","845956","0.0-87.0","","","3-2","6243","40","0","Training","Stims/Figures/44-C-30-3.bmp","taka:ka","Down","38","6","4","5","P","C","84"
"","","approach-retreat","88","852260","0.0-88.0","","","3-2","4769","37","1","Training","Stims/Figures/100-C-30-3.bmp","pakata","Right","37","6","5","5","P","C","85"
"","","approach-retreat","89","860126","0.0-89.0","","","3-2","6315","38","0","Training","Stims/Figures/27-J-0-1.bmp","mama:la","Down","40","6","6","5","S","C","86"
"","","approach-retreat","90","866041","0.0-90.0","","","3-2","4370","40","0","Training","Stims/Figures/27-C-30-1.bmp","pa:ka:ta","Down","38","6","7","5","P","C","87"
"","","approach-retreat","91","875091","0.0-91.0","","","3-2","7514","37","1","Training","Stims/Figures/100-J-10-3.bmp","ma:ma:la","Left","37","6","8","5","S","C","88"
"","","approach-retreat","92","882464","0.0-92.0","","","3-2","5820","39","1","Training","Stims/Figures/118-C-20-2.bmp","papa:ta","Left","39","6","9","5","P","C","89"
"","","approach-retreat","93","908355","0.0-93.0","","","3-2","24326","39","0","Training","Stims/Figures/7-C-20-4.bmp","paka:ta","Right","37","6","10","5","P","C","90"
"","","approach-retreat","94","914623","0.0-94.0","","","3-2","4727","40","1","Training","Stims/Figures/102-C-20-4.bmp","taka:ta","Up","40","6","11","5","P","C","91"
"","","approach-retreat","95","922421","0.0-95.0","","","3-2","6256","40","1","Training","Stims/Figures/139-C-20-2.bmp","takata","Up","40","6","12","5","P","C","92"
"","","approach-retreat","96","928712","0.0-96.0","","","3-2","4736","40","1","Training","Stims/Figures/44-J-10-3.bmp","ma:la:na","Down","40","6","13","5","S","C","93"
"","","approach-retreat","97","934775","0.0-97.0","","","3-2","4516","39","1","Training","Stims/Figures/102-J-10-4.bmp","na:lala","Right","39","6","14","5","S","C","94"
"","","approach-retreat","98","943864","0.0-98.0","","","3-2","7535","38","1","Training","Stims/Figures/118-J-0-2.bmp","nama:la","Up","38","6","15","5","S","C","95"
"","","approach-retreat","99","950218","0.0-99.0","","","3-2","4807","39","0","Training","Stims/Figures/7-J-10-4.bmp","na:la:na","Left","37","6","16","5","S","C","96"
"","","approach-retreat","100","957179","0.0-100.0","","","3-2","5412","37","1","Training","Stims/Figures/7-C-20-4.bmp","paka:ta","Right","37","7","1","5","P","C","97"
"","","approach-retreat","101","965531","0.0-101.0","","","3-2","6798","38","0","Training","Stims/Figures/100-J-10-3.bmp","ma:ma:la","Down","40","7","2","5","S","C","98"
"","","approach-retreat","102","973108","0.0-102.0","","","3-2","6016","39","1","Training","Stims/Figures/102-C-20-4.bmp","taka:ta","Left","39","7","3","5","P","C","99"
"","","approach-retreat","103","979464","0.0-103.0","","","3-2","4805","40","1","Training","Stims/Figures/44-C-30-3.bmp","taka:ka","Up","40","7","4","5","P","C","100"
"","","approach-retreat","104","987696","0.0-104.0","","","3-2","6672","40","1","Training","Stims/Figures/118-J-0-2.bmp","nama:la","Down","40","7","5","5","S","C","101"
"","","approach-retreat","105","995867","0.0-105.0","","","3-2","6627","39","1","Training","Stims/Figures/44-J-10-3.bmp","ma:la:na","Right","39","7","6","5","S","C","102"
"","","approach-retreat","106","1003174","0.0-106.0","","","3-2","5750","37","0","Training","Stims/Figures/57-J-0-1.bmp","na:ma:la","Right","39","7","7","5","S","C","103"
"","","approach-retreat","107","1011923","0.0-107.0","","","3-2","7191","38","1","Training","Stims/Figures/27-J-0-1.bmp","mama:la","Up","38","7","8","5","S","C","104"
"","","approach-retreat","108","1021717","0.0-108.0","","","3-2","8242","40","1","Training","Stims/Figures/57-C-30-1.bmp","tapa:ka","Up","40","7","9","5","P","C","105"
"","","approach-retreat","109","1027675","0.0-109.0","","","3-2","4401","39","1","Training","Stims/Figures/118-C-20-2.bmp","papa:ta","Left","39","7","10","5","P","C","106"
"","","approach-retreat","110","1033847","0.0-110.0","","","3-2","4609","39","0","Training","Stims/Figures/7-J-10-4.bmp","na:la:na","Left","37","7","11","5","S","C","107"
"","","approach-retreat","111","1039982","0.0-111.0","","","3-2","4598","40","0","Training","Stims/Figures/27-C-30-1.bmp","pa:ka:ta","Down","38","7","12","5","P","C","108"
"","","approach-retreat","112","1046494","0.0-112.0","","","3-2","4952","39","1","Training","Stims/Figures/100-C-30-3.bmp","pakata","Left","39","7","13","5","P","C","109"
"","","approach-retreat","113","1053436","0.0-113.0","","","3-2","5386","40","0","Training","Stims/Figures/102-J-10-4.bmp","na:lala","Up","38","7","14","5","S","C","110"
"","","approach-retreat","114","1059586","0.0-114.0","","","3-2","4601","40","0","Training","Stims/Figures/139-C-20-2.bmp","takata","Down","38","7","15","5","P","C","111"
"","","approach-retreat","115","1066675","0.0-115.0","","","3-2","5534","39","1","Training","Stims/Figures/139-J-0-2.bmp","na:la:la","Right","39","7","16","5","S","C","112"
"","","approach-retreat","116","1072892","0.0-116.0","","","3-2","4680","40","0","Training","Stims/Figures/102-J-10-4.bmp","na:lala","Up","38","8","1","5","S","C","113"
"","","approach-retreat","117","1080081","0.0-117.0","","","3-2","5642","39","0","Training","Stims/Figures/44-J-10-3.bmp","ma:la:na","Left","37","8","2","5","S","C","114"
"","","approach-retreat","118","1085949","0.0-118.0","","","3-2","4315","40","0","Training","Stims/Figures/44-C-30-3.bmp","taka:ka","Down","38","8","3","5","P","C","115"
"","","approach-retreat","119","1091720","0.0-119.0","","","3-2","4220","38","0","Training","Stims/Figures/7-C-20-4.bmp","paka:ta","Up","40","8","4","5","P","C","116"
"","","approach-retreat","120","1097370","0.0-120.0","","","3-2","4099","39","1","Training","Stims/Figures/102-C-20-4.bmp","taka:ta","Left","39","8","5","5","P","C","117"
"","","approach-retreat","121","1104436","0.0-121.0","","","3-2","5517","39","1","Training","Stims/Figures/139-J-0-2.bmp","na:la:la","Right","39","8","6","5","S","C","118"
"","","approach-retreat","122","1110645","0.0-122.0","","","3-2","4667","38","0","Training","Stims/Figures/57-C-30-1.bmp","tapa:ka","Up","40","8","7","5","P","C","119"
"","","approach-retreat","123","1116377","0.0-123.0","","","3-2","4177","39","1","Training","Stims/Figures/118-C-20-2.bmp","papa:ta","Left","39","8","8","5","P","C","120"
"","","approach-retreat","124","1122471","0.0-124.0","","","3-2","4549","40","1","Training","Stims/Figures/118-J-0-2.bmp","nama:la","Down","40","8","9","5","S","C","121"
"","","approach-retreat","125","1129405","0.0-125.0","","","3-2","5378","40","1","Training","Stims/Figures/27-J-0-1.bmp","mama:la","Down","40","8","10","5","S","C","122"
"","","approach-retreat","126","1136057","0.0-126.0","","","3-2","5103","40","0","Training","Stims/Figures/100-J-10-3.bmp","ma:ma:la","Up","38","8","11","5","S","C","123"
"","","approach-retreat","127","1143733","0.0-127.0","","","3-2","6132","39","0","Training","Stims/Figures/57-J-0-1.bmp","na:ma:la","Left","37","8","12","5","S","C","124"
"","","approach-retreat","128","1153241","0.0-128.0","","","3-2","7958","39","0","Training","Stims/Figures/27-C-30-1.bmp","pa:ka:ta","Right","37","8","13","5","P","C","125"
"","","approach-retreat","129","1159780","0.0-129.0","","","3-2","5003","37","1","Training","Stims/Figures/139-C-20-2.bmp","takata","Right","37","8","14","5","P","C","126"
"","","approach-retreat","130","1167511","0.0-130.0","","","3-2","6190","40","0","Training","Stims/Figures/100-C-30-3.bmp","pakata","Down","38","8","15","5","P","C","127"
"","","approach-retreat","131","1175138","0.0-131.0","","","3-2","6092","39","1","Training","Stims/Figures/7-J-10-4.bmp","na:la:na","Right","39","8","16","5","S","C","128"
"","","approach-retreat","132","1185127","0.0-132.0","","","3-2","8436","39","1","Training","Stims/Figures/7-C-20-4.bmp","paka:ta","Left","39","9","1","5","P","C","129"
"","","approach-retreat","133","1191982","0.0-133.0","","","3-2","5305","39","0","Training","Stims/Figures/118-C-20-2.bmp","papa:ta","Right","37","9","2","5","P","C","130"
"","","approach-retreat","134","1200133","0.0-134.0","","","3-2","6604","39","1","Training","Stims/Figures/102-J-10-4.bmp","na:lala","Right","39","9","3","5","S","C","131"
"","","approach-retreat","135","1209621","0.0-135.0","","","3-2","7936","39","1","Training","Stims/Figures/27-C-30-1.bmp","pa:ka:ta","Left","39","9","4","5","P","C","132"
"","","approach-retreat","136","1215284","0.0-136.0","","","3-2","4126","40","0","Training","Stims/Figures/100-J-10-3.bmp","ma:ma:la","Up","38","9","5","5","S","C","133"
"","","approach-retreat","137","1221504","0.0-137.0","","","3-2","4667","40","1","Training","Stims/Figures/27-J-0-1.bmp","mama:la","Down","40","9","6","5","S","C","134"
"","","approach-retreat","138","1228216","0.0-138.0","","","3-2","5133","40","1","Training","Stims/Figures/57-C-30-1.bmp","tapa:ka","Up","40","9","7","5","P","C","135"
"","","approach-retreat","139","1239906","0.0-139.0","","","3-2","10135","39","1","Training","Stims/Figures/7-J-10-4.bmp","na:la:na","Right","39","9","8","5","S","C","136"
"","","approach-retreat","140","1246172","0.0-140.0","","","3-2","4701","40","1","Training","Stims/Figures/139-J-0-2.bmp","na:la:la","Down","40","9","9","5","S","C","137"
"","","approach-retreat","141","1253718","0.0-141.0","","","3-2","5985","38","1","Training","Stims/Figures/57-J-0-1.bmp","na:ma:la","Up","38","9","10","5","S","C","138"
"","","approach-retreat","142","1260715","0.0-142.0","","","3-2","5436","40","0","Training","Stims/Figures/44-J-10-3.bmp","ma:la:na","Up","38","9","11","5","S","C","139"
"","","approach-retreat","143","1267829","0.0-143.0","","","3-2","5566","39","0","Training","Stims/Figures/118-J-0-2.bmp","nama:la","Left","37","9","12","5","S","C","140"
"","","approach-retreat","144","1276388","0.0-144.0","","","3-2","7013","37","1","Training","Stims/Figures/102-C-20-4.bmp","taka:ta","Right","37","9","13","5","P","C","141"
"","","approach-retreat","145","1282160","0.0-145.0","","","3-2","4233","40","0","Training","Stims/Figures/139-C-20-2.bmp","takata","Down","38","9","14","5","P","C","142"
"","","approach-retreat","146","1288033","0.0-146.0","","","3-2","4328","39","1","Training","Stims/Figures/44-C-30-3.bmp","taka:ka","Left","39","9","15","5","P","C","143"
"","","approach-retreat","147","1295578","0.0-147.0","","","3-2","5993","38","1","Training","Stims/Figures/100-C-30-3.bmp","pakata","Down","38","9","16","5","P","C","144"
"16946","","instructions","148","1312527","0.0-148.0","[{""page_index"":0,""viewing_time"":16944}]","","","","","","","","","","","","","","","",""
"","","approach-retreat","149","1324525","0.0-149.0","","","3-2","10452","40","1","Testing","Stims/Figures/128-C-30-3.bmp","papa:ka","Up","40","1","1","5","P","C","1"
"","","approach-retreat","150","1332379","0.0-150.0","","","3-2","6301","38","1","Testing","Stims/Figures/7-C-20-4.bmp","paka:ta","Down","38","1","2","5","P","C","2"
"","","approach-retreat","151","1339663","0.0-151.0","","","3-2","5738","40","1","Testing","Stims/Figures/139-J-0-2.bmp","na:la:la","Down","40","1","3","5","S","C","3"
"","","approach-retreat","152","1348709","0.0-152.0","","","3-2","7504","39","0","Testing","Stims/Figures/102-C-20-4.bmp","taka:ta","Right","37","1","4","5","P","C","4"
"","","approach-retreat","153","1357915","0.0-153.0","","","3-2","7663","40","0","Testing","Stims/Figures/139-C-20-2.bmp","takata","Down","38","1","5","5","P","C","5"
"","","approach-retreat","154","1379936","0.0-154.0","","","3-2","20484","40","0","Testing","Stims/Figures/57-C-30-1.bmp","tapa:ka","Down","38","1","6","5","P","C","6"
"","","approach-retreat","155","1387497","0.0-155.0","","","3-2","6020","38","0","Testing","Stims/Figures/71-C-30-1.bmp","papata","Up","40","1","7","5","P","C","7"
"","","approach-retreat","156","1401913","0.0-156.0","","","3-2","12870","38","0","Testing","Stims/Figures/102-J-10-4.bmp","na:lala","Down","40","1","8","5","S","C","8"
"","","approach-retreat","157","1407824","0.0-157.0","","","3-2","4371","40","0","Testing","Stims/Figures/84-J-0-2.bmp","nala:la","Up","38","1","9","5","S","C","9"
"","","approach-retreat","158","1414308","0.0-158.0","","","3-2","4948","40","0","Testing","Stims/Figures/100-J-10-3.bmp","ma:ma:la","Up","38","1","10","5","S","C","10"
"","","approach-retreat","159","1420328","0.0-159.0","","","3-2","4485","39","1","Testing","Stims/Figures/100-C-30-3.bmp","pakata","Left","39","1","11","5","P","C","11"
"","","approach-retreat","160","1426417","0.0-160.0","","","3-2","4548","38","1","Testing","Stims/Figures/27-J-0-1.bmp","mama:la","Up","38","1","12","5","S","C","12"
"","","approach-retreat","161","1432890","0.0-161.0","","","3-2","4946","37","0","Testing","Stims/Figures/19-J-10-4.bmp","mamala","Right","39","1","13","5","S","C","13"
"","","approach-retreat","162","1439103","0.0-162.0","","","3-2","4673","40","1","Testing","Stims/Figures/44-J-10-3.bmp","ma:la:na","Down","40","1","14","5","S","C","14"
"","","approach-retreat","163","1446067","0.0-163.0","","","3-2","5428","37","1","Testing","Stims/Figures/118-J-0-2.bmp","nama:la","Left","37","1","15","5","S","C","15"
"","","approach-retreat","164","1453459","0.0-164.0","","","3-2","5849","39","0","Testing","Stims/Figures/44-C-30-3.bmp","taka:ka","Right","37","1","16","5","P","C","16"
"","","approach-retreat","165","1460221","0.0-165.0","","","3-2","5217","37","1","Testing","Stims/Figures/128-J-10-3.bmp","mama:na","Left","37","1","17","5","S","C","17"
"","","approach-retreat","166","1466094","0.0-166.0","","","3-2","4323","39","0","Testing","Stims/Figures/57-J-0-1.bmp","na:ma:la","Left","37","1","18","5","S","C","18"
"","","approach-retreat","167","1472305","0.0-167.0","","","3-2","4678","39","1","Testing","Stims/Figures/71-J-0-1.bmp","malala","Right","39","1","19","5","S","C","19"
"","","approach-retreat","168","1478564","0.0-168.0","","","3-2","4719","37","0","Testing","Stims/Figures/27-C-30-1.bmp","pa:ka:ta","Left","39","1","20","5","P","C","20"
"","","approach-retreat","169","1484748","0.0-169.0","","","3-2","4639","38","1","Testing","Stims/Figures/7-J-10-4.bmp","na:la:na","Up","38","1","21","5","S","C","21"
"","","approach-retreat","170","1490808","0.0-170.0","","","3-2","4513","39","1","Testing","Stims/Figures/19-C-20-4.bmp","tapata","Left","39","1","22","5","P","C","22"
"","","approach-retreat","171","1497888","0.0-171.0","","","3-2","5547","39","0","Testing","Stims/Figures/84-C-20-2.bmp","pa:pa:ka","Right","37","1","23","5","P","C","23"
"","","approach-retreat","172","1504882","0.0-172.0","","","3-2","5448","37","1","Testing","Stims/Figures/118-C-20-2.bmp","papa:ta","Right","37","1","24","5","P","C","24"
"","","approach-retreat","173","1511085","0.0-173.0","","","3-2","4665","39","1","Testing","Stims/Figures/27-J-0-1.bmp","mama:la","Right","39","2","1","5","S","C","25"
"","","approach-retreat","174","1519197","0.0-174.0","","","3-2","6571","40","0","Testing","Stims/Figures/71-J-0-1.bmp","malala","Up","38","2","2","5","S","C","26"
"","","approach-retreat","175","1525443","0.0-175.0","","","3-2","4720","39","1","Testing","Stims/Figures/100-C-30-3.bmp","pakata","Left","39","2","3","5","P","C","27"
"","","approach-retreat","176","1531192","0.0-176.0","","","3-2","4212","39","0","Testing","Stims/Figures/71-C-30-1.bmp","papata","Right","37","2","4","5","P","C","28"
"","","approach-retreat","177","1537212","0.0-177.0","","","3-2","4481","37","1","Testing","Stims/Figures/84-C-20-2.bmp","pa:pa:ka","Right","37","2","5","5","P","C","29"
"","","approach-retreat","178","1543311","0.0-178.0","","","3-2","4555","39","0","Testing","Stims/Figures/139-J-0-2.bmp","na:la:la","Left","37","2","6","5","S","C","30"
"","","approach-retreat","179","1549361","0.0-179.0","","","3-2","4504","40","0","Testing","Stims/Figures/27-C-30-1.bmp","pa:ka:ta","Down","38","2","7","5","P","C","31"
"","","approach-retreat","180","1555775","0.0-180.0","","","3-2","4877","38","0","Testing","Stims/Figures/7-J-10-4.bmp","na:la:na","Down","40","2","8","5","S","C","32"
"","","approach-retreat","181","1562924","0.0-181.0","","","3-2","5610","40","1","Testing","Stims/Figures/100-J-10-3.bmp","ma:ma:la","Down","40","2","9","5","S","C","33"
"","","approach-retreat","182","1569009","0.0-182.0","","","3-2","4542","38","1","Testing","Stims/Figures/118-C-20-2.bmp","papa:ta","Down","38","2","10","5","P","C","34"
"","","approach-retreat","183","1575182","0.0-183.0","","","3-2","4631","37","1","Testing","Stims/Figures/44-J-10-3.bmp","ma:la:na","Left","37","2","11","5","S","C","35"
"","","approach-retreat","184","1580855","0.0-184.0","","","3-2","4139","39","0","Testing","Stims/Figures/118-J-0-2.bmp","nama:la","Left","37","2","12","5","S","C","36"
"","","approach-retreat","185","1586579","0.0-185.0","","","3-2","4179","38","1","Testing","Stims/Figures/57-J-0-1.bmp","na:ma:la","Up","38","2","13","5","S","C","37"
"","","approach-retreat","186","1592127","0.0-186.0","","","3-2","4014","40","1","Testing","Stims/Figures/57-C-30-1.bmp","tapa:ka","Up","40","2","14","5","P","C","38"
"","","approach-retreat","187","1598608","0.0-187.0","","","3-2","4935","39","1","Testing","Stims/Figures/19-J-10-4.bmp","mamala","Right","39","2","15","5","S","C","39"
"","","approach-retreat","188","1604570","0.0-188.0","","","3-2","4413","40","1","Testing","Stims/Figures/44-C-30-3.bmp","taka:ka","Up","40","2","16","5","P","C","40"
"","","approach-retreat","189","1612958","0.0-189.0","","","3-2","6841","39","0","Testing","Stims/Figures/84-J-0-2.bmp","nala:la","Left","37","2","17","5","S","C","41"
"","","approach-retreat","190","1619224","0.0-190.0","","","3-2","4731","40","0","Testing","Stims/Figures/139-C-20-2.bmp","takata","Down","38","2","18","5","P","C","42"
"","","approach-retreat","191","1625034","0.0-191.0","","","3-2","4267","40","0","Testing","Stims/Figures/128-J-10-3.bmp","mama:na","Up","38","2","19","5","S","C","43"
"","","approach-retreat","192","1635119","0.0-192.0","","","3-2","8552","40","1","Testing","Stims/Figures/102-J-10-4.bmp","na:lala","Down","40","2","20","5","S","C","44"
"","","approach-retreat","193","1644303","0.0-193.0","","","3-2","7651","39","0","Testing","Stims/Figures/128-C-30-3.bmp","papa:ka","Right","37","2","21","5","P","C","45"
"","","approach-retreat","194","1651172","0.0-194.0","","","3-2","5321","39","0","Testing","Stims/Figures/7-C-20-4.bmp","paka:ta","Right","37","2","22","5","P","C","46"
"","","approach-retreat","195","1659512","0.0-195.0","","","3-2","6804","40","1","Testing","Stims/Figures/19-C-20-4.bmp","tapata","Up","40","2","23","5","P","C","47"
"","","approach-retreat","196","1665569","0.0-196.0","","","3-2","4512","39","1","Testing","Stims/Figures/102-C-20-4.bmp","taka:ta","Left","39","2","24","5","P","C","48"
"","","approach-retreat","197","1672598","0.0-197.0","","","3-2","5489","37","0","Testing","Stims/Figures/84-J-0-2.bmp","nala:la","Right","39","3","1","5","S","C","49"
"","","approach-retreat","198","1680788","0.0-198.0","","","3-2","6655","39","0","Testing","Stims/Figures/118-J-0-2.bmp","nama:la","Left","37","3","2","5","S","C","50"
"","","approach-retreat","199","1687398","0.0-199.0","","","3-2","5084","37","0","Testing","Stims/Figures/128-C-30-3.bmp","papa:ka","Left","39","3","3","5","P","C","51"
"","","approach-retreat","200","1693536","0.0-200.0","","","3-2","4599","38","0","Testing","Stims/Figures/44-J-10-3.bmp","ma:la:na","Down","40","3","4","5","S","C","52"
"","","approach-retreat","201","1699700","0.0-201.0","","","3-2","4613","40","0","Testing","Stims/Figures/71-C-30-1.bmp","papata","Down","38","3","5","5","P","C","53"
"","","approach-retreat","202","1706404","0.0-202.0","","","3-2","5164","38","0","Testing","Stims/Figures/100-C-30-3.bmp","pakata","Up","40","3","6","5","P","C","54"
"","","approach-retreat","203","1712607","0.0-203.0","","","3-2","4668","40","0","Testing","Stims/Figures/27-J-0-1.bmp","mama:la","Up","38","3","7","5","S","C","55"
"","","approach-retreat","204","1718766","0.0-204.0","","","3-2","4606","39","0","Testing","Stims/Figures/27-C-30-1.bmp","pa:ka:ta","Right","37","3","8","5","P","C","56"
"","","approach-retreat","205","1725886","0.0-205.0","","","3-2","5581","37","1","Testing","Stims/Figures/7-J-10-4.bmp","na:la:na","Left","37","3","9","5","S","C","57"
"","","approach-retreat","206","1733288","0.0-206.0","","","3-2","5851","39","1","Testing","Stims/Figures/19-C-20-4.bmp","tapata","Left","39","3","10","5","P","C","58"
"","","approach-retreat","207","1744931","0.0-207.0","","","3-2","10105","39","1","Testing","Stims/Figures/139-C-20-2.bmp","takata","Left","39","3","11","5","P","C","59"
"","","approach-retreat","208","1752318","0.0-208.0","","","3-2","5845","40","1","Testing","Stims/Figures/57-C-30-1.bmp","tapa:ka","Up","40","3","12","5","P","C","60"
"","","approach-retreat","209","1759238","0.0-209.0","","","3-2","5379","39","0","Testing","Stims/Figures/102-C-20-4.bmp","taka:ta","Right","37","3","13","5","P","C","61"
"","","approach-retreat","210","1765968","0.0-210.0","","","3-2","5181","40","0","Testing","Stims/Figures/71-J-0-1.bmp","malala","Up","38","3","14","5","S","C","62"
"","","approach-retreat","211","1772375","0.0-211.0","","","3-2","4869","39","0","Testing","Stims/Figures/139-J-0-2.bmp","na:la:la","Left","37","3","15","5","S","C","63"
"","","approach-retreat","212","1778623","0.0-212.0","","","3-2","4707","38","0","Testing","Stims/Figures/19-J-10-4.bmp","mamala","Down","40","3","16","5","S","C","64"
"","","approach-retreat","213","1785829","0.0-213.0","","","3-2","5655","40","1","Testing","Stims/Figures/7-C-20-4.bmp","paka:ta","Up","40","3","17","5","P","C","65"
"","","approach-retreat","214","1792350","0.0-214.0","","","3-2","4974","39","0","Testing","Stims/Figures/118-C-20-2.bmp","papa:ta","Right","37","3","18","5","P","C","66"
"","","approach-retreat","215","1799180","0.0-215.0","","","3-2","5286","40","1","Testing","Stims/Figures/102-J-10-4.bmp","na:lala","Down","40","3","19","5","S","C","67"
"","","approach-retreat","216","1806936","0.0-216.0","","","3-2","6216","38","1","Testing","Stims/Figures/57-J-0-1.bmp","na:ma:la","Up","38","3","20","5","S","C","68"
"","","approach-retreat","217","1813402","0.0-217.0","","","3-2","4922","38","0","Testing","Stims/Figures/100-J-10-3.bmp","ma:ma:la","Down","40","3","21","5","S","C","69"
"","","approach-retreat","218","1820305","0.0-218.0","","","3-2","5359","40","0","Testing","Stims/Figures/44-C-30-3.bmp","taka:ka","Down","38","3","22","5","P","C","70"
"","","approach-retreat","219","1827543","0.0-219.0","","","3-2","5706","37","0","Testing","Stims/Figures/128-J-10-3.bmp","mama:na","Right","39","3","23","5","S","C","71"
"","","approach-retreat","220","1835061","0.0-220.0","","","3-2","5974","39","0","Testing","Stims/Figures/84-C-20-2.bmp","pa:pa:ka","Right","37","3","24","5","P","C","72"
"","","approach-retreat","221","1843076","0.0-221.0","","","3-2","6476","39","0","Testing","Stims/Figures/71-J-0-1.bmp","malala","Left","37","4","1","5","S","C","73"
"","","approach-retreat","222","1850251","0.0-222.0","","","3-2","5644","40","0","Testing","Stims/Figures/7-C-20-4.bmp","paka:ta","Down","38","4","2","5","P","C","74"
"","","approach-retreat","223","1857819","0.0-223.0","","","3-2","6031","40","0","Testing","Stims/Figures/100-J-10-3.bmp","ma:ma:la","Up","38","4","3","5","S","C","75"
"","","approach-retreat","224","1864906","0.0-224.0","","","3-2","5555","40","1","Testing","Stims/Figures/44-J-10-3.bmp","ma:la:na","Down","40","4","4","5","S","C","76"
"","","approach-retreat","225","1871147","0.0-225.0","","","3-2","4690","39","0","Testing","Stims/Figures/102-C-20-4.bmp","taka:ta","Right","37","4","5","5","P","C","77"
"","","approach-retreat","226","1877899","0.0-226.0","","","3-2","5210","39","1","Testing","Stims/Figures/84-J-0-2.bmp","nala:la","Right","39","4","6","5","S","C","78"
"","","approach-retreat","227","1884246","0.0-227.0","","","3-2","4814","37","1","Testing","Stims/Figures/139-C-20-2.bmp","takata","Right","37","4","7","5","P","C","79"
"","","approach-retreat","228","1891142","0.0-228.0","","","3-2","5347","40","0","Testing","Stims/Figures/139-J-0-2.bmp","na:la:la","Up","38","4","8","5","S","C","80"
"","","approach-retreat","229","1900339","0.0-229.0","","","3-2","7665","40","1","Testing","Stims/Figures/19-C-20-4.bmp","tapata","Up","40","4","9","5","P","C","81"
"","","approach-retreat","230","1907373","0.0-230.0","","","3-2","5500","40","0","Testing","Stims/Figures/27-C-30-1.bmp","pa:ka:ta","Down","38","4","10","5","P","C","82"
"","","approach-retreat","231","1913856","0.0-231.0","","","3-2","4954","39","1","Testing","Stims/Figures/57-J-0-1.bmp","na:ma:la","Right","39","4","11","5","S","C","83"
"","","approach-retreat","232","1920026","0.0-232.0","","","3-2","4644","38","1","Testing","Stims/Figures/71-C-30-1.bmp","papata","Down","38","4","12","5","P","C","84"
"","","approach-retreat","233","1926218","0.0-233.0","","","3-2","4648","39","0","Testing","Stims/Figures/44-C-30-3.bmp","taka:ka","Right","37","4","13","5","P","C","85"
"","","approach-retreat","234","1932797","0.0-234.0","","","3-2","5033","38","1","Testing","Stims/Figures/57-C-30-1.bmp","tapa:ka","Down","38","4","14","5","P","C","86"
"","","approach-retreat","235","1939018","0.0-235.0","","","3-2","4674","37","1","Testing","Stims/Figures/128-J-10-3.bmp","mama:na","Left","37","4","15","5","S","C","87"
"","","approach-retreat","236","1947243","0.0-236.0","","","3-2","6696","40","0","Testing","Stims/Figures/102-J-10-4.bmp","na:lala","Up","38","4","16","5","S","C","88"
"","","approach-retreat","237","1954020","0.0-237.0","","","3-2","5233","37","1","Testing","Stims/Figures/19-J-10-4.bmp","mamala","Left","37","4","17","5","S","C","89"
"","","approach-retreat","238","1960675","0.0-238.0","","","3-2","5103","39","0","Testing","Stims/Figures/84-C-20-2.bmp","pa:pa:ka","Right","37","4","18","5","P","C","90"
"","","approach-retreat","239","1966951","0.0-239.0","","","3-2","4752","37","0","Testing","Stims/Figures/118-C-20-2.bmp","papa:ta","Left","39","4","19","5","P","C","91"
"","","approach-retreat","240","1976091","0.0-240.0","","","3-2","7596","38","0","Testing","Stims/Figures/27-J-0-1.bmp","mama:la","Down","40","4","20","5","S","C","92"
"","","approach-retreat","241","1982750","0.0-241.0","","","3-2","5111","40","0","Testing","Stims/Figures/7-J-10-4.bmp","na:la:na","Up","38","4","21","5","S","C","93"
"","","approach-retreat","242","1989169","0.0-242.0","","","3-2","4874","39","1","Testing","Stims/Figures/100-C-30-3.bmp","pakata","Left","39","4","22","5","P","C","94"
"","","approach-retreat","243","1995195","0.0-243.0","","","3-2","4478","38","0","Testing","Stims/Figures/128-C-30-3.bmp","papa:ka","Up","40","4","23","5","P","C","95"
"","","approach-retreat","244","2001343","0.0-244.0","","","3-2","4607","39","0","Testing","Stims/Figures/118-J-0-2.bmp","nama:la","Left","37","4","24","5","S","C","96"
"32274","","survey-text","245","2033629","0.0-245.0","","{""Q0"":""2018/0036""}","","","","","","","","","","","","","","",""
