\"rt\",\"key_press\",\"trial_type\",\"trial_index\",\"time_elapsed\",\"internal_node_id\",\"view_history\",\"responses\",\"Id\",\"Rt\",\"ResKeyCode\",\"ResCorr\",\"TrialType2\",\"Image\",\"Label\",\"Location\",\"CorrectResponse\",\"Block\",\"BlockTrial\",\"Condition\",\"LabelType\",\"Subcondition\",\"trialNum\"
\"94901\",\"32\",\"text\",\"0\",\"94905\",\"0.0-0.0-0.0\",\"\",\"\",\"\",\"\",\"\",\"\",\"\",\"\",\"\",\"\",\"\",\"\",\"\",\"\",\"\",\"\",\"\"
\"274924\",\"\",\"instructions\",\"1\",\"369832\",\"0.0-1.0\",\"[{\"\"page_index\"\":0,\"\"viewing_time\"\":274923}]\",\"\",\"\",\"\",\"\",\"\",\"\",\"\",\"\",\"\",\"\",\"\",\"\",\"\",\"\",\"\",\"\"
\"49650\",\"\",\"survey-multi-choice\",\"2\",\"419529\",\"0.0-2.0\",\"\",\"{\"\"Q0\"\":\"\"Da\"\",\"\"Q1\"\":\"\"Da\"\",\"\"Q2\"\":\"\"Da\"\",\"\"Q3\"\":\"\"Da\"\",\"\"Q4\"\":\"\"Da\"\",\"\"Q5\"\":\"\"Da\"\"}\",\"\",\"\",\"\",\"\",\"\",\"\",\"\",\"\",\"\",\"\",\"\",\"\",\"\",\"\",\"\"
\"\",\"\",\"bio\",\"3\",\"434725\",\"0.0-3.0\",\"\",\"{\"\"age\"\":\"\"20\"\",\"\"gender\"\":\"\"f\"\",\"\"specify\"\":\"\"\"\"}\",\"\",\"\",\"\",\"\",\"\",\"\",\"\",\"\",\"\",\"\",\"\",\"\",\"\",\"\",\"\"
\"\",\"\",\"approach-retreat\",\"4\",\"444573\",\"0.0-4.0\",\"\",\"\",\"1-4\",\"8334\",\"38\",\"1\",\"Training\",\"Stims/Figures/57-C-30-1.bmp\",\"vafasha\",\"Down\",\"38\",\"1\",\"1\",\"3B\",\"C1\",\"C\",\"1\"
\"\",\"\",\"approach-retreat\",\"5\",\"450787\",\"0.0-5.0\",\"\",\"\",\"1-4\",\"4702\",\"38\",\"1\",\"Training\",\"Stims/Figures/27-C-30-1.bmp\",\"vafasha\",\"Down\",\"38\",\"1\",\"2\",\"3B\",\"C1\",\"C\",\"2\"
\"\",\"\",\"approach-retreat\",\"6\",\"461333\",\"0.0-6.0\",\"\",\"\",\"1-4\",\"9034\",\"39\",\"0\",\"Training\",\"Stims/Figures/27-J-0-1.bmp\",\"za:haha\",\"Left\",\"37\",\"1\",\"3\",\"3B\",\"C2\",\"C\",\"3\"
\"\",\"\",\"approach-retreat\",\"7\",\"466996\",\"0.0-7.0\",\"\",\"\",\"1-4\",\"4152\",\"37\",\"0\",\"Training\",\"Stims/Figures/84-J-0-2.bmp\",\"za:haha\",\"Right\",\"39\",\"1\",\"4\",\"3B\",\"C2\",\"C\",\"4\"
\"\",\"\",\"approach-retreat\",\"8\",\"474386\",\"0.0-8.0\",\"\",\"\",\"1-4\",\"5881\",\"38\",\"1\",\"Training\",\"Stims/Figures/7-J-10-4.bmp\",\"za:haha\",\"Up\",\"38\",\"1\",\"5\",\"3B\",\"C2\",\"C\",\"5\"
\"\",\"\",\"approach-retreat\",\"9\",\"482110\",\"0.0-9.0\",\"\",\"\",\"1-4\",\"6213\",\"38\",\"1\",\"Training\",\"Stims/Figures/7-C-20-4.bmp\",\"vafasha\",\"Down\",\"38\",\"1\",\"6\",\"3B\",\"C1\",\"C\",\"6\"
\"\",\"\",\"approach-retreat\",\"10\",\"488704\",\"0.0-10.0\",\"\",\"\",\"1-4\",\"5083\",\"40\",\"1\",\"Training\",\"Stims/Figures/100-C-30-3.bmp\",\"vafasha\",\"Up\",\"40\",\"1\",\"7\",\"3B\",\"C1\",\"C\",\"7\"
\"\",\"\",\"approach-retreat\",\"11\",\"495727\",\"0.0-11.0\",\"\",\"\",\"1-4\",\"5512\",\"37\",\"1\",\"Training\",\"Stims/Figures/57-J-0-1.bmp\",\"za:haha\",\"Left\",\"37\",\"1\",\"8\",\"3B\",\"C2\",\"C\",\"8\"
\"\",\"\",\"approach-retreat\",\"12\",\"502953\",\"0.0-12.0\",\"\",\"\",\"1-4\",\"5713\",\"38\",\"1\",\"Training\",\"Stims/Figures/111-J-10-3.bmp\",\"za:haha\",\"Up\",\"38\",\"1\",\"9\",\"3B\",\"C2\",\"C\",\"9\"
\"\",\"\",\"approach-retreat\",\"13\",\"509816\",\"0.0-13.0\",\"\",\"\",\"1-4\",\"5353\",\"40\",\"1\",\"Training\",\"Stims/Figures/84-C-20-2.bmp\",\"vafasha\",\"Up\",\"40\",\"1\",\"10\",\"3B\",\"C1\",\"C\",\"10\"
\"\",\"\",\"approach-retreat\",\"14\",\"517459\",\"0.0-14.0\",\"\",\"\",\"1-4\",\"6133\",\"37\",\"1\",\"Training\",\"Stims/Figures/111-C-30-3.bmp\",\"vafasha\",\"Right\",\"37\",\"1\",\"11\",\"3B\",\"C1\",\"C\",\"11\"
\"\",\"\",\"approach-retreat\",\"15\",\"525835\",\"0.0-15.0\",\"\",\"\",\"1-4\",\"6867\",\"37\",\"1\",\"Training\",\"Stims/Figures/118-C-20-2.bmp\",\"vafasha\",\"Right\",\"37\",\"1\",\"12\",\"3B\",\"C1\",\"C\",\"12\"
\"\",\"\",\"approach-retreat\",\"16\",\"532953\",\"0.0-16.0\",\"\",\"\",\"1-4\",\"5607\",\"39\",\"0\",\"Training\",\"Stims/Figures/100-J-10-3.bmp\",\"za:haha\",\"Left\",\"37\",\"1\",\"13\",\"3B\",\"C2\",\"C\",\"13\"
\"\",\"\",\"approach-retreat\",\"17\",\"539603\",\"0.0-17.0\",\"\",\"\",\"1-4\",\"5140\",\"40\",\"1\",\"Training\",\"Stims/Figures/87-J-10-4.bmp\",\"za:haha\",\"Down\",\"40\",\"1\",\"14\",\"3B\",\"C2\",\"C\",\"14\"
\"\",\"\",\"approach-retreat\",\"18\",\"546035\",\"0.0-18.0\",\"\",\"\",\"1-4\",\"4922\",\"39\",\"1\",\"Training\",\"Stims/Figures/118-J-0-2.bmp\",\"za:haha\",\"Right\",\"39\",\"1\",\"15\",\"3B\",\"C2\",\"C\",\"15\"
\"\",\"\",\"approach-retreat\",\"19\",\"552099\",\"0.0-19.0\",\"\",\"\",\"1-4\",\"4554\",\"37\",\"0\",\"Training\",\"Stims/Figures/87-C-20-4.bmp\",\"vafasha\",\"Left\",\"39\",\"1\",\"16\",\"3B\",\"C1\",\"C\",\"16\"
\"\",\"\",\"approach-retreat\",\"20\",\"558596\",\"0.0-20.0\",\"\",\"\",\"1-4\",\"4987\",\"38\",\"1\",\"Training\",\"Stims/Figures/84-C-20-2.bmp\",\"vafasha\",\"Down\",\"38\",\"2\",\"1\",\"3B\",\"C1\",\"C\",\"17\"
\"\",\"\",\"approach-retreat\",\"21\",\"565493\",\"0.0-21.0\",\"\",\"\",\"1-4\",\"5386\",\"37\",\"1\",\"Training\",\"Stims/Figures/7-J-10-4.bmp\",\"za:haha\",\"Left\",\"37\",\"2\",\"2\",\"3B\",\"C2\",\"C\",\"18\"
\"\",\"\",\"approach-retreat\",\"22\",\"572705\",\"0.0-22.0\",\"\",\"\",\"1-4\",\"5703\",\"38\",\"1\",\"Training\",\"Stims/Figures/87-J-10-4.bmp\",\"za:haha\",\"Up\",\"38\",\"2\",\"3\",\"3B\",\"C2\",\"C\",\"19\"
\"\",\"\",\"approach-retreat\",\"23\",\"580201\",\"0.0-23.0\",\"\",\"\",\"1-4\",\"5983\",\"40\",\"1\",\"Training\",\"Stims/Figures/111-J-10-3.bmp\",\"za:haha\",\"Down\",\"40\",\"2\",\"4\",\"3B\",\"C2\",\"C\",\"20\"
\"\",\"\",\"approach-retreat\",\"24\",\"587212\",\"0.0-24.0\",\"\",\"\",\"1-4\",\"5502\",\"38\",\"0\",\"Training\",\"Stims/Figures/57-C-30-1.bmp\",\"vafasha\",\"Up\",\"40\",\"2\",\"5\",\"3B\",\"C1\",\"C\",\"21\"
\"\",\"\",\"approach-retreat\",\"25\",\"594996\",\"0.0-25.0\",\"\",\"\",\"1-4\",\"6273\",\"39\",\"1\",\"Training\",\"Stims/Figures/84-J-0-2.bmp\",\"za:haha\",\"Right\",\"39\",\"2\",\"6\",\"3B\",\"C2\",\"C\",\"22\"
\"\",\"\",\"approach-retreat\",\"26\",\"601123\",\"0.0-26.0\",\"\",\"\",\"1-4\",\"4617\",\"37\",\"1\",\"Training\",\"Stims/Figures/57-J-0-1.bmp\",\"za:haha\",\"Left\",\"37\",\"2\",\"7\",\"3B\",\"C2\",\"C\",\"23\"
\"\",\"\",\"approach-retreat\",\"27\",\"607851\",\"0.0-27.0\",\"\",\"\",\"1-4\",\"5218\",\"40\",\"1\",\"Training\",\"Stims/Figures/87-C-20-4.bmp\",\"vafasha\",\"Up\",\"40\",\"2\",\"8\",\"3B\",\"C1\",\"C\",\"24\"
\"\",\"\",\"approach-retreat\",\"28\",\"615227\",\"0.0-28.0\",\"\",\"\",\"1-4\",\"5866\",\"39\",\"1\",\"Training\",\"Stims/Figures/27-C-30-1.bmp\",\"vafasha\",\"Left\",\"39\",\"2\",\"9\",\"3B\",\"C1\",\"C\",\"25\"
\"\",\"\",\"approach-retreat\",\"29\",\"621223\",\"0.0-29.0\",\"\",\"\",\"1-4\",\"4485\",\"37\",\"1\",\"Training\",\"Stims/Figures/111-C-30-3.bmp\",\"vafasha\",\"Right\",\"37\",\"2\",\"10\",\"3B\",\"C1\",\"C\",\"26\"
\"\",\"\",\"approach-retreat\",\"30\",\"627104\",\"0.0-30.0\",\"\",\"\",\"1-4\",\"4372\",\"38\",\"1\",\"Training\",\"Stims/Figures/118-C-20-2.bmp\",\"vafasha\",\"Down\",\"38\",\"2\",\"11\",\"3B\",\"C1\",\"C\",\"27\"
\"\",\"\",\"approach-retreat\",\"31\",\"635029\",\"0.0-31.0\",\"\",\"\",\"1-4\",\"6415\",\"38\",\"1\",\"Training\",\"Stims/Figures/100-J-10-3.bmp\",\"za:haha\",\"Up\",\"38\",\"2\",\"12\",\"3B\",\"C2\",\"C\",\"28\"
\"\",\"\",\"approach-retreat\",\"32\",\"643865\",\"0.0-32.0\",\"\",\"\",\"1-4\",\"7324\",\"39\",\"1\",\"Training\",\"Stims/Figures/7-C-20-4.bmp\",\"vafasha\",\"Left\",\"39\",\"2\",\"13\",\"3B\",\"C1\",\"C\",\"29\"
\"\",\"\",\"approach-retreat\",\"33\",\"650818\",\"0.0-33.0\",\"\",\"\",\"1-4\",\"5442\",\"40\",\"1\",\"Training\",\"Stims/Figures/27-J-0-1.bmp\",\"za:haha\",\"Down\",\"40\",\"2\",\"14\",\"3B\",\"C2\",\"C\",\"30\"
\"\",\"\",\"approach-retreat\",\"34\",\"656687\",\"0.0-34.0\",\"\",\"\",\"1-4\",\"4359\",\"37\",\"0\",\"Training\",\"Stims/Figures/118-J-0-2.bmp\",\"za:haha\",\"Right\",\"39\",\"2\",\"15\",\"3B\",\"C2\",\"C\",\"31\"
\"\",\"\",\"approach-retreat\",\"35\",\"663281\",\"0.0-35.0\",\"\",\"\",\"1-4\",\"5086\",\"37\",\"1\",\"Training\",\"Stims/Figures/100-C-30-3.bmp\",\"vafasha\",\"Right\",\"37\",\"2\",\"16\",\"3B\",\"C1\",\"C\",\"32\"
\"\",\"\",\"approach-retreat\",\"36\",\"671090\",\"0.0-36.0\",\"\",\"\",\"1-4\",\"6297\",\"40\",\"1\",\"Training\",\"Stims/Figures/27-J-0-1.bmp\",\"za:haha\",\"Down\",\"40\",\"3\",\"1\",\"3B\",\"C2\",\"C\",\"33\"
\"\",\"\",\"approach-retreat\",\"37\",\"677507\",\"0.0-37.0\",\"\",\"\",\"1-4\",\"4907\",\"37\",\"1\",\"Training\",\"Stims/Figures/111-C-30-3.bmp\",\"vafasha\",\"Right\",\"37\",\"3\",\"2\",\"3B\",\"C1\",\"C\",\"34\"
\"\",\"\",\"approach-retreat\",\"38\",\"685444\",\"0.0-38.0\",\"\",\"\",\"1-4\",\"6425\",\"40\",\"1\",\"Training\",\"Stims/Figures/87-C-20-4.bmp\",\"vafasha\",\"Up\",\"40\",\"3\",\"3\",\"3B\",\"C1\",\"C\",\"35\"
\"\",\"\",\"approach-retreat\",\"39\",\"694540\",\"0.0-39.0\",\"\",\"\",\"1-4\",\"7583\",\"37\",\"1\",\"Training\",\"Stims/Figures/118-C-20-2.bmp\",\"vafasha\",\"Right\",\"37\",\"3\",\"4\",\"3B\",\"C1\",\"C\",\"36\"
\"\",\"\",\"approach-retreat\",\"40\",\"701235\",\"0.0-40.0\",\"\",\"\",\"1-4\",\"5185\",\"40\",\"1\",\"Training\",\"Stims/Figures/100-J-10-3.bmp\",\"za:haha\",\"Down\",\"40\",\"3\",\"5\",\"3B\",\"C2\",\"C\",\"37\"
\"\",\"\",\"approach-retreat\",\"41\",\"710114\",\"0.0-41.0\",\"\",\"\",\"1-4\",\"7368\",\"39\",\"1\",\"Training\",\"Stims/Figures/57-C-30-1.bmp\",\"vafasha\",\"Left\",\"39\",\"3\",\"6\",\"3B\",\"C1\",\"C\",\"38\"
\"\",\"\",\"approach-retreat\",\"42\",\"716414\",\"0.0-42.0\",\"\",\"\",\"1-4\",\"4791\",\"38\",\"1\",\"Training\",\"Stims/Figures/87-J-10-4.bmp\",\"za:haha\",\"Up\",\"38\",\"3\",\"7\",\"3B\",\"C2\",\"C\",\"39\"
\"\",\"\",\"approach-retreat\",\"43\",\"723707\",\"0.0-43.0\",\"\",\"\",\"1-4\",\"5782\",\"37\",\"1\",\"Training\",\"Stims/Figures/84-C-20-2.bmp\",\"vafasha\",\"Right\",\"37\",\"3\",\"8\",\"3B\",\"C1\",\"C\",\"40\"
\"\",\"\",\"approach-retreat\",\"44\",\"730216\",\"0.0-44.0\",\"\",\"\",\"1-4\",\"5003\",\"38\",\"1\",\"Training\",\"Stims/Figures/57-J-0-1.bmp\",\"za:haha\",\"Up\",\"38\",\"3\",\"9\",\"3B\",\"C2\",\"C\",\"41\"
\"\",\"\",\"approach-retreat\",\"45\",\"736422\",\"0.0-45.0\",\"\",\"\",\"1-4\",\"4694\",\"40\",\"1\",\"Training\",\"Stims/Figures/7-J-10-4.bmp\",\"za:haha\",\"Down\",\"40\",\"3\",\"10\",\"3B\",\"C2\",\"C\",\"42\"
\"\",\"\",\"approach-retreat\",\"46\",\"742778\",\"0.0-46.0\",\"\",\"\",\"1-4\",\"4846\",\"37\",\"1\",\"Training\",\"Stims/Figures/7-C-20-4.bmp\",\"vafasha\",\"Right\",\"37\",\"3\",\"11\",\"3B\",\"C1\",\"C\",\"43\"
\"\",\"\",\"approach-retreat\",\"47\",\"750286\",\"0.0-47.0\",\"\",\"\",\"1-4\",\"5998\",\"37\",\"1\",\"Training\",\"Stims/Figures/118-J-0-2.bmp\",\"za:haha\",\"Left\",\"37\",\"3\",\"12\",\"3B\",\"C2\",\"C\",\"44\"
\"\",\"\",\"approach-retreat\",\"48\",\"756819\",\"0.0-48.0\",\"\",\"\",\"1-4\",\"5024\",\"39\",\"1\",\"Training\",\"Stims/Figures/100-C-30-3.bmp\",\"vafasha\",\"Left\",\"39\",\"3\",\"13\",\"3B\",\"C1\",\"C\",\"45\"
\"\",\"\",\"approach-retreat\",\"49\",\"763620\",\"0.0-49.0\",\"\",\"\",\"1-4\",\"5291\",\"37\",\"1\",\"Training\",\"Stims/Figures/84-J-0-2.bmp\",\"za:haha\",\"Left\",\"37\",\"3\",\"14\",\"3B\",\"C2\",\"C\",\"46\"
\"\",\"\",\"approach-retreat\",\"50\",\"770186\",\"0.0-50.0\",\"\",\"\",\"1-4\",\"5055\",\"38\",\"1\",\"Training\",\"Stims/Figures/111-J-10-3.bmp\",\"za:haha\",\"Up\",\"38\",\"3\",\"15\",\"3B\",\"C2\",\"C\",\"47\"
\"\",\"\",\"approach-retreat\",\"51\",\"776940\",\"0.0-51.0\",\"\",\"\",\"1-4\",\"5243\",\"38\",\"1\",\"Training\",\"Stims/Figures/27-C-30-1.bmp\",\"vafasha\",\"Down\",\"38\",\"3\",\"16\",\"3B\",\"C1\",\"C\",\"48\"
\"\",\"\",\"approach-retreat\",\"52\",\"783283\",\"0.0-52.0\",\"\",\"\",\"1-4\",\"4833\",\"37\",\"1\",\"Training\",\"Stims/Figures/87-J-10-4.bmp\",\"za:haha\",\"Left\",\"37\",\"4\",\"1\",\"3B\",\"C2\",\"C\",\"49\"
\"\",\"\",\"approach-retreat\",\"53\",\"789193\",\"0.0-53.0\",\"\",\"\",\"1-4\",\"4400\",\"37\",\"1\",\"Training\",\"Stims/Figures/118-J-0-2.bmp\",\"za:haha\",\"Left\",\"37\",\"4\",\"2\",\"3B\",\"C2\",\"C\",\"50\"
\"\",\"\",\"approach-retreat\",\"54\",\"796288\",\"0.0-54.0\",\"\",\"\",\"1-4\",\"5584\",\"40\",\"1\",\"Training\",\"Stims/Figures/84-C-20-2.bmp\",\"vafasha\",\"Up\",\"40\",\"4\",\"3\",\"3B\",\"C1\",\"C\",\"51\"
\"\",\"\",\"approach-retreat\",\"55\",\"803874\",\"0.0-55.0\",\"\",\"\",\"1-4\",\"6075\",\"38\",\"1\",\"Training\",\"Stims/Figures/111-J-10-3.bmp\",\"za:haha\",\"Up\",\"38\",\"4\",\"4\",\"3B\",\"C2\",\"C\",\"52\"
\"\",\"\",\"approach-retreat\",\"56\",\"811050\",\"0.0-56.0\",\"\",\"\",\"1-4\",\"5666\",\"37\",\"1\",\"Training\",\"Stims/Figures/7-J-10-4.bmp\",\"za:haha\",\"Left\",\"37\",\"4\",\"5\",\"3B\",\"C2\",\"C\",\"53\"
\"\",\"\",\"approach-retreat\",\"57\",\"817232\",\"0.0-57.0\",\"\",\"\",\"1-4\",\"4674\",\"38\",\"1\",\"Training\",\"Stims/Figures/100-C-30-3.bmp\",\"vafasha\",\"Down\",\"38\",\"4\",\"6\",\"3B\",\"C1\",\"C\",\"54\"
\"\",\"\",\"approach-retreat\",\"58\",\"824022\",\"0.0-58.0\",\"\",\"\",\"1-4\",\"5281\",\"39\",\"1\",\"Training\",\"Stims/Figures/57-J-0-1.bmp\",\"za:haha\",\"Right\",\"39\",\"4\",\"7\",\"3B\",\"C2\",\"C\",\"55\"
\"\",\"\",\"approach-retreat\",\"59\",\"831244\",\"0.0-59.0\",\"\",\"\",\"1-4\",\"5711\",\"37\",\"1\",\"Training\",\"Stims/Figures/118-C-20-2.bmp\",\"vafasha\",\"Right\",\"37\",\"4\",\"8\",\"3B\",\"C1\",\"C\",\"56\"
\"\",\"\",\"approach-retreat\",\"60\",\"837280\",\"0.0-60.0\",\"\",\"\",\"1-4\",\"4526\",\"37\",\"1\",\"Training\",\"Stims/Figures/84-J-0-2.bmp\",\"za:haha\",\"Left\",\"37\",\"4\",\"9\",\"3B\",\"C2\",\"C\",\"57\"
\"\",\"\",\"approach-retreat\",\"61\",\"844095\",\"0.0-61.0\",\"\",\"\",\"1-4\",\"5305\",\"38\",\"1\",\"Training\",\"Stims/Figures/87-C-20-4.bmp\",\"vafasha\",\"Down\",\"38\",\"4\",\"10\",\"3B\",\"C1\",\"C\",\"58\"
\"\",\"\",\"approach-retreat\",\"62\",\"849952\",\"0.0-62.0\",\"\",\"\",\"1-4\",\"4348\",\"38\",\"1\",\"Training\",\"Stims/Figures/27-C-30-1.bmp\",\"vafasha\",\"Down\",\"38\",\"4\",\"11\",\"3B\",\"C1\",\"C\",\"59\"
\"\",\"\",\"approach-retreat\",\"63\",\"856097\",\"0.0-63.0\",\"\",\"\",\"1-4\",\"4633\",\"40\",\"1\",\"Training\",\"Stims/Figures/111-C-30-3.bmp\",\"vafasha\",\"Up\",\"40\",\"4\",\"12\",\"3B\",\"C1\",\"C\",\"60\"
\"\",\"\",\"approach-retreat\",\"64\",\"862192\",\"0.0-64.0\",\"\",\"\",\"1-4\",\"4585\",\"40\",\"1\",\"Training\",\"Stims/Figures/7-C-20-4.bmp\",\"vafasha\",\"Up\",\"40\",\"4\",\"13\",\"3B\",\"C1\",\"C\",\"61\"
\"\",\"\",\"approach-retreat\",\"65\",\"867982\",\"0.0-65.0\",\"\",\"\",\"1-4\",\"4281\",\"37\",\"1\",\"Training\",\"Stims/Figures/57-C-30-1.bmp\",\"vafasha\",\"Right\",\"37\",\"4\",\"14\",\"3B\",\"C1\",\"C\",\"62\"
\"\",\"\",\"approach-retreat\",\"66\",\"874341\",\"0.0-66.0\",\"\",\"\",\"1-4\",\"4848\",\"39\",\"1\",\"Training\",\"Stims/Figures/100-J-10-3.bmp\",\"za:haha\",\"Right\",\"39\",\"4\",\"15\",\"3B\",\"C2\",\"C\",\"63\"
\"\",\"\",\"approach-retreat\",\"67\",\"880492\",\"0.0-67.0\",\"\",\"\",\"1-4\",\"4642\",\"40\",\"1\",\"Training\",\"Stims/Figures/27-J-0-1.bmp\",\"za:haha\",\"Down\",\"40\",\"4\",\"16\",\"3B\",\"C2\",\"C\",\"64\"
\"\",\"\",\"approach-retreat\",\"68\",\"886314\",\"0.0-68.0\",\"\",\"\",\"1-4\",\"4312\",\"40\",\"1\",\"Training\",\"Stims/Figures/57-J-0-1.bmp\",\"za:haha\",\"Down\",\"40\",\"5\",\"1\",\"3B\",\"C2\",\"C\",\"65\"
\"\",\"\",\"approach-retreat\",\"69\",\"892247\",\"0.0-69.0\",\"\",\"\",\"1-4\",\"4423\",\"38\",\"1\",\"Training\",\"Stims/Figures/118-J-0-2.bmp\",\"za:haha\",\"Up\",\"38\",\"5\",\"2\",\"3B\",\"C2\",\"C\",\"66\"
\"\",\"\",\"approach-retreat\",\"70\",\"898238\",\"0.0-70.0\",\"\",\"\",\"1-4\",\"4480\",\"37\",\"0\",\"Training\",\"Stims/Figures/57-C-30-1.bmp\",\"vafasha\",\"Left\",\"39\",\"5\",\"3\",\"3B\",\"C1\",\"C\",\"67\"
\"\",\"\",\"approach-retreat\",\"71\",\"904517\",\"0.0-71.0\",\"\",\"\",\"1-4\",\"4769\",\"38\",\"1\",\"Training\",\"Stims/Figures/7-J-10-4.bmp\",\"za:haha\",\"Up\",\"38\",\"5\",\"4\",\"3B\",\"C2\",\"C\",\"68\"
\"\",\"\",\"approach-retreat\",\"72\",\"910932\",\"0.0-72.0\",\"\",\"\",\"1-4\",\"4904\",\"39\",\"1\",\"Training\",\"Stims/Figures/100-C-30-3.bmp\",\"vafasha\",\"Left\",\"39\",\"5\",\"5\",\"3B\",\"C1\",\"C\",\"69\"
\"\",\"\",\"approach-retreat\",\"73\",\"918581\",\"0.0-73.0\",\"\",\"\",\"1-4\",\"6138\",\"40\",\"1\",\"Training\",\"Stims/Figures/87-J-10-4.bmp\",\"za:haha\",\"Down\",\"40\",\"5\",\"6\",\"3B\",\"C2\",\"C\",\"70\"
\"\",\"\",\"approach-retreat\",\"74\",\"924558\",\"0.0-74.0\",\"\",\"\",\"1-4\",\"4467\",\"37\",\"1\",\"Training\",\"Stims/Figures/27-J-0-1.bmp\",\"za:haha\",\"Left\",\"37\",\"5\",\"7\",\"3B\",\"C2\",\"C\",\"71\"
\"\",\"\",\"approach-retreat\",\"75\",\"930397\",\"0.0-75.0\",\"\",\"\",\"1-4\",\"4328\",\"39\",\"0\",\"Training\",\"Stims/Figures/27-C-30-1.bmp\",\"vafasha\",\"Right\",\"37\",\"5\",\"8\",\"3B\",\"C1\",\"C\",\"72\"
\"\",\"\",\"approach-retreat\",\"76\",\"937644\",\"0.0-76.0\",\"\",\"\",\"1-4\",\"5737\",\"39\",\"1\",\"Training\",\"Stims/Figures/87-C-20-4.bmp\",\"vafasha\",\"Left\",\"39\",\"5\",\"9\",\"3B\",\"C1\",\"C\",\"73\"
\"\",\"\",\"approach-retreat\",\"77\",\"944392\",\"0.0-77.0\",\"\",\"\",\"1-4\",\"5238\",\"39\",\"1\",\"Training\",\"Stims/Figures/111-J-10-3.bmp\",\"za:haha\",\"Right\",\"39\",\"5\",\"10\",\"3B\",\"C2\",\"C\",\"74\"
\"\",\"\",\"approach-retreat\",\"78\",\"950973\",\"0.0-78.0\",\"\",\"\",\"1-4\",\"5070\",\"40\",\"1\",\"Training\",\"Stims/Figures/100-J-10-3.bmp\",\"za:haha\",\"Down\",\"40\",\"5\",\"11\",\"3B\",\"C2\",\"C\",\"75\"
\"\",\"\",\"approach-retreat\",\"79\",\"956921\",\"0.0-79.0\",\"\",\"\",\"1-4\",\"4439\",\"37\",\"1\",\"Training\",\"Stims/Figures/118-C-20-2.bmp\",\"vafasha\",\"Right\",\"37\",\"5\",\"12\",\"3B\",\"C1\",\"C\",\"76\"
\"\",\"\",\"approach-retreat\",\"80\",\"963035\",\"0.0-80.0\",\"\",\"\",\"1-4\",\"4602\",\"40\",\"1\",\"Training\",\"Stims/Figures/7-C-20-4.bmp\",\"vafasha\",\"Up\",\"40\",\"5\",\"13\",\"3B\",\"C1\",\"C\",\"77\"
\"\",\"\",\"approach-retreat\",\"81\",\"969749\",\"0.0-81.0\",\"\",\"\",\"1-4\",\"5204\",\"37\",\"1\",\"Training\",\"Stims/Figures/111-C-30-3.bmp\",\"vafasha\",\"Right\",\"37\",\"5\",\"14\",\"3B\",\"C1\",\"C\",\"78\"
\"\",\"\",\"approach-retreat\",\"82\",\"976124\",\"0.0-82.0\",\"\",\"\",\"1-4\",\"4866\",\"38\",\"1\",\"Training\",\"Stims/Figures/84-C-20-2.bmp\",\"vafasha\",\"Down\",\"38\",\"5\",\"15\",\"3B\",\"C1\",\"C\",\"79\"
\"\",\"\",\"approach-retreat\",\"83\",\"982732\",\"0.0-83.0\",\"\",\"\",\"1-4\",\"5098\",\"38\",\"1\",\"Training\",\"Stims/Figures/84-J-0-2.bmp\",\"za:haha\",\"Up\",\"38\",\"5\",\"16\",\"3B\",\"C2\",\"C\",\"80\"
\"\",\"\",\"approach-retreat\",\"84\",\"988934\",\"0.0-84.0\",\"\",\"\",\"1-4\",\"4692\",\"39\",\"1\",\"Training\",\"Stims/Figures/27-J-0-1.bmp\",\"za:haha\",\"Right\",\"39\",\"6\",\"1\",\"3B\",\"C2\",\"C\",\"81\"
\"\",\"\",\"approach-retreat\",\"85\",\"996052\",\"0.0-85.0\",\"\",\"\",\"1-4\",\"5608\",\"40\",\"1\",\"Training\",\"Stims/Figures/118-C-20-2.bmp\",\"vafasha\",\"Up\",\"40\",\"6\",\"2\",\"3B\",\"C1\",\"C\",\"82\"
\"\",\"\",\"approach-retreat\",\"86\",\"1002335\",\"0.0-86.0\",\"\",\"\",\"1-4\",\"4772\",\"38\",\"1\",\"Training\",\"Stims/Figures/100-J-10-3.bmp\",\"za:haha\",\"Up\",\"38\",\"6\",\"3\",\"3B\",\"C2\",\"C\",\"83\"
\"\",\"\",\"approach-retreat\",\"87\",\"1008660\",\"0.0-87.0\",\"\",\"\",\"1-4\",\"4814\",\"39\",\"1\",\"Training\",\"Stims/Figures/7-C-20-4.bmp\",\"vafasha\",\"Left\",\"39\",\"6\",\"4\",\"3B\",\"C1\",\"C\",\"84\"
\"\",\"\",\"approach-retreat\",\"88\",\"1015153\",\"0.0-88.0\",\"\",\"\",\"1-4\",\"4982\",\"39\",\"1\",\"Training\",\"Stims/Figures/57-C-30-1.bmp\",\"vafasha\",\"Left\",\"39\",\"6\",\"5\",\"3B\",\"C1\",\"C\",\"85\"
\"\",\"\",\"approach-retreat\",\"89\",\"1021617\",\"0.0-89.0\",\"\",\"\",\"1-4\",\"4953\",\"38\",\"1\",\"Training\",\"Stims/Figures/111-C-30-3.bmp\",\"vafasha\",\"Down\",\"38\",\"6\",\"6\",\"3B\",\"C1\",\"C\",\"86\"
\"\",\"\",\"approach-retreat\",\"90\",\"1028252\",\"0.0-90.0\",\"\",\"\",\"1-4\",\"5126\",\"39\",\"1\",\"Training\",\"Stims/Figures/84-C-20-2.bmp\",\"vafasha\",\"Left\",\"39\",\"6\",\"7\",\"3B\",\"C1\",\"C\",\"87\"
\"\",\"\",\"approach-retreat\",\"91\",\"1036111\",\"0.0-91.0\",\"\",\"\",\"1-4\",\"6349\",\"39\",\"1\",\"Training\",\"Stims/Figures/7-J-10-4.bmp\",\"za:haha\",\"Right\",\"39\",\"6\",\"8\",\"3B\",\"C2\",\"C\",\"88\"
\"\",\"\",\"approach-retreat\",\"92\",\"1042065\",\"0.0-92.0\",\"\",\"\",\"1-4\",\"4442\",\"37\",\"1\",\"Training\",\"Stims/Figures/111-J-10-3.bmp\",\"za:haha\",\"Left\",\"37\",\"6\",\"9\",\"3B\",\"C2\",\"C\",\"89\"
\"\",\"\",\"approach-retreat\",\"93\",\"1047968\",\"0.0-93.0\",\"\",\"\",\"1-4\",\"4392\",\"39\",\"1\",\"Training\",\"Stims/Figures/87-J-10-4.bmp\",\"za:haha\",\"Right\",\"39\",\"6\",\"10\",\"3B\",\"C2\",\"C\",\"90\"
\"\",\"\",\"approach-retreat\",\"94\",\"1054003\",\"0.0-94.0\",\"\",\"\",\"1-4\",\"4525\",\"38\",\"1\",\"Training\",\"Stims/Figures/100-C-30-3.bmp\",\"vafasha\",\"Down\",\"38\",\"6\",\"11\",\"3B\",\"C1\",\"C\",\"91\"
\"\",\"\",\"approach-retreat\",\"95\",\"1059995\",\"0.0-95.0\",\"\",\"\",\"1-4\",\"4482\",\"39\",\"1\",\"Training\",\"Stims/Figures/118-J-0-2.bmp\",\"za:haha\",\"Right\",\"39\",\"6\",\"12\",\"3B\",\"C2\",\"C\",\"92\"
\"\",\"\",\"approach-retreat\",\"96\",\"1066079\",\"0.0-96.0\",\"\",\"\",\"1-4\",\"4573\",\"38\",\"1\",\"Training\",\"Stims/Figures/57-J-0-1.bmp\",\"za:haha\",\"Up\",\"38\",\"6\",\"13\",\"3B\",\"C2\",\"C\",\"93\"
\"\",\"\",\"approach-retreat\",\"97\",\"1071829\",\"0.0-97.0\",\"\",\"\",\"1-4\",\"4241\",\"38\",\"1\",\"Training\",\"Stims/Figures/87-C-20-4.bmp\",\"vafasha\",\"Down\",\"38\",\"6\",\"14\",\"3B\",\"C1\",\"C\",\"94\"
\"\",\"\",\"approach-retreat\",\"98\",\"1078053\",\"0.0-98.0\",\"\",\"\",\"1-4\",\"4713\",\"38\",\"0\",\"Training\",\"Stims/Figures/84-J-0-2.bmp\",\"za:haha\",\"Down\",\"40\",\"6\",\"15\",\"3B\",\"C2\",\"C\",\"95\"
\"\",\"\",\"approach-retreat\",\"99\",\"1085293\",\"0.0-99.0\",\"\",\"\",\"1-4\",\"5724\",\"40\",\"1\",\"Training\",\"Stims/Figures/27-C-30-1.bmp\",\"vafasha\",\"Up\",\"40\",\"6\",\"16\",\"3B\",\"C1\",\"C\",\"96\"
\"\",\"\",\"approach-retreat\",\"100\",\"1091114\",\"0.0-100.0\",\"\",\"\",\"1-4\",\"4311\",\"40\",\"1\",\"Training\",\"Stims/Figures/7-C-20-4.bmp\",\"vafasha\",\"Up\",\"40\",\"7\",\"1\",\"3B\",\"C1\",\"C\",\"97\"
\"\",\"\",\"approach-retreat\",\"101\",\"1097013\",\"0.0-101.0\",\"\",\"\",\"1-4\",\"4389\",\"37\",\"1\",\"Training\",\"Stims/Figures/84-C-20-2.bmp\",\"vafasha\",\"Right\",\"37\",\"7\",\"2\",\"3B\",\"C1\",\"C\",\"98\"
\"\",\"\",\"approach-retreat\",\"102\",\"1103056\",\"0.0-102.0\",\"\",\"\",\"1-4\",\"4533\",\"39\",\"1\",\"Training\",\"Stims/Figures/87-C-20-4.bmp\",\"vafasha\",\"Left\",\"39\",\"7\",\"3\",\"3B\",\"C1\",\"C\",\"99\"
\"\",\"\",\"approach-retreat\",\"103\",\"1109590\",\"0.0-103.0\",\"\",\"\",\"1-4\",\"5025\",\"40\",\"1\",\"Training\",\"Stims/Figures/84-J-0-2.bmp\",\"za:haha\",\"Down\",\"40\",\"7\",\"4\",\"3B\",\"C2\",\"C\",\"100\"
\"\",\"\",\"approach-retreat\",\"104\",\"1115857\",\"0.0-104.0\",\"\",\"\",\"1-4\",\"4755\",\"37\",\"1\",\"Training\",\"Stims/Figures/100-C-30-3.bmp\",\"vafasha\",\"Right\",\"37\",\"7\",\"5\",\"3B\",\"C1\",\"C\",\"101\"
\"\",\"\",\"approach-retreat\",\"105\",\"1124197\",\"0.0-105.0\",\"\",\"\",\"1-4\",\"6830\",\"39\",\"1\",\"Training\",\"Stims/Figures/27-C-30-1.bmp\",\"vafasha\",\"Left\",\"39\",\"7\",\"6\",\"3B\",\"C1\",\"C\",\"102\"
\"\",\"\",\"approach-retreat\",\"106\",\"1130845\",\"0.0-106.0\",\"\",\"\",\"1-4\",\"5139\",\"37\",\"1\",\"Training\",\"Stims/Figures/87-J-10-4.bmp\",\"za:haha\",\"Left\",\"37\",\"7\",\"7\",\"3B\",\"C2\",\"C\",\"103\"
\"\",\"\",\"approach-retreat\",\"107\",\"1136803\",\"0.0-107.0\",\"\",\"\",\"1-4\",\"4449\",\"39\",\"1\",\"Training\",\"Stims/Figures/57-C-30-1.bmp\",\"vafasha\",\"Left\",\"39\",\"7\",\"8\",\"3B\",\"C1\",\"C\",\"104\"
\"\",\"\",\"approach-retreat\",\"108\",\"1142621\",\"0.0-108.0\",\"\",\"\",\"1-4\",\"4308\",\"40\",\"1\",\"Training\",\"Stims/Figures/118-C-20-2.bmp\",\"vafasha\",\"Up\",\"40\",\"7\",\"9\",\"3B\",\"C1\",\"C\",\"105\"
\"\",\"\",\"approach-retreat\",\"109\",\"1148194\",\"0.0-109.0\",\"\",\"\",\"1-4\",\"4064\",\"37\",\"1\",\"Training\",\"Stims/Figures/111-C-30-3.bmp\",\"vafasha\",\"Right\",\"37\",\"7\",\"10\",\"3B\",\"C1\",\"C\",\"106\"
\"\",\"\",\"approach-retreat\",\"110\",\"1154415\",\"0.0-110.0\",\"\",\"\",\"1-4\",\"4710\",\"38\",\"1\",\"Training\",\"Stims/Figures/57-J-0-1.bmp\",\"za:haha\",\"Up\",\"38\",\"7\",\"11\",\"3B\",\"C2\",\"C\",\"107\"
\"\",\"\",\"approach-retreat\",\"111\",\"1160160\",\"0.0-111.0\",\"\",\"\",\"1-4\",\"4233\",\"38\",\"1\",\"Training\",\"Stims/Figures/27-J-0-1.bmp\",\"za:haha\",\"Up\",\"38\",\"7\",\"12\",\"3B\",\"C2\",\"C\",\"108\"
\"\",\"\",\"approach-retreat\",\"112\",\"1167537\",\"0.0-112.0\",\"\",\"\",\"1-4\",\"5868\",\"39\",\"1\",\"Training\",\"Stims/Figures/100-J-10-3.bmp\",\"za:haha\",\"Right\",\"39\",\"7\",\"13\",\"3B\",\"C2\",\"C\",\"109\"
\"\",\"\",\"approach-retreat\",\"113\",\"1173824\",\"0.0-113.0\",\"\",\"\",\"1-4\",\"4777\",\"40\",\"1\",\"Training\",\"Stims/Figures/111-J-10-3.bmp\",\"za:haha\",\"Down\",\"40\",\"7\",\"14\",\"3B\",\"C2\",\"C\",\"110\"
\"\",\"\",\"approach-retreat\",\"114\",\"1179809\",\"0.0-114.0\",\"\",\"\",\"1-4\",\"4475\",\"40\",\"1\",\"Training\",\"Stims/Figures/118-J-0-2.bmp\",\"za:haha\",\"Down\",\"40\",\"7\",\"15\",\"3B\",\"C2\",\"C\",\"111\"
\"\",\"\",\"approach-retreat\",\"115\",\"1185955\",\"0.0-115.0\",\"\",\"\",\"1-4\",\"4636\",\"40\",\"1\",\"Training\",\"Stims/Figures/7-J-10-4.bmp\",\"za:haha\",\"Down\",\"40\",\"7\",\"16\",\"3B\",\"C2\",\"C\",\"112\"
\"\",\"\",\"approach-retreat\",\"116\",\"1191759\",\"0.0-116.0\",\"\",\"\",\"1-4\",\"4294\",\"40\",\"1\",\"Training\",\"Stims/Figures/111-J-10-3.bmp\",\"za:haha\",\"Down\",\"40\",\"8\",\"1\",\"3B\",\"C2\",\"C\",\"113\"
\"\",\"\",\"approach-retreat\",\"117\",\"1197790\",\"0.0-117.0\",\"\",\"\",\"1-4\",\"4519\",\"37\",\"1\",\"Training\",\"Stims/Figures/57-J-0-1.bmp\",\"za:haha\",\"Left\",\"37\",\"8\",\"2\",\"3B\",\"C2\",\"C\",\"114\"
\"\",\"\",\"approach-retreat\",\"118\",\"1204684\",\"0.0-118.0\",\"\",\"\",\"1-4\",\"5385\",\"37\",\"1\",\"Training\",\"Stims/Figures/87-C-20-4.bmp\",\"vafasha\",\"Right\",\"37\",\"8\",\"3\",\"3B\",\"C1\",\"C\",\"115\"
\"\",\"\",\"approach-retreat\",\"119\",\"1211029\",\"0.0-119.0\",\"\",\"\",\"1-4\",\"4834\",\"40\",\"1\",\"Training\",\"Stims/Figures/7-J-10-4.bmp\",\"za:haha\",\"Down\",\"40\",\"8\",\"4\",\"3B\",\"C2\",\"C\",\"116\"
\"\",\"\",\"approach-retreat\",\"120\",\"1217320\",\"0.0-120.0\",\"\",\"\",\"1-4\",\"4780\",\"37\",\"1\",\"Training\",\"Stims/Figures/111-C-30-3.bmp\",\"vafasha\",\"Right\",\"37\",\"8\",\"5\",\"3B\",\"C1\",\"C\",\"117\"
\"\",\"\",\"approach-retreat\",\"121\",\"1223727\",\"0.0-121.0\",\"\",\"\",\"1-4\",\"4893\",\"39\",\"1\",\"Training\",\"Stims/Figures/84-C-20-2.bmp\",\"vafasha\",\"Left\",\"39\",\"8\",\"6\",\"3B\",\"C1\",\"C\",\"118\"
\"\",\"\",\"approach-retreat\",\"122\",\"1230377\",\"0.0-122.0\",\"\",\"\",\"1-4\",\"5139\",\"38\",\"1\",\"Training\",\"Stims/Figures/27-J-0-1.bmp\",\"za:haha\",\"Up\",\"38\",\"8\",\"7\",\"3B\",\"C2\",\"C\",\"119\"
\"\",\"\",\"approach-retreat\",\"123\",\"1236221\",\"0.0-123.0\",\"\",\"\",\"1-4\",\"4335\",\"38\",\"1\",\"Training\",\"Stims/Figures/84-J-0-2.bmp\",\"za:haha\",\"Up\",\"38\",\"8\",\"8\",\"3B\",\"C2\",\"C\",\"120\"
\"\",\"\",\"approach-retreat\",\"124\",\"1242752\",\"0.0-124.0\",\"\",\"\",\"1-4\",\"5020\",\"38\",\"1\",\"Training\",\"Stims/Figures/100-C-30-3.bmp\",\"vafasha\",\"Down\",\"38\",\"8\",\"9\",\"3B\",\"C1\",\"C\",\"121\"
\"\",\"\",\"approach-retreat\",\"125\",\"1249567\",\"0.0-125.0\",\"\",\"\",\"1-4\",\"5304\",\"39\",\"1\",\"Training\",\"Stims/Figures/87-J-10-4.bmp\",\"za:haha\",\"Right\",\"39\",\"8\",\"10\",\"3B\",\"C2\",\"C\",\"122\"
\"\",\"\",\"approach-retreat\",\"126\",\"1255519\",\"0.0-126.0\",\"\",\"\",\"1-4\",\"4442\",\"40\",\"1\",\"Training\",\"Stims/Figures/118-J-0-2.bmp\",\"za:haha\",\"Down\",\"40\",\"8\",\"11\",\"3B\",\"C2\",\"C\",\"123\"
\"\",\"\",\"approach-retreat\",\"127\",\"1262155\",\"0.0-127.0\",\"\",\"\",\"1-4\",\"5125\",\"37\",\"1\",\"Training\",\"Stims/Figures/27-C-30-1.bmp\",\"vafasha\",\"Right\",\"37\",\"8\",\"12\",\"3B\",\"C1\",\"C\",\"124\"
\"\",\"\",\"approach-retreat\",\"128\",\"1268102\",\"0.0-128.0\",\"\",\"\",\"1-4\",\"4436\",\"40\",\"1\",\"Training\",\"Stims/Figures/57-C-30-1.bmp\",\"vafasha\",\"Up\",\"40\",\"8\",\"13\",\"3B\",\"C1\",\"C\",\"125\"
\"\",\"\",\"approach-retreat\",\"129\",\"1274888\",\"0.0-129.0\",\"\",\"\",\"1-4\",\"5275\",\"37\",\"1\",\"Training\",\"Stims/Figures/100-J-10-3.bmp\",\"za:haha\",\"Left\",\"37\",\"8\",\"14\",\"3B\",\"C2\",\"C\",\"126\"
\"\",\"\",\"approach-retreat\",\"130\",\"1281166\",\"0.0-130.0\",\"\",\"\",\"1-4\",\"4769\",\"40\",\"1\",\"Training\",\"Stims/Figures/118-C-20-2.bmp\",\"vafasha\",\"Up\",\"40\",\"8\",\"15\",\"3B\",\"C1\",\"C\",\"127\"
\"\",\"\",\"approach-retreat\",\"131\",\"1288504\",\"0.0-131.0\",\"\",\"\",\"1-4\",\"5829\",\"39\",\"1\",\"Training\",\"Stims/Figures/7-C-20-4.bmp\",\"vafasha\",\"Left\",\"39\",\"8\",\"16\",\"3B\",\"C1\",\"C\",\"128\"
\"\",\"\",\"approach-retreat\",\"132\",\"1294529\",\"0.0-132.0\",\"\",\"\",\"1-4\",\"4514\",\"40\",\"1\",\"Training\",\"Stims/Figures/84-J-0-2.bmp\",\"za:haha\",\"Down\",\"40\",\"9\",\"1\",\"3B\",\"C2\",\"C\",\"129\"
\"\",\"\",\"approach-retreat\",\"133\",\"1300636\",\"0.0-133.0\",\"\",\"\",\"1-4\",\"4598\",\"40\",\"1\",\"Training\",\"Stims/Figures/100-C-30-3.bmp\",\"vafasha\",\"Up\",\"40\",\"9\",\"2\",\"3B\",\"C1\",\"C\",\"130\"
\"\",\"\",\"approach-retreat\",\"134\",\"1307100\",\"0.0-134.0\",\"\",\"\",\"1-4\",\"4955\",\"37\",\"1\",\"Training\",\"Stims/Figures/57-C-30-1.bmp\",\"vafasha\",\"Right\",\"37\",\"9\",\"3\",\"3B\",\"C1\",\"C\",\"131\"
\"\",\"\",\"approach-retreat\",\"135\",\"1313434\",\"0.0-135.0\",\"\",\"\",\"1-4\",\"4824\",\"39\",\"1\",\"Training\",\"Stims/Figures/7-J-10-4.bmp\",\"za:haha\",\"Right\",\"39\",\"9\",\"4\",\"3B\",\"C2\",\"C\",\"132\"
\"\",\"\",\"approach-retreat\",\"136\",\"1319792\",\"0.0-136.0\",\"\",\"\",\"1-4\",\"4848\",\"40\",\"1\",\"Training\",\"Stims/Figures/7-C-20-4.bmp\",\"vafasha\",\"Up\",\"40\",\"9\",\"5\",\"3B\",\"C1\",\"C\",\"133\"
\"\",\"\",\"approach-retreat\",\"137\",\"1328028\",\"0.0-137.0\",\"\",\"\",\"1-4\",\"6726\",\"37\",\"1\",\"Training\",\"Stims/Figures/100-J-10-3.bmp\",\"za:haha\",\"Left\",\"37\",\"9\",\"6\",\"3B\",\"C2\",\"C\",\"134\"
\"\",\"\",\"approach-retreat\",\"138\",\"1334254\",\"0.0-138.0\",\"\",\"\",\"1-4\",\"4716\",\"37\",\"1\",\"Training\",\"Stims/Figures/118-J-0-2.bmp\",\"za:haha\",\"Left\",\"37\",\"9\",\"7\",\"3B\",\"C2\",\"C\",\"135\"
\"\",\"\",\"approach-retreat\",\"139\",\"1340591\",\"0.0-139.0\",\"\",\"\",\"1-4\",\"4825\",\"39\",\"1\",\"Training\",\"Stims/Figures/118-C-20-2.bmp\",\"vafasha\",\"Left\",\"39\",\"9\",\"8\",\"3B\",\"C1\",\"C\",\"136\"
\"\",\"\",\"approach-retreat\",\"140\",\"1347132\",\"0.0-140.0\",\"\",\"\",\"1-4\",\"5029\",\"38\",\"1\",\"Training\",\"Stims/Figures/87-C-20-4.bmp\",\"vafasha\",\"Down\",\"38\",\"9\",\"9\",\"3B\",\"C1\",\"C\",\"137\"
\"\",\"\",\"approach-retreat\",\"141\",\"1353592\",\"0.0-141.0\",\"\",\"\",\"1-4\",\"4952\",\"37\",\"1\",\"Training\",\"Stims/Figures/87-J-10-4.bmp\",\"za:haha\",\"Left\",\"37\",\"9\",\"10\",\"3B\",\"C2\",\"C\",\"138\"
\"\",\"\",\"approach-retreat\",\"142\",\"1361362\",\"0.0-142.0\",\"\",\"\",\"1-4\",\"6260\",\"40\",\"1\",\"Training\",\"Stims/Figures/27-J-0-1.bmp\",\"za:haha\",\"Down\",\"40\",\"9\",\"11\",\"3B\",\"C2\",\"C\",\"139\"
\"\",\"\",\"approach-retreat\",\"143\",\"1370606\",\"0.0-143.0\",\"\",\"\",\"1-4\",\"7736\",\"37\",\"1\",\"Training\",\"Stims/Figures/84-C-20-2.bmp\",\"vafasha\",\"Right\",\"37\",\"9\",\"12\",\"3B\",\"C1\",\"C\",\"140\"
\"\",\"\",\"approach-retreat\",\"144\",\"1377137\",\"0.0-144.0\",\"\",\"\",\"1-4\",\"5020\",\"39\",\"1\",\"Training\",\"Stims/Figures/57-J-0-1.bmp\",\"za:haha\",\"Right\",\"39\",\"9\",\"13\",\"3B\",\"C2\",\"C\",\"141\"
\"\",\"\",\"approach-retreat\",\"145\",\"1383782\",\"0.0-145.0\",\"\",\"\",\"1-4\",\"5135\",\"40\",\"1\",\"Training\",\"Stims/Figures/27-C-30-1.bmp\",\"vafasha\",\"Up\",\"40\",\"9\",\"14\",\"3B\",\"C1\",\"C\",\"142\"
\"\",\"\",\"approach-retreat\",\"146\",\"1389562\",\"0.0-146.0\",\"\",\"\",\"1-4\",\"4271\",\"40\",\"1\",\"Training\",\"Stims/Figures/111-C-30-3.bmp\",\"vafasha\",\"Up\",\"40\",\"9\",\"15\",\"3B\",\"C1\",\"C\",\"143\"
\"\",\"\",\"approach-retreat\",\"147\",\"1396227\",\"0.0-147.0\",\"\",\"\",\"1-4\",\"5155\",\"40\",\"1\",\"Training\",\"Stims/Figures/111-J-10-3.bmp\",\"za:haha\",\"Down\",\"40\",\"9\",\"16\",\"3B\",\"C2\",\"C\",\"144\"
\"56036\",\"\",\"instructions\",\"148\",\"1452263\",\"0.0-148.0\",\"[{\"\"page_index\"\":0,\"\"viewing_time\"\":56035}]\",\"\",\"\",\"\",\"\",\"\",\"\",\"\",\"\",\"\",\"\",\"\",\"\",\"\",\"\",\"\",\"\"
\"\",\"\",\"approach-retreat\",\"149\",\"1459667\",\"0.0-149.0\",\"\",\"\",\"1-4\",\"5896\",\"40\",\"1\",\"Testing\",\"Stims/Figures/57-C-30-1.bmp\",\"vafasha\",\"Up\",\"40\",\"1\",\"1\",\"3B\",\"C1\",\"C\",\"1\"
\"\",\"\",\"approach-retreat\",\"150\",\"1465949\",\"0.0-150.0\",\"\",\"\",\"1-4\",\"4774\",\"40\",\"1\",\"Testing\",\"Stims/Figures/71-J-0-1.bmp\",\"za:haha\",\"Down\",\"40\",\"1\",\"2\",\"3B\",\"C2\",\"C\",\"2\"
\"\",\"\",\"approach-retreat\",\"151\",\"1472718\",\"0.0-151.0\",\"\",\"\",\"1-4\",\"5261\",\"38\",\"1\",\"Testing\",\"Stims/Figures/87-J-10-4.bmp\",\"za:haha\",\"Up\",\"38\",\"1\",\"3\",\"3B\",\"C2\",\"C\",\"3\"
\"\",\"\",\"approach-retreat\",\"152\",\"1478616\",\"0.0-152.0\",\"\",\"\",\"1-4\",\"4389\",\"40\",\"1\",\"Testing\",\"Stims/Figures/27-J-0-1.bmp\",\"za:haha\",\"Down\",\"40\",\"1\",\"4\",\"3B\",\"C2\",\"C\",\"4\"
\"\",\"\",\"approach-retreat\",\"153\",\"1484703\",\"0.0-153.0\",\"\",\"\",\"1-4\",\"4577\",\"38\",\"1\",\"Testing\",\"Stims/Figures/84-J-0-2.bmp\",\"za:haha\",\"Up\",\"38\",\"1\",\"5\",\"3B\",\"C2\",\"C\",\"5\"
\"\",\"\",\"approach-retreat\",\"154\",\"1493114\",\"0.0-154.0\",\"\",\"\",\"1-4\",\"6906\",\"39\",\"1\",\"Testing\",\"Stims/Figures/7-C-20-4.bmp\",\"vafasha\",\"Left\",\"39\",\"1\",\"6\",\"3B\",\"C1\",\"C\",\"6\"
\"\",\"\",\"approach-retreat\",\"155\",\"1507041\",\"0.0-155.0\",\"\",\"\",\"1-4\",\"12417\",\"37\",\"1\",\"Testing\",\"Stims/Figures/100-J-10-3.bmp\",\"za:haha\",\"Left\",\"37\",\"1\",\"7\",\"3B\",\"C2\",\"C\",\"7\"
\"\",\"\",\"approach-retreat\",\"156\",\"1513268\",\"0.0-156.0\",\"\",\"\",\"1-4\",\"4718\",\"39\",\"1\",\"Testing\",\"Stims/Figures/111-J-10-3.bmp\",\"za:haha\",\"Right\",\"39\",\"1\",\"8\",\"3B\",\"C2\",\"C\",\"8\"
\"\",\"\",\"approach-retreat\",\"157\",\"1519656\",\"0.0-157.0\",\"\",\"\",\"1-4\",\"4879\",\"37\",\"1\",\"Testing\",\"Stims/Figures/71-C-30-1.bmp\",\"vafasha\",\"Right\",\"37\",\"1\",\"9\",\"3B\",\"C1\",\"C\",\"9\"
\"\",\"\",\"approach-retreat\",\"158\",\"1525703\",\"0.0-158.0\",\"\",\"\",\"1-4\",\"4538\",\"37\",\"1\",\"Testing\",\"Stims/Figures/7-J-10-4.bmp\",\"za:haha\",\"Left\",\"37\",\"1\",\"10\",\"3B\",\"C2\",\"C\",\"10\"
\"\",\"\",\"approach-retreat\",\"159\",\"1532556\",\"0.0-159.0\",\"\",\"\",\"1-4\",\"5344\",\"39\",\"1\",\"Testing\",\"Stims/Figures/139-C-20-2.bmp\",\"vafasha\",\"Left\",\"39\",\"1\",\"11\",\"3B\",\"C1\",\"C\",\"11\"
\"\",\"\",\"approach-retreat\",\"160\",\"1540802\",\"0.0-160.0\",\"\",\"\",\"1-4\",\"6737\",\"38\",\"1\",\"Testing\",\"Stims/Figures/102-J-10-4.bmp\",\"za:haha\",\"Up\",\"38\",\"1\",\"12\",\"3B\",\"C2\",\"C\",\"12\"
\"\",\"\",\"approach-retreat\",\"161\",\"1547530\",\"0.0-161.0\",\"\",\"\",\"1-4\",\"5219\",\"39\",\"1\",\"Testing\",\"Stims/Figures/102-C-20-4.bmp\",\"vafasha\",\"Left\",\"39\",\"1\",\"13\",\"3B\",\"C1\",\"C\",\"13\"
\"\",\"\",\"approach-retreat\",\"162\",\"1554327\",\"0.0-162.0\",\"\",\"\",\"1-4\",\"5288\",\"38\",\"1\",\"Testing\",\"Stims/Figures/84-C-20-2.bmp\",\"vafasha\",\"Down\",\"38\",\"1\",\"14\",\"3B\",\"C1\",\"C\",\"14\"
\"\",\"\",\"approach-retreat\",\"163\",\"1560556\",\"0.0-163.0\",\"\",\"\",\"1-4\",\"4722\",\"40\",\"1\",\"Testing\",\"Stims/Figures/139-J-0-2.bmp\",\"za:haha\",\"Down\",\"40\",\"1\",\"15\",\"3B\",\"C2\",\"C\",\"15\"
\"\",\"\",\"approach-retreat\",\"164\",\"1566989\",\"0.0-164.0\",\"\",\"\",\"1-4\",\"4924\",\"39\",\"1\",\"Testing\",\"Stims/Figures/44-C-30-3.bmp\",\"vafasha\",\"Left\",\"39\",\"1\",\"16\",\"3B\",\"C1\",\"C\",\"16\"
\"\",\"\",\"approach-retreat\",\"165\",\"1573015\",\"0.0-165.0\",\"\",\"\",\"1-4\",\"4517\",\"40\",\"1\",\"Testing\",\"Stims/Figures/111-C-30-3.bmp\",\"vafasha\",\"Up\",\"40\",\"1\",\"17\",\"3B\",\"C1\",\"C\",\"17\"
\"\",\"\",\"approach-retreat\",\"166\",\"1579442\",\"0.0-166.0\",\"\",\"\",\"1-4\",\"4919\",\"40\",\"1\",\"Testing\",\"Stims/Figures/100-C-30-3.bmp\",\"vafasha\",\"Up\",\"40\",\"1\",\"18\",\"3B\",\"C1\",\"C\",\"18\"
\"\",\"\",\"approach-retreat\",\"167\",\"1585356\",\"0.0-167.0\",\"\",\"\",\"1-4\",\"4400\",\"39\",\"1\",\"Testing\",\"Stims/Figures/44-J-10-3.bmp\",\"za:haha\",\"Right\",\"39\",\"1\",\"19\",\"3B\",\"C2\",\"C\",\"19\"
\"\",\"\",\"approach-retreat\",\"168\",\"1591339\",\"0.0-168.0\",\"\",\"\",\"1-4\",\"4475\",\"39\",\"1\",\"Testing\",\"Stims/Figures/118-J-0-2.bmp\",\"za:haha\",\"Right\",\"39\",\"1\",\"20\",\"3B\",\"C2\",\"C\",\"20\"
\"\",\"\",\"approach-retreat\",\"169\",\"1597450\",\"0.0-169.0\",\"\",\"\",\"1-4\",\"4601\",\"37\",\"1\",\"Testing\",\"Stims/Figures/87-C-20-4.bmp\",\"vafasha\",\"Right\",\"37\",\"1\",\"21\",\"3B\",\"C1\",\"C\",\"21\"
\"\",\"\",\"approach-retreat\",\"170\",\"1603245\",\"0.0-170.0\",\"\",\"\",\"1-4\",\"4287\",\"37\",\"1\",\"Testing\",\"Stims/Figures/118-C-20-2.bmp\",\"vafasha\",\"Right\",\"37\",\"1\",\"22\",\"3B\",\"C1\",\"C\",\"22\"
\"\",\"\",\"approach-retreat\",\"171\",\"1609205\",\"0.0-171.0\",\"\",\"\",\"1-4\",\"4453\",\"40\",\"1\",\"Testing\",\"Stims/Figures/57-J-0-1.bmp\",\"za:haha\",\"Down\",\"40\",\"1\",\"23\",\"3B\",\"C2\",\"C\",\"23\"
\"\",\"\",\"approach-retreat\",\"172\",\"1617404\",\"0.0-172.0\",\"\",\"\",\"1-4\",\"6691\",\"38\",\"1\",\"Testing\",\"Stims/Figures/27-C-30-1.bmp\",\"vafasha\",\"Down\",\"38\",\"1\",\"24\",\"3B\",\"C1\",\"C\",\"24\"
\"\",\"\",\"approach-retreat\",\"173\",\"1624144\",\"0.0-173.0\",\"\",\"\",\"1-4\",\"5231\",\"39\",\"1\",\"Testing\",\"Stims/Figures/139-J-0-2.bmp\",\"za:haha\",\"Right\",\"39\",\"2\",\"1\",\"3B\",\"C2\",\"C\",\"25\"
\"\",\"\",\"approach-retreat\",\"174\",\"1632345\",\"0.0-174.0\",\"\",\"\",\"1-4\",\"6693\",\"37\",\"1\",\"Testing\",\"Stims/Figures/27-C-30-1.bmp\",\"vafasha\",\"Right\",\"37\",\"2\",\"2\",\"3B\",\"C1\",\"C\",\"26\"
\"\",\"\",\"approach-retreat\",\"175\",\"1638712\",\"0.0-175.0\",\"\",\"\",\"1-4\",\"4859\",\"37\",\"1\",\"Testing\",\"Stims/Figures/44-J-10-3.bmp\",\"za:haha\",\"Left\",\"37\",\"2\",\"3\",\"3B\",\"C2\",\"C\",\"27\"
\"\",\"\",\"approach-retreat\",\"176\",\"1644604\",\"0.0-176.0\",\"\",\"\",\"1-4\",\"4383\",\"38\",\"1\",\"Testing\",\"Stims/Figures/100-C-30-3.bmp\",\"vafasha\",\"Down\",\"38\",\"2\",\"4\",\"3B\",\"C1\",\"C\",\"28\"
\"\",\"\",\"approach-retreat\",\"177\",\"1651024\",\"0.0-177.0\",\"\",\"\",\"1-4\",\"4911\",\"40\",\"1\",\"Testing\",\"Stims/Figures/57-J-0-1.bmp\",\"za:haha\",\"Down\",\"40\",\"2\",\"5\",\"3B\",\"C2\",\"C\",\"29\"
\"\",\"\",\"approach-retreat\",\"178\",\"1657920\",\"0.0-178.0\",\"\",\"\",\"1-4\",\"5387\",\"39\",\"1\",\"Testing\",\"Stims/Figures/87-C-20-4.bmp\",\"vafasha\",\"Left\",\"39\",\"2\",\"6\",\"3B\",\"C1\",\"C\",\"30\"
\"\",\"\",\"approach-retreat\",\"179\",\"1665573\",\"0.0-179.0\",\"\",\"\",\"1-4\",\"6144\",\"38\",\"1\",\"Testing\",\"Stims/Figures/87-J-10-4.bmp\",\"za:haha\",\"Up\",\"38\",\"2\",\"7\",\"3B\",\"C2\",\"C\",\"31\"
\"\",\"\",\"approach-retreat\",\"180\",\"1679002\",\"0.0-180.0\",\"\",\"\",\"1-4\",\"11921\",\"40\",\"1\",\"Testing\",\"Stims/Figures/7-C-20-4.bmp\",\"vafasha\",\"Up\",\"40\",\"2\",\"8\",\"3B\",\"C1\",\"C\",\"32\"
\"\",\"\",\"approach-retreat\",\"181\",\"1684982\",\"0.0-181.0\",\"\",\"\",\"1-4\",\"4471\",\"37\",\"1\",\"Testing\",\"Stims/Figures/139-C-20-2.bmp\",\"vafasha\",\"Right\",\"37\",\"2\",\"9\",\"3B\",\"C1\",\"C\",\"33\"
\"\",\"\",\"approach-retreat\",\"182\",\"1698070\",\"0.0-182.0\",\"\",\"\",\"1-4\",\"11580\",\"38\",\"1\",\"Testing\",\"Stims/Figures/7-J-10-4.bmp\",\"za:haha\",\"Up\",\"38\",\"2\",\"10\",\"3B\",\"C2\",\"C\",\"34\"
\"\",\"\",\"approach-retreat\",\"183\",\"1704247\",\"0.0-183.0\",\"\",\"\",\"1-4\",\"4670\",\"39\",\"1\",\"Testing\",\"Stims/Figures/118-C-20-2.bmp\",\"vafasha\",\"Left\",\"39\",\"2\",\"11\",\"3B\",\"C1\",\"C\",\"35\"
\"\",\"\",\"approach-retreat\",\"184\",\"1710691\",\"0.0-184.0\",\"\",\"\",\"1-4\",\"4937\",\"39\",\"1\",\"Testing\",\"Stims/Figures/100-J-10-3.bmp\",\"za:haha\",\"Right\",\"39\",\"2\",\"12\",\"3B\",\"C2\",\"C\",\"36\"
\"\",\"\",\"approach-retreat\",\"185\",\"1717195\",\"0.0-185.0\",\"\",\"\",\"1-4\",\"4996\",\"39\",\"1\",\"Testing\",\"Stims/Figures/118-J-0-2.bmp\",\"za:haha\",\"Right\",\"39\",\"2\",\"13\",\"3B\",\"C2\",\"C\",\"37\"
\"\",\"\",\"approach-retreat\",\"186\",\"1724338\",\"0.0-186.0\",\"\",\"\",\"1-4\",\"5636\",\"38\",\"1\",\"Testing\",\"Stims/Figures/44-C-30-3.bmp\",\"vafasha\",\"Down\",\"38\",\"2\",\"14\",\"3B\",\"C1\",\"C\",\"38\"
\"\",\"\",\"approach-retreat\",\"187\",\"1732275\",\"0.0-187.0\",\"\",\"\",\"1-4\",\"6423\",\"37\",\"1\",\"Testing\",\"Stims/Figures/27-J-0-1.bmp\",\"za:haha\",\"Left\",\"37\",\"2\",\"15\",\"3B\",\"C2\",\"C\",\"39\"
\"\",\"\",\"approach-retreat\",\"188\",\"1740890\",\"0.0-188.0\",\"\",\"\",\"1-4\",\"7106\",\"40\",\"1\",\"Testing\",\"Stims/Figures/84-J-0-2.bmp\",\"za:haha\",\"Down\",\"40\",\"2\",\"16\",\"3B\",\"C2\",\"C\",\"40\"
\"\",\"\",\"approach-retreat\",\"189\",\"1747989\",\"0.0-189.0\",\"\",\"\",\"1-4\",\"5592\",\"38\",\"1\",\"Testing\",\"Stims/Figures/111-J-10-3.bmp\",\"za:haha\",\"Up\",\"38\",\"2\",\"17\",\"3B\",\"C2\",\"C\",\"41\"
\"\",\"\",\"approach-retreat\",\"190\",\"1754176\",\"0.0-190.0\",\"\",\"\",\"1-4\",\"4679\",\"40\",\"1\",\"Testing\",\"Stims/Figures/84-C-20-2.bmp\",\"vafasha\",\"Up\",\"40\",\"2\",\"18\",\"3B\",\"C1\",\"C\",\"42\"
\"\",\"\",\"approach-retreat\",\"191\",\"1761182\",\"0.0-191.0\",\"\",\"\",\"1-4\",\"5500\",\"38\",\"1\",\"Testing\",\"Stims/Figures/102-C-20-4.bmp\",\"vafasha\",\"Down\",\"38\",\"2\",\"19\",\"3B\",\"C1\",\"C\",\"43\"
\"\",\"\",\"approach-retreat\",\"192\",\"1767542\",\"0.0-192.0\",\"\",\"\",\"1-4\",\"4851\",\"38\",\"1\",\"Testing\",\"Stims/Figures/111-C-30-3.bmp\",\"vafasha\",\"Down\",\"38\",\"2\",\"20\",\"3B\",\"C1\",\"C\",\"44\"
\"\",\"\",\"approach-retreat\",\"193\",\"1779682\",\"0.0-193.0\",\"\",\"\",\"1-4\",\"10631\",\"37\",\"1\",\"Testing\",\"Stims/Figures/71-C-30-1.bmp\",\"vafasha\",\"Right\",\"37\",\"2\",\"21\",\"3B\",\"C1\",\"C\",\"45\"
\"\",\"\",\"approach-retreat\",\"194\",\"1788134\",\"0.0-194.0\",\"\",\"\",\"1-4\",\"6944\",\"38\",\"1\",\"Testing\",\"Stims/Figures/71-J-0-1.bmp\",\"za:haha\",\"Up\",\"38\",\"2\",\"22\",\"3B\",\"C2\",\"C\",\"46\"
\"\",\"\",\"approach-retreat\",\"195\",\"1796441\",\"0.0-195.0\",\"\",\"\",\"1-4\",\"6798\",\"37\",\"1\",\"Testing\",\"Stims/Figures/102-J-10-4.bmp\",\"za:haha\",\"Left\",\"37\",\"2\",\"23\",\"3B\",\"C2\",\"C\",\"47\"
\"\",\"\",\"approach-retreat\",\"196\",\"1803787\",\"0.0-196.0\",\"\",\"\",\"1-4\",\"5837\",\"39\",\"1\",\"Testing\",\"Stims/Figures/57-C-30-1.bmp\",\"vafasha\",\"Left\",\"39\",\"2\",\"24\",\"3B\",\"C1\",\"C\",\"48\"
\"\",\"\",\"approach-retreat\",\"197\",\"1809837\",\"0.0-197.0\",\"\",\"\",\"1-4\",\"4541\",\"40\",\"1\",\"Testing\",\"Stims/Figures/111-C-30-3.bmp\",\"vafasha\",\"Up\",\"40\",\"3\",\"1\",\"3B\",\"C1\",\"C\",\"49\"
\"\",\"\",\"approach-retreat\",\"198\",\"1817020\",\"0.0-198.0\",\"\",\"\",\"1-4\",\"5674\",\"39\",\"1\",\"Testing\",\"Stims/Figures/84-J-0-2.bmp\",\"za:haha\",\"Right\",\"39\",\"3\",\"2\",\"3B\",\"C2\",\"C\",\"50\"
\"\",\"\",\"approach-retreat\",\"199\",\"1822791\",\"0.0-199.0\",\"\",\"\",\"1-4\",\"4261\",\"37\",\"1\",\"Testing\",\"Stims/Figures/57-J-0-1.bmp\",\"za:haha\",\"Left\",\"37\",\"3\",\"3\",\"3B\",\"C2\",\"C\",\"51\"
\"\",\"\",\"approach-retreat\",\"200\",\"1829266\",\"0.0-200.0\",\"\",\"\",\"1-4\",\"4967\",\"38\",\"1\",\"Testing\",\"Stims/Figures/87-J-10-4.bmp\",\"za:haha\",\"Up\",\"38\",\"3\",\"4\",\"3B\",\"C2\",\"C\",\"52\"
\"\",\"\",\"approach-retreat\",\"201\",\"1835561\",\"0.0-201.0\",\"\",\"\",\"1-4\",\"4785\",\"40\",\"1\",\"Testing\",\"Stims/Figures/118-C-20-2.bmp\",\"vafasha\",\"Up\",\"40\",\"3\",\"5\",\"3B\",\"C1\",\"C\",\"53\"
\"\",\"\",\"approach-retreat\",\"202\",\"1842634\",\"0.0-202.0\",\"\",\"\",\"1-4\",\"5564\",\"39\",\"1\",\"Testing\",\"Stims/Figures/139-J-0-2.bmp\",\"za:haha\",\"Right\",\"39\",\"3\",\"6\",\"3B\",\"C2\",\"C\",\"54\"
\"\",\"\",\"approach-retreat\",\"203\",\"1848941\",\"0.0-203.0\",\"\",\"\",\"1-4\",\"4799\",\"39\",\"1\",\"Testing\",\"Stims/Figures/118-J-0-2.bmp\",\"za:haha\",\"Right\",\"39\",\"3\",\"7\",\"3B\",\"C2\",\"C\",\"55\"
\"\",\"\",\"approach-retreat\",\"204\",\"1861418\",\"0.0-204.0\",\"\",\"\",\"1-4\",\"10969\",\"38\",\"1\",\"Testing\",\"Stims/Figures/7-C-20-4.bmp\",\"vafasha\",\"Down\",\"38\",\"3\",\"8\",\"3B\",\"C1\",\"C\",\"56\"
\"\",\"\",\"approach-retreat\",\"205\",\"1869728\",\"0.0-205.0\",\"\",\"\",\"1-4\",\"6801\",\"39\",\"1\",\"Testing\",\"Stims/Figures/102-C-20-4.bmp\",\"vafasha\",\"Left\",\"39\",\"3\",\"9\",\"3B\",\"C1\",\"C\",\"57\"
\"\",\"\",\"approach-retreat\",\"206\",\"1877129\",\"0.0-206.0\",\"\",\"\",\"1-4\",\"5891\",\"39\",\"1\",\"Testing\",\"Stims/Figures/71-C-30-1.bmp\",\"vafasha\",\"Left\",\"39\",\"3\",\"10\",\"3B\",\"C1\",\"C\",\"58\"
\"\",\"\",\"approach-retreat\",\"207\",\"1886415\",\"0.0-207.0\",\"\",\"\",\"1-4\",\"7779\",\"40\",\"1\",\"Testing\",\"Stims/Figures/139-C-20-2.bmp\",\"vafasha\",\"Up\",\"40\",\"3\",\"11\",\"3B\",\"C1\",\"C\",\"59\"
\"\",\"\",\"approach-retreat\",\"208\",\"1894252\",\"0.0-208.0\",\"\",\"\",\"1-4\",\"6329\",\"38\",\"1\",\"Testing\",\"Stims/Figures/100-J-10-3.bmp\",\"za:haha\",\"Up\",\"38\",\"3\",\"12\",\"3B\",\"C2\",\"C\",\"60\"
\"\",\"\",\"approach-retreat\",\"209\",\"1900476\",\"0.0-209.0\",\"\",\"\",\"1-4\",\"4713\",\"38\",\"1\",\"Testing\",\"Stims/Figures/71-J-0-1.bmp\",\"za:haha\",\"Up\",\"38\",\"3\",\"13\",\"3B\",\"C2\",\"C\",\"61\"
\"\",\"\",\"approach-retreat\",\"210\",\"1907129\",\"0.0-210.0\",\"\",\"\",\"1-4\",\"5145\",\"38\",\"1\",\"Testing\",\"Stims/Figures/87-C-20-4.bmp\",\"vafasha\",\"Down\",\"38\",\"3\",\"14\",\"3B\",\"C1\",\"C\",\"62\"
\"\",\"\",\"approach-retreat\",\"211\",\"1916877\",\"0.0-211.0\",\"\",\"\",\"1-4\",\"8238\",\"39\",\"1\",\"Testing\",\"Stims/Figures/27-C-30-1.bmp\",\"vafasha\",\"Left\",\"39\",\"3\",\"15\",\"3B\",\"C1\",\"C\",\"63\"
\"\",\"\",\"approach-retreat\",\"212\",\"1922931\",\"0.0-212.0\",\"\",\"\",\"1-4\",\"4546\",\"40\",\"1\",\"Testing\",\"Stims/Figures/111-J-10-3.bmp\",\"za:haha\",\"Down\",\"40\",\"3\",\"16\",\"3B\",\"C2\",\"C\",\"64\"
\"\",\"\",\"approach-retreat\",\"213\",\"1929204\",\"0.0-213.0\",\"\",\"\",\"1-4\",\"4765\",\"38\",\"1\",\"Testing\",\"Stims/Figures/44-C-30-3.bmp\",\"vafasha\",\"Down\",\"38\",\"3\",\"17\",\"3B\",\"C1\",\"C\",\"65\"
\"\",\"\",\"approach-retreat\",\"214\",\"1935015\",\"0.0-214.0\",\"\",\"\",\"1-4\",\"4300\",\"37\",\"1\",\"Testing\",\"Stims/Figures/84-C-20-2.bmp\",\"vafasha\",\"Right\",\"37\",\"3\",\"18\",\"3B\",\"C1\",\"C\",\"66\"
\"\",\"\",\"approach-retreat\",\"215\",\"1943651\",\"0.0-215.0\",\"\",\"\",\"1-4\",\"7129\",\"39\",\"1\",\"Testing\",\"Stims/Figures/57-C-30-1.bmp\",\"vafasha\",\"Left\",\"39\",\"3\",\"19\",\"3B\",\"C1\",\"C\",\"67\"
\"\",\"\",\"approach-retreat\",\"216\",\"1949443\",\"0.0-216.0\",\"\",\"\",\"1-4\",\"4284\",\"37\",\"1\",\"Testing\",\"Stims/Figures/27-J-0-1.bmp\",\"za:haha\",\"Left\",\"37\",\"3\",\"20\",\"3B\",\"C2\",\"C\",\"68\"
\"\",\"\",\"approach-retreat\",\"217\",\"1957095\",\"0.0-217.0\",\"\",\"\",\"1-4\",\"6144\",\"40\",\"1\",\"Testing\",\"Stims/Figures/7-J-10-4.bmp\",\"za:haha\",\"Down\",\"40\",\"3\",\"21\",\"3B\",\"C2\",\"C\",\"69\"
\"\",\"\",\"approach-retreat\",\"218\",\"1963858\",\"0.0-218.0\",\"\",\"\",\"1-4\",\"5254\",\"39\",\"1\",\"Testing\",\"Stims/Figures/102-J-10-4.bmp\",\"za:haha\",\"Right\",\"39\",\"3\",\"22\",\"3B\",\"C2\",\"C\",\"70\"
\"\",\"\",\"approach-retreat\",\"219\",\"1970942\",\"0.0-219.0\",\"\",\"\",\"1-4\",\"5577\",\"40\",\"0\",\"Testing\",\"Stims/Figures/100-C-30-3.bmp\",\"vafasha\",\"Down\",\"38\",\"3\",\"23\",\"3B\",\"C1\",\"C\",\"71\"
\"\",\"\",\"approach-retreat\",\"220\",\"1977683\",\"0.0-220.0\",\"\",\"\",\"1-4\",\"5233\",\"39\",\"1\",\"Testing\",\"Stims/Figures/44-J-10-3.bmp\",\"za:haha\",\"Right\",\"39\",\"3\",\"24\",\"3B\",\"C2\",\"C\",\"72\"
\"\",\"\",\"approach-retreat\",\"221\",\"1985050\",\"0.0-221.0\",\"\",\"\",\"1-4\",\"5858\",\"37\",\"1\",\"Testing\",\"Stims/Figures/7-J-10-4.bmp\",\"za:haha\",\"Left\",\"37\",\"4\",\"1\",\"3B\",\"C2\",\"C\",\"73\"
\"\",\"\",\"approach-retreat\",\"222\",\"1991053\",\"0.0-222.0\",\"\",\"\",\"1-4\",\"4496\",\"40\",\"1\",\"Testing\",\"Stims/Figures/44-C-30-3.bmp\",\"vafasha\",\"Up\",\"40\",\"4\",\"2\",\"3B\",\"C1\",\"C\",\"74\"
\"\",\"\",\"approach-retreat\",\"223\",\"1997366\",\"0.0-223.0\",\"\",\"\",\"1-4\",\"4805\",\"39\",\"1\",\"Testing\",\"Stims/Figures/71-J-0-1.bmp\",\"za:haha\",\"Right\",\"39\",\"4\",\"3\",\"3B\",\"C2\",\"C\",\"75\"
\"\",\"\",\"approach-retreat\",\"224\",\"2004251\",\"0.0-224.0\",\"\",\"\",\"1-4\",\"5378\",\"40\",\"1\",\"Testing\",\"Stims/Figures/139-J-0-2.bmp\",\"za:haha\",\"Down\",\"40\",\"4\",\"4\",\"3B\",\"C2\",\"C\",\"76\"
\"\",\"\",\"approach-retreat\",\"225\",\"2012761\",\"0.0-225.0\",\"\",\"\",\"1-4\",\"7003\",\"39\",\"1\",\"Testing\",\"Stims/Figures/87-C-20-4.bmp\",\"vafasha\",\"Left\",\"39\",\"4\",\"5\",\"3B\",\"C1\",\"C\",\"77\"
\"\",\"\",\"approach-retreat\",\"226\",\"2018580\",\"0.0-226.0\",\"\",\"\",\"1-4\",\"4310\",\"39\",\"1\",\"Testing\",\"Stims/Figures/57-C-30-1.bmp\",\"vafasha\",\"Left\",\"39\",\"4\",\"6\",\"3B\",\"C1\",\"C\",\"78\"
\"\",\"\",\"approach-retreat\",\"227\",\"2024769\",\"0.0-227.0\",\"\",\"\",\"1-4\",\"4681\",\"37\",\"1\",\"Testing\",\"Stims/Figures/71-C-30-1.bmp\",\"vafasha\",\"Right\",\"37\",\"4\",\"7\",\"3B\",\"C1\",\"C\",\"79\"
\"\",\"\",\"approach-retreat\",\"228\",\"2031040\",\"0.0-228.0\",\"\",\"\",\"1-4\",\"4762\",\"40\",\"1\",\"Testing\",\"Stims/Figures/118-C-20-2.bmp\",\"vafasha\",\"Up\",\"40\",\"4\",\"8\",\"3B\",\"C1\",\"C\",\"80\"
\"\",\"\",\"approach-retreat\",\"229\",\"2037289\",\"0.0-229.0\",\"\",\"\",\"1-4\",\"4741\",\"40\",\"1\",\"Testing\",\"Stims/Figures/27-J-0-1.bmp\",\"za:haha\",\"Down\",\"40\",\"4\",\"9\",\"3B\",\"C2\",\"C\",\"81\"
\"\",\"\",\"approach-retreat\",\"230\",\"2046133\",\"0.0-230.0\",\"\",\"\",\"1-4\",\"7335\",\"37\",\"1\",\"Testing\",\"Stims/Figures/84-C-20-2.bmp\",\"vafasha\",\"Right\",\"37\",\"4\",\"10\",\"3B\",\"C1\",\"C\",\"82\"
\"\",\"\",\"approach-retreat\",\"231\",\"2052309\",\"0.0-231.0\",\"\",\"\",\"1-4\",\"4667\",\"38\",\"1\",\"Testing\",\"Stims/Figures/100-J-10-3.bmp\",\"za:haha\",\"Up\",\"38\",\"4\",\"11\",\"3B\",\"C2\",\"C\",\"83\"
\"\",\"\",\"approach-retreat\",\"232\",\"2059993\",\"0.0-232.0\",\"\",\"\",\"1-4\",\"6176\",\"38\",\"1\",\"Testing\",\"Stims/Figures/102-J-10-4.bmp\",\"za:haha\",\"Up\",\"38\",\"4\",\"12\",\"3B\",\"C2\",\"C\",\"84\"
\"\",\"\",\"approach-retreat\",\"233\",\"2068846\",\"0.0-233.0\",\"\",\"\",\"1-4\",\"7342\",\"39\",\"0\",\"Testing\",\"Stims/Figures/7-C-20-4.bmp\",\"vafasha\",\"Right\",\"37\",\"4\",\"13\",\"3B\",\"C1\",\"C\",\"85\"
\"\",\"\",\"approach-retreat\",\"234\",\"2074920\",\"0.0-234.0\",\"\",\"\",\"1-4\",\"4567\",\"38\",\"1\",\"Testing\",\"Stims/Figures/44-J-10-3.bmp\",\"za:haha\",\"Up\",\"38\",\"4\",\"14\",\"3B\",\"C2\",\"C\",\"86\"
\"\",\"\",\"approach-retreat\",\"235\",\"2081862\",\"0.0-235.0\",\"\",\"\",\"1-4\",\"5434\",\"37\",\"1\",\"Testing\",\"Stims/Figures/57-J-0-1.bmp\",\"za:haha\",\"Left\",\"37\",\"4\",\"15\",\"3B\",\"C2\",\"C\",\"87\"
\"\",\"\",\"approach-retreat\",\"236\",\"2087939\",\"0.0-236.0\",\"\",\"\",\"1-4\",\"4570\",\"38\",\"1\",\"Testing\",\"Stims/Figures/27-C-30-1.bmp\",\"vafasha\",\"Down\",\"38\",\"4\",\"16\",\"3B\",\"C1\",\"C\",\"88\"
\"\",\"\",\"approach-retreat\",\"237\",\"2094822\",\"0.0-237.0\",\"\",\"\",\"1-4\",\"5375\",\"37\",\"1\",\"Testing\",\"Stims/Figures/118-J-0-2.bmp\",\"za:haha\",\"Left\",\"37\",\"4\",\"17\",\"3B\",\"C2\",\"C\",\"89\"
\"\",\"\",\"approach-retreat\",\"238\",\"2102625\",\"0.0-238.0\",\"\",\"\",\"1-4\",\"6295\",\"37\",\"1\",\"Testing\",\"Stims/Figures/102-C-20-4.bmp\",\"vafasha\",\"Right\",\"37\",\"4\",\"18\",\"3B\",\"C1\",\"C\",\"90\"
\"\",\"\",\"approach-retreat\",\"239\",\"2108859\",\"0.0-239.0\",\"\",\"\",\"1-4\",\"4724\",\"39\",\"1\",\"Testing\",\"Stims/Figures/100-C-30-3.bmp\",\"vafasha\",\"Left\",\"39\",\"4\",\"19\",\"3B\",\"C1\",\"C\",\"91\"
\"\",\"\",\"approach-retreat\",\"240\",\"2118094\",\"0.0-240.0\",\"\",\"\",\"1-4\",\"7727\",\"40\",\"1\",\"Testing\",\"Stims/Figures/87-J-10-4.bmp\",\"za:haha\",\"Down\",\"40\",\"4\",\"20\",\"3B\",\"C2\",\"C\",\"92\"
\"\",\"\",\"approach-retreat\",\"241\",\"2124016\",\"0.0-241.0\",\"\",\"\",\"1-4\",\"4414\",\"38\",\"1\",\"Testing\",\"Stims/Figures/111-C-30-3.bmp\",\"vafasha\",\"Down\",\"38\",\"4\",\"21\",\"3B\",\"C1\",\"C\",\"93\"
\"\",\"\",\"approach-retreat\",\"242\",\"2130231\",\"0.0-242.0\",\"\",\"\",\"1-4\",\"4706\",\"38\",\"1\",\"Testing\",\"Stims/Figures/84-J-0-2.bmp\",\"za:haha\",\"Up\",\"38\",\"4\",\"22\",\"3B\",\"C2\",\"C\",\"94\"
\"\",\"\",\"approach-retreat\",\"243\",\"2136161\",\"0.0-243.0\",\"\",\"\",\"1-4\",\"4422\",\"38\",\"0\",\"Testing\",\"Stims/Figures/111-J-10-3.bmp\",\"za:haha\",\"Down\",\"40\",\"4\",\"23\",\"3B\",\"C2\",\"C\",\"95\"
\"\",\"\",\"approach-retreat\",\"244\",\"2156500\",\"0.0-244.0\",\"\",\"\",\"1-4\",\"18830\",\"37\",\"1\",\"Testing\",\"Stims/Figures/139-C-20-2.bmp\",\"vafasha\",\"Right\",\"37\",\"4\",\"24\",\"3B\",\"C1\",\"C\",\"96\"
\"22496\",\"\",\"survey-text\",\"245\",\"2179004\",\"0.0-245.0\",\"\",\"{\"\"Q0\"\":\"\"PS160042\"\"}\",\"\",\"\",\"\",\"\",\"\",\"\",\"\",\"\",\"\",\"\",\"\",\"\",\"\",\"\",\"\"
