"rt","key_press","trial_type","trial_index","time_elapsed","internal_node_id","view_history","responses","Id","Rt","ResKeyCode","ResCorr","TrialType2","Image","Label","Location","CorrectResponse","Block","BlockTrial","Condition","LabelType","Subcondition","trialNum"
"28486","32","text","0","28496","0.0-0.0-0.0","","","","","","","","","","","","","","","","",""
"185488","","instructions","1","213986","0.0-1.0","[{""page_index"":0,""viewing_time"":185486}]","","","","","","","","","","","","","","","",""
"11414","","survey-multi-choice","2","225482","0.0-2.0","","{""Q0"":""Da"",""Q1"":""Da"",""Q2"":""Da"",""Q3"":""Da"",""Q4"":""Da"",""Q5"":""Da""}","","","","","","","","","","","","","","",""
"","","bio","3","232082","0.0-3.0","","{""age"":""18"",""gender"":""f"",""specify"":""""}","","","","","","","","","","","","","","",""
"","","approach-retreat","4","240782","0.0-4.0","","","2-2","7182","38","0","Training","Stims/Figures/19-J-10-4.bmp","tapata","Up","40","1","1","4","P","J","1"
"","","approach-retreat","5","249684","0.0-5.0","","","2-2","7388","37","1","Training","Stims/Figures/44-C-30-3.bmp","ma:la:la","Left","37","1","2","4","S","J","2"
"","","approach-retreat","6","257426","0.0-6.0","","","2-2","6230","38","0","Training","Stims/Figures/139-J-0-2.bmp","ta:kaka","Up","40","1","3","4","P","J","3"
"","","approach-retreat","7","265594","0.0-7.0","","","2-2","6656","40","1","Training","Stims/Figures/100-C-30-3.bmp","mama:na","Down","40","1","4","4","S","J","4"
"","","approach-retreat","8","273610","0.0-8.0","","","2-2","6512","39","1","Training","Stims/Figures/139-C-20-2.bmp","mala:na","Right","39","1","5","4","S","J","5"
"","","approach-retreat","9","280464","0.0-9.0","","","2-2","5346","40","0","Training","Stims/Figures/93-J-0-1.bmp","paka:ta","Down","38","1","6","4","P","J","6"
"","","approach-retreat","10","287844","0.0-10.0","","","2-2","5876","38","0","Training","Stims/Figures/118-C-20-2.bmp","nama:la","Down","40","1","7","4","S","J","7"
"","","approach-retreat","11","293794","0.0-11.0","","","2-2","4446","40","0","Training","Stims/Figures/27-C-30-1.bmp","na:mana","Up","38","1","8","4","S","J","8"
"","","approach-retreat","12","299518","0.0-12.0","","","2-2","4218","39","0","Training","Stims/Figures/118-J-0-2.bmp","pa:pata","Right","37","1","9","4","P","J","9"
"","","approach-retreat","13","305916","0.0-13.0","","","2-2","4900","37","0","Training","Stims/Figures/100-J-10-3.bmp","pakata","Left","39","1","10","4","P","J","10"
"","","approach-retreat","14","323868","0.0-14.0","","","2-2","16446","38","1","Training","Stims/Figures/27-J-0-1.bmp","tapaka","Down","38","1","11","4","P","J","11"
"","","approach-retreat","15","330282","0.0-15.0","","","2-2","4902","39","1","Training","Stims/Figures/93-C-30-1.bmp","na:lana","Right","39","1","12","4","S","J","12"
"","","approach-retreat","16","337230","0.0-16.0","","","2-2","5450","37","1","Training","Stims/Figures/44-J-10-3.bmp","pa:kaka","Right","37","1","13","4","P","J","13"
"","","approach-retreat","17","344344","0.0-17.0","","","2-2","5598","39","0","Training","Stims/Figures/19-C-20-4.bmp","ma:ma:la","Left","37","1","14","4","S","J","14"
"","","approach-retreat","18","350448","0.0-18.0","","","2-2","4592","38","1","Training","Stims/Figures/74-C-20-4.bmp","na:ma:na","Up","38","1","15","4","S","J","15"
"","","approach-retreat","19","360800","0.0-19.0","","","2-2","8844","39","1","Training","Stims/Figures/74-J-10-4.bmp","tapa:ka","Left","39","1","16","4","P","J","16"
"","","approach-retreat","20","367958","0.0-20.0","","","2-2","5648","39","1","Training","Stims/Figures/118-C-20-2.bmp","nama:la","Right","39","2","1","4","S","J","17"
"","","approach-retreat","21","374144","0.0-21.0","","","2-2","4680","39","0","Training","Stims/Figures/93-C-30-1.bmp","na:lana","Left","37","2","2","4","S","J","18"
"","","approach-retreat","22","382426","0.0-22.0","","","2-2","6770","40","1","Training","Stims/Figures/93-J-0-1.bmp","paka:ta","Up","40","2","3","4","P","J","19"
"","","approach-retreat","23","419562","0.0-23.0","","","2-2","35630","40","0","Training","Stims/Figures/100-J-10-3.bmp","pakata","Down","38","2","4","4","P","J","20"
"","","approach-retreat","24","426740","0.0-24.0","","","2-2","5654","38","0","Training","Stims/Figures/19-J-10-4.bmp","tapata","Up","40","2","5","4","P","J","21"
"","","approach-retreat","25","433726","0.0-25.0","","","2-2","5476","37","0","Training","Stims/Figures/27-J-0-1.bmp","tapaka","Left","39","2","6","4","P","J","22"
"","","approach-retreat","26","440554","0.0-26.0","","","2-2","5314","38","1","Training","Stims/Figures/118-J-0-2.bmp","pa:pata","Down","38","2","7","4","P","J","23"
"","","approach-retreat","27","447334","0.0-27.0","","","2-2","5276","40","0","Training","Stims/Figures/139-C-20-2.bmp","mala:na","Up","38","2","8","4","S","J","24"
"","","approach-retreat","28","459734","0.0-28.0","","","2-2","10898","38","1","Training","Stims/Figures/44-C-30-3.bmp","ma:la:la","Up","38","2","9","4","S","J","25"
"","","approach-retreat","29","471078","0.0-29.0","","","2-2","9850","39","1","Training","Stims/Figures/19-C-20-4.bmp","ma:ma:la","Right","39","2","10","4","S","J","26"
"","","approach-retreat","30","477428","0.0-30.0","","","2-2","4838","40","0","Training","Stims/Figures/139-J-0-2.bmp","ta:kaka","Down","38","2","11","4","P","J","27"
"","","approach-retreat","31","484604","0.0-31.0","","","2-2","5658","37","1","Training","Stims/Figures/44-J-10-3.bmp","pa:kaka","Right","37","2","12","4","P","J","28"
"","","approach-retreat","32","491332","0.0-32.0","","","2-2","5220","39","0","Training","Stims/Figures/74-C-20-4.bmp","na:ma:na","Left","37","2","13","4","S","J","29"
"","","approach-retreat","33","498048","0.0-33.0","","","2-2","5212","39","1","Training","Stims/Figures/27-C-30-1.bmp","na:mana","Right","39","2","14","4","S","J","30"
"","","approach-retreat","34","506580","0.0-34.0","","","2-2","7036","38","0","Training","Stims/Figures/100-C-30-3.bmp","mama:na","Down","40","2","15","4","S","J","31"
"","","approach-retreat","35","512888","0.0-35.0","","","2-2","4790","37","0","Training","Stims/Figures/74-J-10-4.bmp","tapa:ka","Left","39","2","16","4","P","J","32"
"","","approach-retreat","36","519564","0.0-36.0","","","2-2","5180","38","0","Training","Stims/Figures/27-C-30-1.bmp","na:mana","Down","40","3","1","4","S","J","33"
"","","approach-retreat","37","526006","0.0-37.0","","","2-2","4914","40","1","Training","Stims/Figures/74-J-10-4.bmp","tapa:ka","Up","40","3","2","4","P","J","34"
"","","approach-retreat","38","552116","0.0-38.0","","","2-2","24606","39","0","Training","Stims/Figures/27-J-0-1.bmp","tapaka","Right","37","3","3","4","P","J","35"
"","","approach-retreat","39","558630","0.0-39.0","","","2-2","5020","39","0","Training","Stims/Figures/44-J-10-3.bmp","pa:kaka","Right","37","3","4","4","P","J","36"
"","","approach-retreat","40","564472","0.0-40.0","","","2-2","4338","37","1","Training","Stims/Figures/100-J-10-3.bmp","pakata","Right","37","3","5","4","P","J","37"
"","","approach-retreat","41","577648","0.0-41.0","","","2-2","11668","37","1","Training","Stims/Figures/19-C-20-4.bmp","ma:ma:la","Left","37","3","6","4","S","J","38"
"","","approach-retreat","42","585650","0.0-42.0","","","2-2","6498","38","1","Training","Stims/Figures/74-C-20-4.bmp","na:ma:na","Up","38","3","7","4","S","J","39"
"","","approach-retreat","43","595852","0.0-43.0","","","2-2","8706","40","0","Training","Stims/Figures/118-C-20-2.bmp","nama:la","Up","38","3","8","4","S","J","40"
"","","approach-retreat","44","612120","0.0-44.0","","","2-2","14762","38","0","Training","Stims/Figures/93-C-30-1.bmp","na:lana","Down","40","3","9","4","S","J","41"
"","","approach-retreat","45","621758","0.0-45.0","","","2-2","8126","37","1","Training","Stims/Figures/118-J-0-2.bmp","pa:pata","Right","37","3","10","4","P","J","42"
"","","approach-retreat","46","629058","0.0-46.0","","","2-2","5788","39","0","Training","Stims/Figures/139-C-20-2.bmp","mala:na","Left","37","3","11","4","S","J","43"
"","","approach-retreat","47","636004","0.0-47.0","","","2-2","5450","39","1","Training","Stims/Figures/19-J-10-4.bmp","tapata","Left","39","3","12","4","P","J","44"
"","","approach-retreat","48","692102","0.0-48.0","","","2-2","54590","38","1","Training","Stims/Figures/44-C-30-3.bmp","ma:la:la","Up","38","3","13","4","S","J","45"
"","","approach-retreat","49","708902","0.0-49.0","","","2-2","15294","38","0","Training","Stims/Figures/100-C-30-3.bmp","mama:na","Down","40","3","14","4","S","J","46"
"","","approach-retreat","50","715030","0.0-50.0","","","2-2","4596","39","1","Training","Stims/Figures/139-J-0-2.bmp","ta:kaka","Left","39","3","15","4","P","J","47"
"","","approach-retreat","51","721450","0.0-51.0","","","2-2","4906","40","0","Training","Stims/Figures/93-J-0-1.bmp","paka:ta","Down","38","3","16","4","P","J","48"
"","","approach-retreat","52","754078","0.0-52.0","","","2-2","31122","38","0","Training","Stims/Figures/74-C-20-4.bmp","na:ma:na","Down","40","4","1","4","S","J","49"
"","","approach-retreat","53","760790","0.0-53.0","","","2-2","5188","39","0","Training","Stims/Figures/44-C-30-3.bmp","ma:la:la","Left","37","4","2","4","S","J","50"
"","","approach-retreat","54","769542","0.0-54.0","","","2-2","7250","39","0","Training","Stims/Figures/139-J-0-2.bmp","ta:kaka","Right","37","4","3","4","P","J","51"
"","","approach-retreat","55","779588","0.0-55.0","","","2-2","8548","39","0","Training","Stims/Figures/27-J-0-1.bmp","tapaka","Right","37","4","4","4","P","J","52"
"","","approach-retreat","56","849576","0.0-56.0","","","2-2","68492","37","1","Training","Stims/Figures/139-C-20-2.bmp","mala:na","Left","37","4","5","4","S","J","53"
"","","approach-retreat","57","856656","0.0-57.0","","","2-2","5580","38","1","Training","Stims/Figures/19-C-20-4.bmp","ma:ma:la","Up","38","4","6","4","S","J","54"
"","","approach-retreat","58","863144","0.0-58.0","","","2-2","4982","37","1","Training","Stims/Figures/100-J-10-3.bmp","pakata","Right","37","4","7","4","P","J","55"
"","","approach-retreat","59","872206","0.0-59.0","","","2-2","7554","38","0","Training","Stims/Figures/93-C-30-1.bmp","na:lana","Down","40","4","8","4","S","J","56"
"","","approach-retreat","60","881018","0.0-60.0","","","2-2","7302","38","0","Training","Stims/Figures/93-J-0-1.bmp","paka:ta","Up","40","4","9","4","P","J","57"
"","","approach-retreat","61","887208","0.0-61.0","","","2-2","4684","39","0","Training","Stims/Figures/27-C-30-1.bmp","na:mana","Left","37","4","10","4","S","J","58"
"","","approach-retreat","62","929734","0.0-62.0","","","2-2","41020","38","0","Training","Stims/Figures/118-J-0-2.bmp","pa:pata","Up","40","4","11","4","P","J","59"
"","","approach-retreat","63","936632","0.0-63.0","","","2-2","5380","38","1","Training","Stims/Figures/19-J-10-4.bmp","tapata","Down","38","4","12","4","P","J","60"
"","","approach-retreat","64","950522","0.0-64.0","","","2-2","12386","39","1","Training","Stims/Figures/44-J-10-3.bmp","pa:kaka","Left","39","4","13","4","P","J","61"
"","","approach-retreat","65","958938","0.0-65.0","","","2-2","6916","38","1","Training","Stims/Figures/100-C-30-3.bmp","mama:na","Up","38","4","14","4","S","J","62"
"","","approach-retreat","66","965330","0.0-66.0","","","2-2","4884","37","1","Training","Stims/Figures/74-J-10-4.bmp","tapa:ka","Right","37","4","15","4","P","J","63"
"","","approach-retreat","67","970866","0.0-67.0","","","2-2","4028","38","0","Training","Stims/Figures/118-C-20-2.bmp","nama:la","Down","40","4","16","4","S","J","64"
"","","approach-retreat","68","980722","0.0-68.0","","","2-2","8358","39","1","Training","Stims/Figures/19-C-20-4.bmp","ma:ma:la","Right","39","5","1","4","S","J","65"
"","","approach-retreat","69","988266","0.0-69.0","","","2-2","6034","40","0","Training","Stims/Figures/74-C-20-4.bmp","na:ma:na","Up","38","5","2","4","S","J","66"
"","","approach-retreat","70","995208","0.0-70.0","","","2-2","5430","39","0","Training","Stims/Figures/74-J-10-4.bmp","tapa:ka","Right","37","5","3","4","P","J","67"
"","","approach-retreat","71","1000950","0.0-71.0","","","2-2","4230","38","0","Training","Stims/Figures/118-C-20-2.bmp","nama:la","Down","40","5","4","4","S","J","68"
"","","approach-retreat","72","1008534","0.0-72.0","","","2-2","6072","39","0","Training","Stims/Figures/27-C-30-1.bmp","na:mana","Left","37","5","5","4","S","J","69"
"","","approach-retreat","73","1014972","0.0-73.0","","","2-2","4938","38","1","Training","Stims/Figures/27-J-0-1.bmp","tapaka","Down","38","5","6","4","P","J","70"
"","","approach-retreat","74","1041566","0.0-74.0","","","2-2","25088","37","0","Training","Stims/Figures/139-J-0-2.bmp","ta:kaka","Left","39","5","7","4","P","J","71"
"","","approach-retreat","75","1047228","0.0-75.0","","","2-2","4156","38","1","Training","Stims/Figures/139-C-20-2.bmp","mala:na","Up","38","5","8","4","S","J","72"
"","","approach-retreat","76","1053462","0.0-76.0","","","2-2","4722","37","0","Training","Stims/Figures/100-C-30-3.bmp","mama:na","Right","39","5","9","4","S","J","73"
"","","approach-retreat","77","1075840","0.0-77.0","","","2-2","20876","39","1","Training","Stims/Figures/100-J-10-3.bmp","pakata","Left","39","5","10","4","P","J","74"
"","","approach-retreat","78","1082300","0.0-78.0","","","2-2","4956","40","1","Training","Stims/Figures/93-J-0-1.bmp","paka:ta","Up","40","5","11","4","P","J","75"
"","","approach-retreat","79","1089066","0.0-79.0","","","2-2","5270","39","1","Training","Stims/Figures/118-J-0-2.bmp","pa:pata","Left","39","5","12","4","P","J","76"
"","","approach-retreat","80","1098816","0.0-80.0","","","2-2","8236","40","0","Training","Stims/Figures/44-J-10-3.bmp","pa:kaka","Down","38","5","13","4","P","J","77"
"","","approach-retreat","81","1104774","0.0-81.0","","","2-2","4460","39","0","Training","Stims/Figures/19-J-10-4.bmp","tapata","Right","37","5","14","4","P","J","78"
"","","approach-retreat","82","1111130","0.0-82.0","","","2-2","4846","40","0","Training","Stims/Figures/44-C-30-3.bmp","ma:la:la","Up","38","5","15","4","S","J","79"
"","","approach-retreat","83","1118558","0.0-83.0","","","2-2","5930","40","1","Training","Stims/Figures/93-C-30-1.bmp","na:lana","Down","40","5","16","4","S","J","80"
"","","approach-retreat","84","1127574","0.0-84.0","","","2-2","7514","37","0","Training","Stims/Figures/44-J-10-3.bmp","pa:kaka","Left","39","6","1","4","P","J","81"
"","","approach-retreat","85","1133900","0.0-85.0","","","2-2","4820","39","1","Training","Stims/Figures/118-J-0-2.bmp","pa:pata","Left","39","6","2","4","P","J","82"
"","","approach-retreat","86","1144498","0.0-86.0","","","2-2","9096","38","1","Training","Stims/Figures/19-C-20-4.bmp","ma:ma:la","Up","38","6","3","4","S","J","83"
"","","approach-retreat","87","1150150","0.0-87.0","","","2-2","4130","39","1","Training","Stims/Figures/118-C-20-2.bmp","nama:la","Right","39","6","4","4","S","J","84"
"","","approach-retreat","88","1155698","0.0-88.0","","","2-2","4050","38","1","Training","Stims/Figures/27-C-30-1.bmp","na:mana","Up","38","6","5","4","S","J","85"
"","","approach-retreat","89","1161726","0.0-89.0","","","2-2","4530","40","1","Training","Stims/Figures/93-C-30-1.bmp","na:lana","Down","40","6","6","4","S","J","86"
"","","approach-retreat","90","1167918","0.0-90.0","","","2-2","4688","37","1","Training","Stims/Figures/139-C-20-2.bmp","mala:na","Left","37","6","7","4","S","J","87"
"","","approach-retreat","91","1175094","0.0-91.0","","","2-2","5658","38","0","Training","Stims/Figures/100-C-30-3.bmp","mama:na","Down","40","6","8","4","S","J","88"
"","","approach-retreat","92","1180910","0.0-92.0","","","2-2","4312","38","0","Training","Stims/Figures/19-J-10-4.bmp","tapata","Up","40","6","9","4","P","J","89"
"","","approach-retreat","93","1186796","0.0-93.0","","","2-2","4388","40","1","Training","Stims/Figures/44-C-30-3.bmp","ma:la:la","Down","40","6","10","4","S","J","90"
"","","approach-retreat","94","1192482","0.0-94.0","","","2-2","4190","39","0","Training","Stims/Figures/27-J-0-1.bmp","tapaka","Right","37","6","11","4","P","J","91"
"","","approach-retreat","95","1198492","0.0-95.0","","","2-2","4490","39","0","Training","Stims/Figures/139-J-0-2.bmp","ta:kaka","Right","37","6","12","4","P","J","92"
"","","approach-retreat","96","1205464","0.0-96.0","","","2-2","5472","39","1","Training","Stims/Figures/74-J-10-4.bmp","tapa:ka","Left","39","6","13","4","P","J","93"
"","","approach-retreat","97","1218714","0.0-97.0","","","2-2","11752","37","0","Training","Stims/Figures/74-C-20-4.bmp","na:ma:na","Right","39","6","14","4","S","J","94"
"","","approach-retreat","98","1224668","0.0-98.0","","","2-2","4440","40","0","Training","Stims/Figures/100-J-10-3.bmp","pakata","Down","38","6","15","4","P","J","95"
"","","approach-retreat","99","1230796","0.0-99.0","","","2-2","4608","38","0","Training","Stims/Figures/93-J-0-1.bmp","paka:ta","Up","40","6","16","4","P","J","96"
"","","approach-retreat","100","1236714","0.0-100.0","","","2-2","4424","38","0","Training","Stims/Figures/27-J-0-1.bmp","tapaka","Up","40","7","1","4","P","J","97"
"","","approach-retreat","101","1242232","0.0-101.0","","","2-2","4016","40","1","Training","Stims/Figures/74-C-20-4.bmp","na:ma:na","Down","40","7","2","4","S","J","98"
"","","approach-retreat","102","1248500","0.0-102.0","","","2-2","4764","39","1","Training","Stims/Figures/100-J-10-3.bmp","pakata","Left","39","7","3","4","P","J","99"
"","","approach-retreat","103","1254462","0.0-103.0","","","2-2","4444","38","0","Training","Stims/Figures/44-J-10-3.bmp","pa:kaka","Up","40","7","4","4","P","J","100"
"","","approach-retreat","104","1261070","0.0-104.0","","","2-2","5094","39","0","Training","Stims/Figures/93-J-0-1.bmp","paka:ta","Right","37","7","5","4","P","J","101"
"","","approach-retreat","105","1267114","0.0-105.0","","","2-2","4536","40","0","Training","Stims/Figures/118-J-0-2.bmp","pa:pata","Down","38","7","6","4","P","J","102"
"","","approach-retreat","106","1274248","0.0-106.0","","","2-2","5626","38","0","Training","Stims/Figures/27-C-30-1.bmp","na:mana","Down","40","7","7","4","S","J","103"
"","","approach-retreat","107","1280206","0.0-107.0","","","2-2","4452","37","1","Training","Stims/Figures/139-C-20-2.bmp","mala:na","Left","37","7","8","4","S","J","104"
"","","approach-retreat","108","1310200","0.0-108.0","","","2-2","28500","40","0","Training","Stims/Figures/93-C-30-1.bmp","na:lana","Up","38","7","9","4","S","J","105"
"","","approach-retreat","109","1321436","0.0-109.0","","","2-2","9732","37","0","Training","Stims/Figures/19-J-10-4.bmp","tapata","Left","39","7","10","4","P","J","106"
"","","approach-retreat","110","1333642","0.0-110.0","","","2-2","10704","40","1","Training","Stims/Figures/19-C-20-4.bmp","ma:ma:la","Down","40","7","11","4","S","J","107"
"","","approach-retreat","111","1343064","0.0-111.0","","","2-2","7918","39","1","Training","Stims/Figures/118-C-20-2.bmp","nama:la","Right","39","7","12","4","S","J","108"
"","","approach-retreat","112","1348728","0.0-112.0","","","2-2","4160","39","0","Training","Stims/Figures/139-J-0-2.bmp","ta:kaka","Right","37","7","13","4","P","J","109"
"","","approach-retreat","113","1355672","0.0-113.0","","","2-2","5448","40","0","Training","Stims/Figures/44-C-30-3.bmp","ma:la:la","Up","38","7","14","4","S","J","110"
"","","approach-retreat","114","1362300","0.0-114.0","","","2-2","5128","39","1","Training","Stims/Figures/100-C-30-3.bmp","mama:na","Right","39","7","15","4","S","J","111"
"","","approach-retreat","115","1368536","0.0-115.0","","","2-2","4724","39","1","Training","Stims/Figures/74-J-10-4.bmp","tapa:ka","Left","39","7","16","4","P","J","112"
"","","approach-retreat","116","1374734","0.0-116.0","","","2-2","4696","37","1","Training","Stims/Figures/118-C-20-2.bmp","nama:la","Left","37","8","1","4","S","J","113"
"","","approach-retreat","117","1380796","0.0-117.0","","","2-2","4566","37","0","Training","Stims/Figures/27-J-0-1.bmp","tapaka","Left","39","8","2","4","P","J","114"
"","","approach-retreat","118","1399052","0.0-118.0","","","2-2","16760","40","1","Training","Stims/Figures/74-C-20-4.bmp","na:ma:na","Down","40","8","3","4","S","J","115"
"","","approach-retreat","119","1412742","0.0-119.0","","","2-2","12186","38","1","Training","Stims/Figures/44-J-10-3.bmp","pa:kaka","Down","38","8","4","4","P","J","116"
"","","approach-retreat","120","1418556","0.0-120.0","","","2-2","4292","39","1","Training","Stims/Figures/93-C-30-1.bmp","na:lana","Right","39","8","5","4","S","J","117"
"","","approach-retreat","121","1443274","0.0-121.0","","","2-2","23200","38","1","Training","Stims/Figures/19-C-20-4.bmp","ma:ma:la","Up","38","8","6","4","S","J","118"
"","","approach-retreat","122","1453528","0.0-122.0","","","2-2","8740","37","0","Training","Stims/Figures/139-J-0-2.bmp","ta:kaka","Left","39","8","7","4","P","J","119"
"","","approach-retreat","123","1460926","0.0-123.0","","","2-2","5878","40","0","Training","Stims/Figures/74-J-10-4.bmp","tapa:ka","Down","38","8","8","4","P","J","120"
"","","approach-retreat","124","1466804","0.0-124.0","","","2-2","4370","38","0","Training","Stims/Figures/19-J-10-4.bmp","tapata","Up","40","8","9","4","P","J","121"
"","","approach-retreat","125","1472466","0.0-125.0","","","2-2","4144","39","0","Training","Stims/Figures/93-J-0-1.bmp","paka:ta","Right","37","8","10","4","P","J","122"
"","","approach-retreat","126","1478098","0.0-126.0","","","2-2","4126","37","1","Training","Stims/Figures/118-J-0-2.bmp","pa:pata","Right","37","8","11","4","P","J","123"
"","","approach-retreat","127","1484944","0.0-127.0","","","2-2","5334","37","1","Training","Stims/Figures/139-C-20-2.bmp","mala:na","Left","37","8","12","4","S","J","124"
"","","approach-retreat","128","1490774","0.0-128.0","","","2-2","4314","38","0","Training","Stims/Figures/100-J-10-3.bmp","pakata","Up","40","8","13","4","P","J","125"
"","","approach-retreat","129","1496496","0.0-129.0","","","2-2","4212","40","1","Training","Stims/Figures/44-C-30-3.bmp","ma:la:la","Down","40","8","14","4","S","J","126"
"","","approach-retreat","130","1502198","0.0-130.0","","","2-2","4180","39","1","Training","Stims/Figures/100-C-30-3.bmp","mama:na","Right","39","8","15","4","S","J","127"
"","","approach-retreat","131","1508036","0.0-131.0","","","2-2","4334","38","1","Training","Stims/Figures/27-C-30-1.bmp","na:mana","Up","38","8","16","4","S","J","128"
"","","approach-retreat","132","1513750","0.0-132.0","","","2-2","4198","37","1","Training","Stims/Figures/44-C-30-3.bmp","ma:la:la","Left","37","9","1","4","S","J","129"
"","","approach-retreat","133","1519600","0.0-133.0","","","2-2","4344","38","0","Training","Stims/Figures/27-C-30-1.bmp","na:mana","Down","40","9","2","4","S","J","130"
"","","approach-retreat","134","1525884","0.0-134.0","","","2-2","4772","40","1","Training","Stims/Figures/44-J-10-3.bmp","pa:kaka","Up","40","9","3","4","P","J","131"
"","","approach-retreat","135","1531612","0.0-135.0","","","2-2","4210","37","0","Training","Stims/Figures/100-C-30-3.bmp","mama:na","Right","39","9","4","4","S","J","132"
"","","approach-retreat","136","1537618","0.0-136.0","","","2-2","4504","40","0","Training","Stims/Figures/139-C-20-2.bmp","mala:na","Up","38","9","5","4","S","J","133"
"","","approach-retreat","137","1543724","0.0-137.0","","","2-2","4598","37","1","Training","Stims/Figures/118-C-20-2.bmp","nama:la","Left","37","9","6","4","S","J","134"
"","","approach-retreat","138","1549452","0.0-138.0","","","2-2","4224","39","1","Training","Stims/Figures/74-C-20-4.bmp","na:ma:na","Right","39","9","7","4","S","J","135"
"","","approach-retreat","139","1564614","0.0-139.0","","","2-2","13644","40","1","Training","Stims/Figures/118-J-0-2.bmp","pa:pata","Up","40","9","8","4","P","J","136"
"","","approach-retreat","140","1570246","0.0-140.0","","","2-2","4122","38","0","Training","Stims/Figures/93-J-0-1.bmp","paka:ta","Up","40","9","9","4","P","J","137"
"","","approach-retreat","141","1576038","0.0-141.0","","","2-2","4290","37","0","Training","Stims/Figures/74-J-10-4.bmp","tapa:ka","Left","39","9","10","4","P","J","138"
"","","approach-retreat","142","1582604","0.0-142.0","","","2-2","5054","38","0","Training","Stims/Figures/19-C-20-4.bmp","ma:ma:la","Down","40","9","11","4","S","J","139"
"","","approach-retreat","143","1588292","0.0-143.0","","","2-2","4186","39","1","Training","Stims/Figures/93-C-30-1.bmp","na:lana","Right","39","9","12","4","S","J","140"
"","","approach-retreat","144","1623886","0.0-144.0","","","2-2","34082","38","1","Training","Stims/Figures/27-J-0-1.bmp","tapaka","Down","38","9","13","4","P","J","141"
"","","approach-retreat","145","1629376","0.0-145.0","","","2-2","3970","38","1","Training","Stims/Figures/100-J-10-3.bmp","pakata","Down","38","9","14","4","P","J","142"
"","","approach-retreat","146","1636266","0.0-146.0","","","2-2","5370","39","0","Training","Stims/Figures/19-J-10-4.bmp","tapata","Right","37","9","15","4","P","J","143"
"","","approach-retreat","147","1642066","0.0-147.0","","","2-2","4280","37","0","Training","Stims/Figures/139-J-0-2.bmp","ta:kaka","Left","39","9","16","4","P","J","144"
"14990","","instructions","148","1657058","0.0-148.0","[{""page_index"":0,""viewing_time"":14988}]","","","","","","","","","","","","","","","",""
"","","approach-retreat","149","1663632","0.0-149.0","","","2-2","5042","37","0","Testing","Stims/Figures/139-J-0-2.bmp","ta:kaka","Left","39","1","1","4","P","J","1"
"","","approach-retreat","150","1669522","0.0-150.0","","","2-2","4362","40","1","Testing","Stims/Figures/111-C-30-3.bmp","mamala","Down","40","1","2","4","S","J","2"
"","","approach-retreat","151","1674902","0.0-151.0","","","2-2","3872","37","0","Testing","Stims/Figures/74-J-10-4.bmp","tapa:ka","Left","39","1","3","4","P","J","3"
"","","approach-retreat","152","1680422","0.0-152.0","","","2-2","4014","39","1","Testing","Stims/Figures/19-J-10-4.bmp","tapata","Left","39","1","4","4","P","J","4"
"","","approach-retreat","153","1686310","0.0-153.0","","","2-2","4384","38","1","Testing","Stims/Figures/27-C-30-1.bmp","na:mana","Up","38","1","5","4","S","J","5"
"","","approach-retreat","154","1691378","0.0-154.0","","","2-2","3560","39","0","Testing","Stims/Figures/111-J-10-3.bmp","ta:kata","Right","37","1","6","4","P","J","6"
"","","approach-retreat","155","1697248","0.0-155.0","","","2-2","4362","37","0","Testing","Stims/Figures/118-J-0-2.bmp","pa:pata","Left","39","1","7","4","P","J","7"
"","","approach-retreat","156","1702806","0.0-156.0","","","2-2","4056","38","1","Testing","Stims/Figures/74-C-20-4.bmp","na:ma:na","Up","38","1","8","4","S","J","8"
"","","approach-retreat","157","1708342","0.0-157.0","","","2-2","4026","39","0","Testing","Stims/Figures/84-J-0-2.bmp","ta:ka:ka","Right","37","1","9","4","P","J","9"
"","","approach-retreat","158","1714272","0.0-158.0","","","2-2","4414","38","1","Testing","Stims/Figures/44-J-10-3.bmp","pa:kaka","Down","38","1","10","4","P","J","10"
"","","approach-retreat","159","1733626","0.0-159.0","","","2-2","17838","39","1","Testing","Stims/Figures/100-C-30-3.bmp","mama:na","Right","39","1","11","4","S","J","11"
"","","approach-retreat","160","1739534","0.0-160.0","","","2-2","4394","37","0","Testing","Stims/Figures/84-C-20-2.bmp","malala","Right","39","1","12","4","S","J","12"
"","","approach-retreat","161","1749150","0.0-161.0","","","2-2","8100","38","0","Testing","Stims/Figures/102-C-20-4.bmp","nala:la","Down","40","1","13","4","S","J","13"
"","","approach-retreat","162","1755016","0.0-162.0","","","2-2","4354","39","1","Testing","Stims/Figures/19-C-20-4.bmp","ma:ma:la","Right","39","1","14","4","S","J","14"
"","","approach-retreat","163","1762750","0.0-163.0","","","2-2","6204","40","1","Testing","Stims/Figures/93-J-0-1.bmp","paka:ta","Up","40","1","15","4","P","J","15"
"","","approach-retreat","164","1768274","0.0-164.0","","","2-2","4012","38","1","Testing","Stims/Figures/44-C-30-3.bmp","ma:la:la","Up","38","1","16","4","S","J","16"
"","","approach-retreat","165","1773848","0.0-165.0","","","2-2","4068","38","1","Testing","Stims/Figures/27-J-0-1.bmp","tapaka","Down","38","1","17","4","P","J","17"
"","","approach-retreat","166","1779432","0.0-166.0","","","2-2","4078","38","1","Testing","Stims/Figures/57-J-0-1.bmp","pa:pa:ta","Down","38","1","18","4","P","J","18"
"","","approach-retreat","167","1785046","0.0-167.0","","","2-2","4102","39","1","Testing","Stims/Figures/57-C-30-1.bmp","nalana","Right","39","1","19","4","S","J","19"
"","","approach-retreat","168","1791602","0.0-168.0","","","2-2","5052","38","0","Testing","Stims/Figures/100-J-10-3.bmp","pakata","Up","40","1","20","4","P","J","20"
"","","approach-retreat","169","1797272","0.0-169.0","","","2-2","4160","39","0","Testing","Stims/Figures/118-C-20-2.bmp","nama:la","Left","37","1","21","4","S","J","21"
"","","approach-retreat","170","1803092","0.0-170.0","","","2-2","4290","40","0","Testing","Stims/Figures/139-C-20-2.bmp","mala:na","Up","38","1","22","4","S","J","22"
"","","approach-retreat","171","1808768","0.0-171.0","","","2-2","4166","39","1","Testing","Stims/Figures/102-J-10-4.bmp","pa:pa:ka","Left","39","1","23","4","P","J","23"
"","","approach-retreat","172","1814802","0.0-172.0","","","2-2","4534","38","0","Testing","Stims/Figures/93-C-30-1.bmp","na:lana","Down","40","1","24","4","S","J","24"
"","","approach-retreat","173","1820562","0.0-173.0","","","2-2","4264","38","1","Testing","Stims/Figures/139-C-20-2.bmp","mala:na","Up","38","2","1","4","S","J","25"
"","","approach-retreat","174","1826324","0.0-174.0","","","2-2","4238","40","0","Testing","Stims/Figures/57-J-0-1.bmp","pa:pa:ta","Down","38","2","2","4","P","J","26"
"","","approach-retreat","175","1831980","0.0-175.0","","","2-2","4138","39","1","Testing","Stims/Figures/27-C-30-1.bmp","na:mana","Right","39","2","3","4","S","J","27"
"","","approach-retreat","176","1837414","0.0-176.0","","","2-2","3930","37","0","Testing","Stims/Figures/93-J-0-1.bmp","paka:ta","Left","39","2","4","4","P","J","28"
"","","approach-retreat","177","1842910","0.0-177.0","","","2-2","3992","40","1","Testing","Stims/Figures/84-J-0-2.bmp","ta:ka:ka","Up","40","2","5","4","P","J","29"
"","","approach-retreat","178","1849166","0.0-178.0","","","2-2","4748","37","1","Testing","Stims/Figures/102-J-10-4.bmp","pa:pa:ka","Right","37","2","6","4","P","J","30"
"","","approach-retreat","179","1855620","0.0-179.0","","","2-2","4946","39","0","Testing","Stims/Figures/74-C-20-4.bmp","na:ma:na","Left","37","2","7","4","S","J","31"
"","","approach-retreat","180","1861592","0.0-180.0","","","2-2","4458","38","0","Testing","Stims/Figures/27-J-0-1.bmp","tapaka","Up","40","2","8","4","P","J","32"
"","","approach-retreat","181","1867590","0.0-181.0","","","2-2","4482","39","1","Testing","Stims/Figures/74-J-10-4.bmp","tapa:ka","Left","39","2","9","4","P","J","33"
"","","approach-retreat","182","1873042","0.0-182.0","","","2-2","3938","38","1","Testing","Stims/Figures/93-C-30-1.bmp","na:lana","Up","38","2","10","4","S","J","34"
"","","approach-retreat","183","1878664","0.0-183.0","","","2-2","4120","38","1","Testing","Stims/Figures/44-J-10-3.bmp","pa:kaka","Down","38","2","11","4","P","J","35"
"","","approach-retreat","184","1884888","0.0-184.0","","","2-2","4708","39","1","Testing","Stims/Figures/118-J-0-2.bmp","pa:pata","Left","39","2","12","4","P","J","36"
"","","approach-retreat","185","1890466","0.0-185.0","","","2-2","4070","38","0","Testing","Stims/Figures/57-C-30-1.bmp","nalana","Down","40","2","13","4","S","J","37"
"","","approach-retreat","186","1896776","0.0-186.0","","","2-2","4804","40","1","Testing","Stims/Figures/19-C-20-4.bmp","ma:ma:la","Down","40","2","14","4","S","J","38"
"","","approach-retreat","187","1907808","0.0-187.0","","","2-2","9530","37","0","Testing","Stims/Figures/139-J-0-2.bmp","ta:kaka","Left","39","2","15","4","P","J","39"
"","","approach-retreat","188","1916236","0.0-188.0","","","2-2","6924","38","0","Testing","Stims/Figures/100-J-10-3.bmp","pakata","Up","40","2","16","4","P","J","40"
"","","approach-retreat","189","1927274","0.0-189.0","","","2-2","9528","39","1","Testing","Stims/Figures/118-C-20-2.bmp","nama:la","Right","39","2","17","4","S","J","41"
"","","approach-retreat","190","1935996","0.0-190.0","","","2-2","7212","39","0","Testing","Stims/Figures/84-C-20-2.bmp","malala","Left","37","2","18","4","S","J","42"
"","","approach-retreat","191","1941958","0.0-191.0","","","2-2","4462","38","0","Testing","Stims/Figures/111-C-30-3.bmp","mamala","Down","40","2","19","4","S","J","43"
"","","approach-retreat","192","1950360","0.0-192.0","","","2-2","6896","40","1","Testing","Stims/Figures/100-C-30-3.bmp","mama:na","Down","40","2","20","4","S","J","44"
"","","approach-retreat","193","1962584","0.0-193.0","","","2-2","10722","39","0","Testing","Stims/Figures/111-J-10-3.bmp","ta:kata","Right","37","2","21","4","P","J","45"
"","","approach-retreat","194","1968586","0.0-194.0","","","2-2","4502","38","1","Testing","Stims/Figures/44-C-30-3.bmp","ma:la:la","Up","38","2","22","4","S","J","46"
"","","approach-retreat","195","1977444","0.0-195.0","","","2-2","7348","39","0","Testing","Stims/Figures/19-J-10-4.bmp","tapata","Right","37","2","23","4","P","J","47"
"","","approach-retreat","196","1983832","0.0-196.0","","","2-2","4866","37","0","Testing","Stims/Figures/102-C-20-4.bmp","nala:la","Right","39","2","24","4","S","J","48"
"","","approach-retreat","197","1989820","0.0-197.0","","","2-2","4484","40","0","Testing","Stims/Figures/118-J-0-2.bmp","pa:pata","Down","38","3","1","4","P","J","49"
"","","approach-retreat","198","1999034","0.0-198.0","","","2-2","7722","40","0","Testing","Stims/Figures/100-C-30-3.bmp","mama:na","Up","38","3","2","4","S","J","50"
"","","approach-retreat","199","2022224","0.0-199.0","","","2-2","21692","39","0","Testing","Stims/Figures/57-J-0-1.bmp","pa:pa:ta","Right","37","3","3","4","P","J","51"
"","","approach-retreat","200","2027818","0.0-200.0","","","2-2","4070","40","0","Testing","Stims/Figures/111-J-10-3.bmp","ta:kata","Down","38","3","4","4","P","J","52"
"","","approach-retreat","201","2045066","0.0-201.0","","","2-2","15732","40","0","Testing","Stims/Figures/84-C-20-2.bmp","malala","Up","38","3","5","4","S","J","53"
"","","approach-retreat","202","2050464","0.0-202.0","","","2-2","3902","38","0","Testing","Stims/Figures/44-J-10-3.bmp","pa:kaka","Up","40","3","6","4","P","J","54"
"","","approach-retreat","203","2056910","0.0-203.0","","","2-2","4934","40","0","Testing","Stims/Figures/100-J-10-3.bmp","pakata","Down","38","3","7","4","P","J","55"
"","","approach-retreat","204","2062638","0.0-204.0","","","2-2","4228","38","0","Testing","Stims/Figures/27-J-0-1.bmp","tapaka","Up","40","3","8","4","P","J","56"
"","","approach-retreat","205","2072332","0.0-205.0","","","2-2","8178","37","1","Testing","Stims/Figures/139-C-20-2.bmp","mala:na","Left","37","3","9","4","S","J","57"
"","","approach-retreat","206","2079798","0.0-206.0","","","2-2","5954","39","0","Testing","Stims/Figures/19-J-10-4.bmp","tapata","Right","37","3","10","4","P","J","58"
"","","approach-retreat","207","2103588","0.0-207.0","","","2-2","22284","40","1","Testing","Stims/Figures/102-C-20-4.bmp","nala:la","Down","40","3","11","4","S","J","59"
"","","approach-retreat","208","2109084","0.0-208.0","","","2-2","3990","37","0","Testing","Stims/Figures/102-J-10-4.bmp","pa:pa:ka","Left","39","3","12","4","P","J","60"
"","","approach-retreat","209","2114596","0.0-209.0","","","2-2","3990","39","0","Testing","Stims/Figures/84-J-0-2.bmp","ta:ka:ka","Right","37","3","13","4","P","J","61"
"","","approach-retreat","210","2121068","0.0-210.0","","","2-2","4960","40","1","Testing","Stims/Figures/93-C-30-1.bmp","na:lana","Down","40","3","14","4","S","J","62"
"","","approach-retreat","211","2126672","0.0-211.0","","","2-2","4092","37","0","Testing","Stims/Figures/74-J-10-4.bmp","tapa:ka","Left","39","3","15","4","P","J","63"
"","","approach-retreat","212","2132178","0.0-212.0","","","2-2","3988","38","1","Testing","Stims/Figures/27-C-30-1.bmp","na:mana","Up","38","3","16","4","S","J","64"
"","","approach-retreat","213","2138528","0.0-213.0","","","2-2","4852","37","1","Testing","Stims/Figures/111-C-30-3.bmp","mamala","Left","37","3","17","4","S","J","65"
"","","approach-retreat","214","2144186","0.0-214.0","","","2-2","4160","37","1","Testing","Stims/Figures/74-C-20-4.bmp","na:ma:na","Left","37","3","18","4","S","J","66"
"","","approach-retreat","215","2166746","0.0-215.0","","","2-2","21058","40","0","Testing","Stims/Figures/118-C-20-2.bmp","nama:la","Up","38","3","19","4","S","J","67"
"","","approach-retreat","216","2173268","0.0-216.0","","","2-2","5008","39","1","Testing","Stims/Figures/19-C-20-4.bmp","ma:ma:la","Right","39","3","20","4","S","J","68"
"","","approach-retreat","217","2181428","0.0-217.0","","","2-2","6648","39","0","Testing","Stims/Figures/139-J-0-2.bmp","ta:kaka","Right","37","3","21","4","P","J","69"
"","","approach-retreat","218","2188868","0.0-218.0","","","2-2","5922","38","0","Testing","Stims/Figures/57-C-30-1.bmp","nalana","Down","40","3","22","4","S","J","70"
"","","approach-retreat","219","2196910","0.0-219.0","","","2-2","6526","39","1","Testing","Stims/Figures/44-C-30-3.bmp","ma:la:la","Right","39","3","23","4","S","J","71"
"","","approach-retreat","220","2203358","0.0-220.0","","","2-2","4942","39","1","Testing","Stims/Figures/93-J-0-1.bmp","paka:ta","Left","39","3","24","4","P","J","72"
"","","approach-retreat","221","2209374","0.0-221.0","","","2-2","4518","40","0","Testing","Stims/Figures/44-J-10-3.bmp","pa:kaka","Down","38","4","1","4","P","J","73"
"","","approach-retreat","222","2215078","0.0-222.0","","","2-2","4202","38","0","Testing","Stims/Figures/93-J-0-1.bmp","paka:ta","Up","40","4","2","4","P","J","74"
"","","approach-retreat","223","2220622","0.0-223.0","","","2-2","4050","39","0","Testing","Stims/Figures/57-J-0-1.bmp","pa:pa:ta","Right","37","4","3","4","P","J","75"
"","","approach-retreat","224","2228754","0.0-224.0","","","2-2","6628","38","0","Testing","Stims/Figures/19-C-20-4.bmp","ma:ma:la","Down","40","4","4","4","S","J","76"
"","","approach-retreat","225","2237230","0.0-225.0","","","2-2","6956","39","0","Testing","Stims/Figures/84-C-20-2.bmp","malala","Left","37","4","5","4","S","J","77"
"","","approach-retreat","226","2243028","0.0-226.0","","","2-2","4298","38","1","Testing","Stims/Figures/111-J-10-3.bmp","ta:kata","Down","38","4","6","4","P","J","78"
"","","approach-retreat","227","2248758","0.0-227.0","","","2-2","4214","39","0","Testing","Stims/Figures/139-J-0-2.bmp","ta:kaka","Right","37","4","7","4","P","J","79"
"","","approach-retreat","228","2263230","0.0-228.0","","","2-2","12936","37","1","Testing","Stims/Figures/111-C-30-3.bmp","mamala","Left","37","4","8","4","S","J","80"
"","","approach-retreat","229","2292226","0.0-229.0","","","2-2","27494","38","0","Testing","Stims/Figures/102-J-10-4.bmp","pa:pa:ka","Up","40","4","9","4","P","J","81"
"","","approach-retreat","230","2309998","0.0-230.0","","","2-2","16248","39","0","Testing","Stims/Figures/27-J-0-1.bmp","tapaka","Right","37","4","10","4","P","J","82"
"","","approach-retreat","231","2316996","0.0-231.0","","","2-2","5474","39","1","Testing","Stims/Figures/118-J-0-2.bmp","pa:pata","Left","39","4","11","4","P","J","83"
"","","approach-retreat","232","2324948","0.0-232.0","","","2-2","6438","39","0","Testing","Stims/Figures/44-C-30-3.bmp","ma:la:la","Left","37","4","12","4","S","J","84"
"","","approach-retreat","233","2330998","0.0-233.0","","","2-2","4538","38","0","Testing","Stims/Figures/102-C-20-4.bmp","nala:la","Down","40","4","13","4","S","J","85"
"","","approach-retreat","234","2337674","0.0-234.0","","","2-2","5168","40","1","Testing","Stims/Figures/27-C-30-1.bmp","na:mana","Down","40","4","14","4","S","J","86"
"","","approach-retreat","235","2346016","0.0-235.0","","","2-2","6826","39","1","Testing","Stims/Figures/57-C-30-1.bmp","nalana","Right","39","4","15","4","S","J","87"
"","","approach-retreat","236","2352140","0.0-236.0","","","2-2","4604","39","0","Testing","Stims/Figures/93-C-30-1.bmp","na:lana","Left","37","4","16","4","S","J","88"
"","","approach-retreat","237","2358382","0.0-237.0","","","2-2","4728","38","0","Testing","Stims/Figures/74-C-20-4.bmp","na:ma:na","Down","40","4","17","4","S","J","89"
"","","approach-retreat","238","2366084","0.0-238.0","","","2-2","6196","38","1","Testing","Stims/Figures/139-C-20-2.bmp","mala:na","Up","38","4","18","4","S","J","90"
"","","approach-retreat","239","2371978","0.0-239.0","","","2-2","4384","39","1","Testing","Stims/Figures/100-J-10-3.bmp","pakata","Left","39","4","19","4","P","J","91"
"","","approach-retreat","240","2378184","0.0-240.0","","","2-2","4690","38","1","Testing","Stims/Figures/100-C-30-3.bmp","mama:na","Up","38","4","20","4","S","J","92"
"","","approach-retreat","241","2383522","0.0-241.0","","","2-2","3830","38","0","Testing","Stims/Figures/74-J-10-4.bmp","tapa:ka","Up","40","4","21","4","P","J","93"
"","","approach-retreat","242","2390864","0.0-242.0","","","2-2","5842","39","1","Testing","Stims/Figures/118-C-20-2.bmp","nama:la","Right","39","4","22","4","S","J","94"
"","","approach-retreat","243","2396828","0.0-243.0","","","2-2","4446","38","0","Testing","Stims/Figures/84-J-0-2.bmp","ta:ka:ka","Up","40","4","23","4","P","J","95"
"","","approach-retreat","244","2402766","0.0-244.0","","","2-2","4418","39","0","Testing","Stims/Figures/19-J-10-4.bmp","tapata","Right","37","4","24","4","P","J","96"
"40614","","survey-text","245","2443394","0.0-245.0","","{""Q0"":""1006/2018""}","","","","","","","","","","","","","","",""
