\"rt\",\"key_press\",\"trial_type\",\"trial_index\",\"time_elapsed\",\"internal_node_id\",\"view_history\",\"responses\",\"Id\",\"Rt\",\"ResKeyCode\",\"ResCorr\",\"TrialType2\",\"Image\",\"Label\",\"Location\",\"CorrectResponse\",\"Block\",\"BlockTrial\",\"Condition\",\"LabelType\",\"Subcondition\",\"trialNum\"
\"59755\",\"32\",\"text\",\"0\",\"59762\",\"0.0-0.0-0.0\",\"\",\"\",\"\",\"\",\"\",\"\",\"\",\"\",\"\",\"\",\"\",\"\",\"\",\"\",\"\",\"\",\"\"
\"119028\",\"\",\"instructions\",\"1\",\"178793\",\"0.0-1.0\",\"[{\"\"page_index\"\":0,\"\"viewing_time\"\":119027}]\",\"\",\"\",\"\",\"\",\"\",\"\",\"\",\"\",\"\",\"\",\"\",\"\",\"\",\"\",\"\",\"\"
\"42303\",\"\",\"survey-multi-choice\",\"2\",\"221117\",\"0.0-2.0\",\"\",\"{\"\"Q0\"\":\"\"Da\"\",\"\"Q1\"\":\"\"Da\"\",\"\"Q2\"\":\"\"Da\"\",\"\"Q3\"\":\"\"Da\"\",\"\"Q4\"\":\"\"Da\"\",\"\"Q5\"\":\"\"Da\"\"}\",\"\",\"\",\"\",\"\",\"\",\"\",\"\",\"\",\"\",\"\",\"\",\"\",\"\",\"\",\"\"
\"\",\"\",\"bio\",\"3\",\"227848\",\"0.0-3.0\",\"\",\"{\"\"age\"\":\"\"21\"\",\"\"gender\"\":\"\"f\"\",\"\"specify\"\":\"\"\"\"}\",\"\",\"\",\"\",\"\",\"\",\"\",\"\",\"\",\"\",\"\",\"\",\"\",\"\",\"\",\"\"
\"\",\"\",\"approach-retreat\",\"4\",\"235776\",\"0.0-4.0\",\"\",\"\",\"3-2\",\"6417\",\"39\",\"1\",\"Training\",\"Stims/Figures/74-C-20-4.bmp\",\"fafasha\",\"Right\",\"39\",\"1\",\"1\",\"6B\",\"C1\",\"J\",\"1\"
\"\",\"\",\"approach-retreat\",\"5\",\"242484\",\"0.0-5.0\",\"\",\"\",\"3-2\",\"5197\",\"37\",\"0\",\"Training\",\"Stims/Figures/27-J-0-1.bmp\",\"sa:ha:ha\",\"Left\",\"39\",\"1\",\"2\",\"6B\",\"C2\",\"J\",\"2\"
\"\",\"\",\"approach-retreat\",\"6\",\"248637\",\"0.0-6.0\",\"\",\"\",\"3-2\",\"4644\",\"39\",\"0\",\"Training\",\"Stims/Figures/144-C-30-3.bmp\",\"va:fa:sha\",\"Left\",\"37\",\"1\",\"3\",\"6B\",\"C1\",\"J\",\"3\"
\"\",\"\",\"approach-retreat\",\"7\",\"256428\",\"0.0-7.0\",\"\",\"\",\"3-2\",\"6283\",\"38\",\"1\",\"Training\",\"Stims/Figures/102-C-20-4.bmp\",\"vafava\",\"Up\",\"38\",\"1\",\"4\",\"6B\",\"C1\",\"J\",\"4\"
\"\",\"\",\"approach-retreat\",\"8\",\"263633\",\"0.0-8.0\",\"\",\"\",\"3-2\",\"5693\",\"38\",\"1\",\"Training\",\"Stims/Figures/44-C-30-3.bmp\",\"va:sha:va\",\"Up\",\"38\",\"1\",\"5\",\"6B\",\"C1\",\"J\",\"5\"
\"\",\"\",\"approach-retreat\",\"9\",\"270899\",\"0.0-9.0\",\"\",\"\",\"3-2\",\"5755\",\"38\",\"1\",\"Training\",\"Stims/Figures/44-J-10-3.bmp\",\"za:sa:ha\",\"Down\",\"38\",\"1\",\"6\",\"6B\",\"C2\",\"J\",\"6\"
\"\",\"\",\"approach-retreat\",\"10\",\"277961\",\"0.0-10.0\",\"\",\"\",\"3-2\",\"5554\",\"38\",\"0\",\"Training\",\"Stims/Figures/144-J-10-3.bmp\",\"za:haha\",\"Up\",\"40\",\"1\",\"7\",\"6B\",\"C2\",\"J\",\"7\"
\"\",\"\",\"approach-retreat\",\"11\",\"284748\",\"0.0-11.0\",\"\",\"\",\"3-2\",\"5278\",\"40\",\"0\",\"Training\",\"Stims/Figures/57-J-0-1.bmp\",\"sa:saha\",\"Down\",\"38\",\"1\",\"8\",\"6B\",\"C2\",\"J\",\"8\"
\"\",\"\",\"approach-retreat\",\"12\",\"292083\",\"0.0-12.0\",\"\",\"\",\"3-2\",\"5819\",\"40\",\"1\",\"Training\",\"Stims/Figures/84-C-20-2.bmp\",\"fasha:sha\",\"Down\",\"40\",\"1\",\"9\",\"6B\",\"C1\",\"J\",\"9\"
\"\",\"\",\"approach-retreat\",\"13\",\"299812\",\"0.0-13.0\",\"\",\"\",\"3-2\",\"6221\",\"39\",\"1\",\"Training\",\"Stims/Figures/84-J-0-2.bmp\",\"sasaza\",\"Left\",\"39\",\"1\",\"10\",\"6B\",\"C2\",\"J\",\"10\"
\"\",\"\",\"approach-retreat\",\"14\",\"305737\",\"0.0-14.0\",\"\",\"\",\"3-2\",\"4419\",\"37\",\"1\",\"Training\",\"Stims/Figures/57-C-30-1.bmp\",\"va:fasha\",\"Left\",\"37\",\"1\",\"11\",\"6B\",\"C1\",\"J\",\"11\"
\"\",\"\",\"approach-retreat\",\"15\",\"311754\",\"0.0-15.0\",\"\",\"\",\"3-2\",\"4511\",\"40\",\"1\",\"Training\",\"Stims/Figures/27-C-30-1.bmp\",\"fafava\",\"Down\",\"40\",\"1\",\"12\",\"6B\",\"C1\",\"J\",\"12\"
\"\",\"\",\"approach-retreat\",\"16\",\"317609\",\"0.0-16.0\",\"\",\"\",\"3-2\",\"4345\",\"39\",\"0\",\"Training\",\"Stims/Figures/85-J-0-2.bmp\",\"sasa:ha\",\"Right\",\"37\",\"1\",\"13\",\"6B\",\"C2\",\"J\",\"13\"
\"\",\"\",\"approach-retreat\",\"17\",\"323724\",\"0.0-17.0\",\"\",\"\",\"3-2\",\"4600\",\"40\",\"0\",\"Training\",\"Stims/Figures/85-C-20-2.bmp\",\"va:shasha\",\"Up\",\"38\",\"1\",\"14\",\"6B\",\"C1\",\"J\",\"14\"
\"\",\"\",\"approach-retreat\",\"18\",\"330171\",\"0.0-18.0\",\"\",\"\",\"3-2\",\"4941\",\"37\",\"1\",\"Training\",\"Stims/Figures/74-J-10-4.bmp\",\"zasa:ha\",\"Right\",\"37\",\"1\",\"15\",\"6B\",\"C2\",\"J\",\"15\"
\"\",\"\",\"approach-retreat\",\"19\",\"336443\",\"0.0-19.0\",\"\",\"\",\"3-2\",\"4769\",\"37\",\"1\",\"Training\",\"Stims/Figures/102-J-10-4.bmp\",\"zahaza\",\"Right\",\"37\",\"1\",\"16\",\"6B\",\"C2\",\"J\",\"16\"
\"\",\"\",\"approach-retreat\",\"20\",\"343234\",\"0.0-20.0\",\"\",\"\",\"3-2\",\"5278\",\"40\",\"0\",\"Training\",\"Stims/Figures/85-J-0-2.bmp\",\"sasa:ha\",\"Down\",\"38\",\"2\",\"1\",\"6B\",\"C2\",\"J\",\"17\"
\"\",\"\",\"approach-retreat\",\"21\",\"349667\",\"0.0-21.0\",\"\",\"\",\"3-2\",\"4923\",\"37\",\"0\",\"Training\",\"Stims/Figures/57-J-0-1.bmp\",\"sa:saha\",\"Left\",\"39\",\"2\",\"2\",\"6B\",\"C2\",\"J\",\"18\"
\"\",\"\",\"approach-retreat\",\"22\",\"355654\",\"0.0-22.0\",\"\",\"\",\"3-2\",\"4483\",\"39\",\"0\",\"Training\",\"Stims/Figures/27-C-30-1.bmp\",\"fafava\",\"Left\",\"37\",\"2\",\"3\",\"6B\",\"C1\",\"J\",\"19\"
\"\",\"\",\"approach-retreat\",\"23\",\"362665\",\"0.0-23.0\",\"\",\"\",\"3-2\",\"5505\",\"40\",\"1\",\"Training\",\"Stims/Figures/144-J-10-3.bmp\",\"za:haha\",\"Up\",\"40\",\"2\",\"4\",\"6B\",\"C2\",\"J\",\"20\"
\"\",\"\",\"approach-retreat\",\"24\",\"369083\",\"0.0-24.0\",\"\",\"\",\"3-2\",\"4907\",\"38\",\"0\",\"Training\",\"Stims/Figures/144-C-30-3.bmp\",\"va:fa:sha\",\"Down\",\"40\",\"2\",\"5\",\"6B\",\"C1\",\"J\",\"21\"
\"\",\"\",\"approach-retreat\",\"25\",\"375923\",\"0.0-25.0\",\"\",\"\",\"3-2\",\"5330\",\"37\",\"1\",\"Training\",\"Stims/Figures/27-J-0-1.bmp\",\"sa:ha:ha\",\"Right\",\"37\",\"2\",\"6\",\"6B\",\"C2\",\"J\",\"22\"
\"\",\"\",\"approach-retreat\",\"26\",\"384782\",\"0.0-26.0\",\"\",\"\",\"3-2\",\"7348\",\"39\",\"1\",\"Training\",\"Stims/Figures/102-J-10-4.bmp\",\"zahaza\",\"Left\",\"39\",\"2\",\"7\",\"6B\",\"C2\",\"J\",\"23\"
\"\",\"\",\"approach-retreat\",\"27\",\"391674\",\"0.0-27.0\",\"\",\"\",\"3-2\",\"5387\",\"38\",\"0\",\"Training\",\"Stims/Figures/84-J-0-2.bmp\",\"sasaza\",\"Up\",\"40\",\"2\",\"8\",\"6B\",\"C2\",\"J\",\"24\"
\"\",\"\",\"approach-retreat\",\"28\",\"399960\",\"0.0-28.0\",\"\",\"\",\"3-2\",\"6778\",\"40\",\"0\",\"Training\",\"Stims/Figures/84-C-20-2.bmp\",\"fasha:sha\",\"Up\",\"38\",\"2\",\"9\",\"6B\",\"C1\",\"J\",\"25\"
\"\",\"\",\"approach-retreat\",\"29\",\"407029\",\"0.0-29.0\",\"\",\"\",\"3-2\",\"5565\",\"40\",\"0\",\"Training\",\"Stims/Figures/74-J-10-4.bmp\",\"zasa:ha\",\"Down\",\"38\",\"2\",\"10\",\"6B\",\"C2\",\"J\",\"26\"
\"\",\"\",\"approach-retreat\",\"30\",\"417730\",\"0.0-30.0\",\"\",\"\",\"3-2\",\"9187\",\"39\",\"1\",\"Training\",\"Stims/Figures/44-C-30-3.bmp\",\"va:sha:va\",\"Right\",\"39\",\"2\",\"11\",\"6B\",\"C1\",\"J\",\"27\"
\"\",\"\",\"approach-retreat\",\"31\",\"423934\",\"0.0-31.0\",\"\",\"\",\"3-2\",\"4699\",\"37\",\"1\",\"Training\",\"Stims/Figures/57-C-30-1.bmp\",\"va:fasha\",\"Left\",\"37\",\"2\",\"12\",\"6B\",\"C1\",\"J\",\"28\"
\"\",\"\",\"approach-retreat\",\"32\",\"431969\",\"0.0-32.0\",\"\",\"\",\"3-2\",\"6527\",\"40\",\"1\",\"Training\",\"Stims/Figures/74-C-20-4.bmp\",\"fafasha\",\"Down\",\"40\",\"2\",\"13\",\"6B\",\"C1\",\"J\",\"29\"
\"\",\"\",\"approach-retreat\",\"33\",\"437788\",\"0.0-33.0\",\"\",\"\",\"3-2\",\"4315\",\"39\",\"1\",\"Training\",\"Stims/Figures/85-C-20-2.bmp\",\"va:shasha\",\"Right\",\"39\",\"2\",\"14\",\"6B\",\"C1\",\"J\",\"30\"
\"\",\"\",\"approach-retreat\",\"34\",\"444050\",\"0.0-34.0\",\"\",\"\",\"3-2\",\"4747\",\"38\",\"1\",\"Training\",\"Stims/Figures/102-C-20-4.bmp\",\"vafava\",\"Up\",\"38\",\"2\",\"15\",\"6B\",\"C1\",\"J\",\"31\"
\"\",\"\",\"approach-retreat\",\"35\",\"450019\",\"0.0-35.0\",\"\",\"\",\"3-2\",\"4456\",\"39\",\"0\",\"Training\",\"Stims/Figures/44-J-10-3.bmp\",\"za:sa:ha\",\"Right\",\"37\",\"2\",\"16\",\"6B\",\"C2\",\"J\",\"32\"
\"\",\"\",\"approach-retreat\",\"36\",\"455724\",\"0.0-36.0\",\"\",\"\",\"3-2\",\"4197\",\"40\",\"0\",\"Training\",\"Stims/Figures/85-J-0-2.bmp\",\"sasa:ha\",\"Down\",\"38\",\"3\",\"1\",\"6B\",\"C2\",\"J\",\"33\"
\"\",\"\",\"approach-retreat\",\"37\",\"461874\",\"0.0-37.0\",\"\",\"\",\"3-2\",\"4643\",\"38\",\"1\",\"Training\",\"Stims/Figures/102-C-20-4.bmp\",\"vafava\",\"Up\",\"38\",\"3\",\"2\",\"6B\",\"C1\",\"J\",\"34\"
\"\",\"\",\"approach-retreat\",\"38\",\"467943\",\"0.0-38.0\",\"\",\"\",\"3-2\",\"4560\",\"39\",\"1\",\"Training\",\"Stims/Figures/27-C-30-1.bmp\",\"fafava\",\"Right\",\"39\",\"3\",\"3\",\"6B\",\"C1\",\"J\",\"35\"
\"\",\"\",\"approach-retreat\",\"39\",\"475218\",\"0.0-39.0\",\"\",\"\",\"3-2\",\"5759\",\"40\",\"0\",\"Training\",\"Stims/Figures/27-J-0-1.bmp\",\"sa:ha:ha\",\"Down\",\"38\",\"3\",\"4\",\"6B\",\"C2\",\"J\",\"36\"
\"\",\"\",\"approach-retreat\",\"40\",\"483688\",\"0.0-40.0\",\"\",\"\",\"3-2\",\"6962\",\"39\",\"0\",\"Training\",\"Stims/Figures/74-C-20-4.bmp\",\"fafasha\",\"Left\",\"37\",\"3\",\"5\",\"6B\",\"C1\",\"J\",\"37\"
\"\",\"\",\"approach-retreat\",\"41\",\"491462\",\"0.0-41.0\",\"\",\"\",\"3-2\",\"6263\",\"39\",\"0\",\"Training\",\"Stims/Figures/84-J-0-2.bmp\",\"sasaza\",\"Right\",\"37\",\"3\",\"6\",\"6B\",\"C2\",\"J\",\"38\"
\"\",\"\",\"approach-retreat\",\"42\",\"497968\",\"0.0-42.0\",\"\",\"\",\"3-2\",\"4992\",\"40\",\"0\",\"Training\",\"Stims/Figures/84-C-20-2.bmp\",\"fasha:sha\",\"Up\",\"38\",\"3\",\"7\",\"6B\",\"C1\",\"J\",\"39\"
\"\",\"\",\"approach-retreat\",\"43\",\"505081\",\"0.0-43.0\",\"\",\"\",\"3-2\",\"5600\",\"40\",\"1\",\"Training\",\"Stims/Figures/144-J-10-3.bmp\",\"za:haha\",\"Up\",\"40\",\"3\",\"8\",\"6B\",\"C2\",\"J\",\"40\"
\"\",\"\",\"approach-retreat\",\"44\",\"510911\",\"0.0-44.0\",\"\",\"\",\"3-2\",\"4322\",\"39\",\"1\",\"Training\",\"Stims/Figures/44-J-10-3.bmp\",\"za:sa:ha\",\"Left\",\"39\",\"3\",\"9\",\"6B\",\"C2\",\"J\",\"41\"
\"\",\"\",\"approach-retreat\",\"45\",\"517742\",\"0.0-45.0\",\"\",\"\",\"3-2\",\"5325\",\"39\",\"0\",\"Training\",\"Stims/Figures/44-C-30-3.bmp\",\"va:sha:va\",\"Left\",\"37\",\"3\",\"10\",\"6B\",\"C1\",\"J\",\"42\"
\"\",\"\",\"approach-retreat\",\"46\",\"524444\",\"0.0-46.0\",\"\",\"\",\"3-2\",\"5195\",\"40\",\"0\",\"Training\",\"Stims/Figures/144-C-30-3.bmp\",\"va:fa:sha\",\"Up\",\"38\",\"3\",\"11\",\"6B\",\"C1\",\"J\",\"43\"
\"\",\"\",\"approach-retreat\",\"47\",\"532378\",\"0.0-47.0\",\"\",\"\",\"3-2\",\"6421\",\"38\",\"0\",\"Training\",\"Stims/Figures/85-C-20-2.bmp\",\"va:shasha\",\"Down\",\"40\",\"3\",\"12\",\"6B\",\"C1\",\"J\",\"44\"
\"\",\"\",\"approach-retreat\",\"48\",\"539007\",\"0.0-48.0\",\"\",\"\",\"3-2\",\"5122\",\"37\",\"1\",\"Training\",\"Stims/Figures/74-J-10-4.bmp\",\"zasa:ha\",\"Right\",\"37\",\"3\",\"13\",\"6B\",\"C2\",\"J\",\"45\"
\"\",\"\",\"approach-retreat\",\"49\",\"546636\",\"0.0-49.0\",\"\",\"\",\"3-2\",\"6118\",\"40\",\"1\",\"Training\",\"Stims/Figures/57-C-30-1.bmp\",\"va:fasha\",\"Down\",\"40\",\"3\",\"14\",\"6B\",\"C1\",\"J\",\"46\"
\"\",\"\",\"approach-retreat\",\"50\",\"553406\",\"0.0-50.0\",\"\",\"\",\"3-2\",\"5262\",\"37\",\"0\",\"Training\",\"Stims/Figures/57-J-0-1.bmp\",\"sa:saha\",\"Left\",\"39\",\"3\",\"15\",\"6B\",\"C2\",\"J\",\"47\"
\"\",\"\",\"approach-retreat\",\"51\",\"559504\",\"0.0-51.0\",\"\",\"\",\"3-2\",\"4595\",\"39\",\"0\",\"Training\",\"Stims/Figures/102-J-10-4.bmp\",\"zahaza\",\"Right\",\"37\",\"3\",\"16\",\"6B\",\"C2\",\"J\",\"48\"
\"\",\"\",\"approach-retreat\",\"52\",\"566696\",\"0.0-52.0\",\"\",\"\",\"3-2\",\"5677\",\"38\",\"1\",\"Training\",\"Stims/Figures/57-C-30-1.bmp\",\"va:fasha\",\"Up\",\"38\",\"4\",\"1\",\"6B\",\"C1\",\"J\",\"49\"
\"\",\"\",\"approach-retreat\",\"53\",\"573925\",\"0.0-53.0\",\"\",\"\",\"3-2\",\"5723\",\"40\",\"1\",\"Training\",\"Stims/Figures/74-C-20-4.bmp\",\"fafasha\",\"Down\",\"40\",\"4\",\"2\",\"6B\",\"C1\",\"J\",\"50\"
\"\",\"\",\"approach-retreat\",\"54\",\"583755\",\"0.0-54.0\",\"\",\"\",\"3-2\",\"8325\",\"39\",\"1\",\"Training\",\"Stims/Figures/102-J-10-4.bmp\",\"zahaza\",\"Left\",\"39\",\"4\",\"3\",\"6B\",\"C2\",\"J\",\"51\"
\"\",\"\",\"approach-retreat\",\"55\",\"591584\",\"0.0-55.0\",\"\",\"\",\"3-2\",\"6317\",\"39\",\"1\",\"Training\",\"Stims/Figures/85-J-0-2.bmp\",\"sasa:ha\",\"Left\",\"39\",\"4\",\"4\",\"6B\",\"C2\",\"J\",\"52\"
\"\",\"\",\"approach-retreat\",\"56\",\"600125\",\"0.0-56.0\",\"\",\"\",\"3-2\",\"7035\",\"38\",\"1\",\"Training\",\"Stims/Figures/74-J-10-4.bmp\",\"zasa:ha\",\"Down\",\"38\",\"4\",\"5\",\"6B\",\"C2\",\"J\",\"53\"
\"\",\"\",\"approach-retreat\",\"57\",\"606340\",\"0.0-57.0\",\"\",\"\",\"3-2\",\"4702\",\"37\",\"1\",\"Training\",\"Stims/Figures/44-J-10-3.bmp\",\"za:sa:ha\",\"Right\",\"37\",\"4\",\"6\",\"6B\",\"C2\",\"J\",\"54\"
\"\",\"\",\"approach-retreat\",\"58\",\"612434\",\"0.0-58.0\",\"\",\"\",\"3-2\",\"4583\",\"40\",\"0\",\"Training\",\"Stims/Figures/84-J-0-2.bmp\",\"sasaza\",\"Down\",\"38\",\"4\",\"7\",\"6B\",\"C2\",\"J\",\"55\"
\"\",\"\",\"approach-retreat\",\"59\",\"622014\",\"0.0-59.0\",\"\",\"\",\"3-2\",\"8077\",\"37\",\"1\",\"Training\",\"Stims/Figures/102-C-20-4.bmp\",\"vafava\",\"Left\",\"37\",\"4\",\"8\",\"6B\",\"C1\",\"J\",\"56\"
\"\",\"\",\"approach-retreat\",\"60\",\"628335\",\"0.0-60.0\",\"\",\"\",\"3-2\",\"4814\",\"40\",\"1\",\"Training\",\"Stims/Figures/57-J-0-1.bmp\",\"sa:saha\",\"Up\",\"40\",\"4\",\"9\",\"6B\",\"C2\",\"J\",\"57\"
\"\",\"\",\"approach-retreat\",\"61\",\"635274\",\"0.0-61.0\",\"\",\"\",\"3-2\",\"5432\",\"40\",\"1\",\"Training\",\"Stims/Figures/144-J-10-3.bmp\",\"za:haha\",\"Up\",\"40\",\"4\",\"10\",\"6B\",\"C2\",\"J\",\"58\"
\"\",\"\",\"approach-retreat\",\"62\",\"641170\",\"0.0-62.0\",\"\",\"\",\"3-2\",\"4385\",\"37\",\"1\",\"Training\",\"Stims/Figures/84-C-20-2.bmp\",\"fasha:sha\",\"Left\",\"37\",\"4\",\"11\",\"6B\",\"C1\",\"J\",\"59\"
\"\",\"\",\"approach-retreat\",\"63\",\"649022\",\"0.0-63.0\",\"\",\"\",\"3-2\",\"6343\",\"38\",\"1\",\"Training\",\"Stims/Figures/27-J-0-1.bmp\",\"sa:ha:ha\",\"Down\",\"38\",\"4\",\"12\",\"6B\",\"C2\",\"J\",\"60\"
\"\",\"\",\"approach-retreat\",\"64\",\"655708\",\"0.0-64.0\",\"\",\"\",\"3-2\",\"5179\",\"39\",\"1\",\"Training\",\"Stims/Figures/85-C-20-2.bmp\",\"va:shasha\",\"Right\",\"39\",\"4\",\"13\",\"6B\",\"C1\",\"J\",\"61\"
\"\",\"\",\"approach-retreat\",\"65\",\"662998\",\"0.0-65.0\",\"\",\"\",\"3-2\",\"5776\",\"38\",\"1\",\"Training\",\"Stims/Figures/144-C-30-3.bmp\",\"va:fa:sha\",\"Up\",\"38\",\"4\",\"14\",\"6B\",\"C1\",\"J\",\"62\"
\"\",\"\",\"approach-retreat\",\"66\",\"669435\",\"0.0-66.0\",\"\",\"\",\"3-2\",\"4929\",\"37\",\"0\",\"Training\",\"Stims/Figures/44-C-30-3.bmp\",\"va:sha:va\",\"Right\",\"39\",\"4\",\"15\",\"6B\",\"C1\",\"J\",\"63\"
\"\",\"\",\"approach-retreat\",\"67\",\"677158\",\"0.0-67.0\",\"\",\"\",\"3-2\",\"6217\",\"37\",\"0\",\"Training\",\"Stims/Figures/27-C-30-1.bmp\",\"fafava\",\"Right\",\"39\",\"4\",\"16\",\"6B\",\"C1\",\"J\",\"64\"
\"\",\"\",\"approach-retreat\",\"68\",\"683188\",\"0.0-68.0\",\"\",\"\",\"3-2\",\"4517\",\"38\",\"1\",\"Training\",\"Stims/Figures/144-J-10-3.bmp\",\"za:haha\",\"Down\",\"38\",\"5\",\"1\",\"6B\",\"C2\",\"J\",\"65\"
\"\",\"\",\"approach-retreat\",\"69\",\"690147\",\"0.0-69.0\",\"\",\"\",\"3-2\",\"5453\",\"40\",\"1\",\"Training\",\"Stims/Figures/27-J-0-1.bmp\",\"sa:ha:ha\",\"Up\",\"40\",\"5\",\"2\",\"6B\",\"C2\",\"J\",\"66\"
\"\",\"\",\"approach-retreat\",\"70\",\"698777\",\"0.0-70.0\",\"\",\"\",\"3-2\",\"7116\",\"40\",\"1\",\"Training\",\"Stims/Figures/27-C-30-1.bmp\",\"fafava\",\"Down\",\"40\",\"5\",\"3\",\"6B\",\"C1\",\"J\",\"67\"
\"\",\"\",\"approach-retreat\",\"71\",\"705249\",\"0.0-71.0\",\"\",\"\",\"3-2\",\"4963\",\"39\",\"1\",\"Training\",\"Stims/Figures/85-C-20-2.bmp\",\"va:shasha\",\"Right\",\"39\",\"5\",\"4\",\"6B\",\"C1\",\"J\",\"68\"
\"\",\"\",\"approach-retreat\",\"72\",\"712979\",\"0.0-72.0\",\"\",\"\",\"3-2\",\"6224\",\"38\",\"1\",\"Training\",\"Stims/Figures/102-C-20-4.bmp\",\"vafava\",\"Up\",\"38\",\"5\",\"5\",\"6B\",\"C1\",\"J\",\"69\"
\"\",\"\",\"approach-retreat\",\"73\",\"719276\",\"0.0-73.0\",\"\",\"\",\"3-2\",\"4792\",\"38\",\"1\",\"Training\",\"Stims/Figures/84-C-20-2.bmp\",\"fasha:sha\",\"Up\",\"38\",\"5\",\"6\",\"6B\",\"C1\",\"J\",\"70\"
\"\",\"\",\"approach-retreat\",\"74\",\"726591\",\"0.0-74.0\",\"\",\"\",\"3-2\",\"5804\",\"39\",\"1\",\"Training\",\"Stims/Figures/84-J-0-2.bmp\",\"sasaza\",\"Left\",\"39\",\"5\",\"7\",\"6B\",\"C2\",\"J\",\"71\"
\"\",\"\",\"approach-retreat\",\"75\",\"733173\",\"0.0-75.0\",\"\",\"\",\"3-2\",\"5075\",\"39\",\"1\",\"Training\",\"Stims/Figures/74-J-10-4.bmp\",\"zasa:ha\",\"Left\",\"39\",\"5\",\"8\",\"6B\",\"C2\",\"J\",\"72\"
\"\",\"\",\"approach-retreat\",\"76\",\"742126\",\"0.0-76.0\",\"\",\"\",\"3-2\",\"7447\",\"38\",\"0\",\"Training\",\"Stims/Figures/144-C-30-3.bmp\",\"va:fa:sha\",\"Down\",\"40\",\"5\",\"9\",\"6B\",\"C1\",\"J\",\"73\"
\"\",\"\",\"approach-retreat\",\"77\",\"748003\",\"0.0-77.0\",\"\",\"\",\"3-2\",\"4371\",\"38\",\"1\",\"Training\",\"Stims/Figures/85-J-0-2.bmp\",\"sasa:ha\",\"Down\",\"38\",\"5\",\"10\",\"6B\",\"C2\",\"J\",\"74\"
\"\",\"\",\"approach-retreat\",\"78\",\"754570\",\"0.0-78.0\",\"\",\"\",\"3-2\",\"5061\",\"37\",\"1\",\"Training\",\"Stims/Figures/102-J-10-4.bmp\",\"zahaza\",\"Right\",\"37\",\"5\",\"11\",\"6B\",\"C2\",\"J\",\"75\"
\"\",\"\",\"approach-retreat\",\"79\",\"760816\",\"0.0-79.0\",\"\",\"\",\"3-2\",\"4738\",\"39\",\"0\",\"Training\",\"Stims/Figures/57-C-30-1.bmp\",\"va:fasha\",\"Left\",\"37\",\"5\",\"12\",\"6B\",\"C1\",\"J\",\"76\"
\"\",\"\",\"approach-retreat\",\"80\",\"767094\",\"0.0-80.0\",\"\",\"\",\"3-2\",\"4773\",\"37\",\"1\",\"Training\",\"Stims/Figures/57-J-0-1.bmp\",\"sa:saha\",\"Right\",\"37\",\"5\",\"13\",\"6B\",\"C2\",\"J\",\"77\"
\"\",\"\",\"approach-retreat\",\"81\",\"774435\",\"0.0-81.0\",\"\",\"\",\"3-2\",\"5829\",\"39\",\"1\",\"Training\",\"Stims/Figures/44-C-30-3.bmp\",\"va:sha:va\",\"Right\",\"39\",\"5\",\"14\",\"6B\",\"C1\",\"J\",\"78\"
\"\",\"\",\"approach-retreat\",\"82\",\"780281\",\"0.0-82.0\",\"\",\"\",\"3-2\",\"4342\",\"40\",\"1\",\"Training\",\"Stims/Figures/44-J-10-3.bmp\",\"za:sa:ha\",\"Up\",\"40\",\"5\",\"15\",\"6B\",\"C2\",\"J\",\"79\"
\"\",\"\",\"approach-retreat\",\"83\",\"787156\",\"0.0-83.0\",\"\",\"\",\"3-2\",\"5370\",\"39\",\"0\",\"Training\",\"Stims/Figures/74-C-20-4.bmp\",\"fafasha\",\"Left\",\"37\",\"5\",\"16\",\"6B\",\"C1\",\"J\",\"80\"
\"\",\"\",\"approach-retreat\",\"84\",\"793265\",\"0.0-84.0\",\"\",\"\",\"3-2\",\"4601\",\"40\",\"1\",\"Training\",\"Stims/Figures/74-C-20-4.bmp\",\"fafasha\",\"Down\",\"40\",\"6\",\"1\",\"6B\",\"C1\",\"J\",\"81\"
\"\",\"\",\"approach-retreat\",\"85\",\"800657\",\"0.0-85.0\",\"\",\"\",\"3-2\",\"5880\",\"40\",\"1\",\"Training\",\"Stims/Figures/144-J-10-3.bmp\",\"za:haha\",\"Up\",\"40\",\"6\",\"2\",\"6B\",\"C2\",\"J\",\"82\"
\"\",\"\",\"approach-retreat\",\"86\",\"807299\",\"0.0-86.0\",\"\",\"\",\"3-2\",\"5130\",\"37\",\"1\",\"Training\",\"Stims/Figures/102-C-20-4.bmp\",\"vafava\",\"Left\",\"37\",\"6\",\"3\",\"6B\",\"C1\",\"J\",\"83\"
\"\",\"\",\"approach-retreat\",\"87\",\"813943\",\"0.0-87.0\",\"\",\"\",\"3-2\",\"5138\",\"38\",\"1\",\"Training\",\"Stims/Figures/57-J-0-1.bmp\",\"sa:saha\",\"Down\",\"38\",\"6\",\"4\",\"6B\",\"C2\",\"J\",\"84\"
\"\",\"\",\"approach-retreat\",\"88\",\"820823\",\"0.0-88.0\",\"\",\"\",\"3-2\",\"5365\",\"37\",\"1\",\"Training\",\"Stims/Figures/27-C-30-1.bmp\",\"fafava\",\"Left\",\"37\",\"6\",\"5\",\"6B\",\"C1\",\"J\",\"85\"
\"\",\"\",\"approach-retreat\",\"89\",\"826844\",\"0.0-89.0\",\"\",\"\",\"3-2\",\"4510\",\"37\",\"0\",\"Training\",\"Stims/Figures/84-C-20-2.bmp\",\"fasha:sha\",\"Right\",\"39\",\"6\",\"6\",\"6B\",\"C1\",\"J\",\"86\"
\"\",\"\",\"approach-retreat\",\"90\",\"835057\",\"0.0-90.0\",\"\",\"\",\"3-2\",\"6706\",\"40\",\"0\",\"Training\",\"Stims/Figures/85-C-20-2.bmp\",\"va:shasha\",\"Up\",\"38\",\"6\",\"7\",\"6B\",\"C1\",\"J\",\"87\"
\"\",\"\",\"approach-retreat\",\"91\",\"841508\",\"0.0-91.0\",\"\",\"\",\"3-2\",\"4939\",\"38\",\"1\",\"Training\",\"Stims/Figures/44-J-10-3.bmp\",\"za:sa:ha\",\"Down\",\"38\",\"6\",\"8\",\"6B\",\"C2\",\"J\",\"88\"
\"\",\"\",\"approach-retreat\",\"92\",\"848362\",\"0.0-92.0\",\"\",\"\",\"3-2\",\"5346\",\"37\",\"1\",\"Training\",\"Stims/Figures/27-J-0-1.bmp\",\"sa:ha:ha\",\"Right\",\"37\",\"6\",\"9\",\"6B\",\"C2\",\"J\",\"89\"
\"\",\"\",\"approach-retreat\",\"93\",\"856083\",\"0.0-93.0\",\"\",\"\",\"3-2\",\"6213\",\"37\",\"1\",\"Training\",\"Stims/Figures/57-C-30-1.bmp\",\"va:fasha\",\"Left\",\"37\",\"6\",\"10\",\"6B\",\"C1\",\"J\",\"90\"
\"\",\"\",\"approach-retreat\",\"94\",\"862381\",\"0.0-94.0\",\"\",\"\",\"3-2\",\"4791\",\"38\",\"0\",\"Training\",\"Stims/Figures/102-J-10-4.bmp\",\"zahaza\",\"Up\",\"40\",\"6\",\"11\",\"6B\",\"C2\",\"J\",\"91\"
\"\",\"\",\"approach-retreat\",\"95\",\"868519\",\"0.0-95.0\",\"\",\"\",\"3-2\",\"4628\",\"40\",\"1\",\"Training\",\"Stims/Figures/44-C-30-3.bmp\",\"va:sha:va\",\"Down\",\"40\",\"6\",\"12\",\"6B\",\"C1\",\"J\",\"92\"
\"\",\"\",\"approach-retreat\",\"96\",\"877610\",\"0.0-96.0\",\"\",\"\",\"3-2\",\"7582\",\"37\",\"0\",\"Training\",\"Stims/Figures/84-J-0-2.bmp\",\"sasaza\",\"Left\",\"39\",\"6\",\"13\",\"6B\",\"C2\",\"J\",\"93\"
\"\",\"\",\"approach-retreat\",\"97\",\"885533\",\"0.0-97.0\",\"\",\"\",\"3-2\",\"6410\",\"37\",\"1\",\"Training\",\"Stims/Figures/74-J-10-4.bmp\",\"zasa:ha\",\"Right\",\"37\",\"6\",\"14\",\"6B\",\"C2\",\"J\",\"94\"
\"\",\"\",\"approach-retreat\",\"98\",\"891551\",\"0.0-98.0\",\"\",\"\",\"3-2\",\"4512\",\"40\",\"1\",\"Training\",\"Stims/Figures/85-J-0-2.bmp\",\"sasa:ha\",\"Up\",\"40\",\"6\",\"15\",\"6B\",\"C2\",\"J\",\"95\"
\"\",\"\",\"approach-retreat\",\"99\",\"898569\",\"0.0-99.0\",\"\",\"\",\"3-2\",\"5503\",\"37\",\"0\",\"Training\",\"Stims/Figures/144-C-30-3.bmp\",\"va:fa:sha\",\"Right\",\"39\",\"6\",\"16\",\"6B\",\"C1\",\"J\",\"96\"
\"\",\"\",\"approach-retreat\",\"100\",\"904396\",\"0.0-100.0\",\"\",\"\",\"3-2\",\"4320\",\"37\",\"1\",\"Training\",\"Stims/Figures/74-J-10-4.bmp\",\"zasa:ha\",\"Right\",\"37\",\"7\",\"1\",\"6B\",\"C2\",\"J\",\"97\"
\"\",\"\",\"approach-retreat\",\"101\",\"910126\",\"0.0-101.0\",\"\",\"\",\"3-2\",\"4213\",\"37\",\"0\",\"Training\",\"Stims/Figures/84-J-0-2.bmp\",\"sasaza\",\"Left\",\"39\",\"7\",\"2\",\"6B\",\"C2\",\"J\",\"98\"
\"\",\"\",\"approach-retreat\",\"102\",\"917071\",\"0.0-102.0\",\"\",\"\",\"3-2\",\"5436\",\"40\",\"0\",\"Training\",\"Stims/Figures/102-J-10-4.bmp\",\"zahaza\",\"Down\",\"38\",\"7\",\"3\",\"6B\",\"C2\",\"J\",\"99\"
\"\",\"\",\"approach-retreat\",\"103\",\"923087\",\"0.0-103.0\",\"\",\"\",\"3-2\",\"4500\",\"40\",\"0\",\"Training\",\"Stims/Figures/144-C-30-3.bmp\",\"va:fa:sha\",\"Up\",\"38\",\"7\",\"4\",\"6B\",\"C1\",\"J\",\"100\"
\"\",\"\",\"approach-retreat\",\"104\",\"928786\",\"0.0-104.0\",\"\",\"\",\"3-2\",\"4195\",\"37\",\"1\",\"Training\",\"Stims/Figures/85-J-0-2.bmp\",\"sasa:ha\",\"Right\",\"37\",\"7\",\"5\",\"6B\",\"C2\",\"J\",\"101\"
\"\",\"\",\"approach-retreat\",\"105\",\"935441\",\"0.0-105.0\",\"\",\"\",\"3-2\",\"5143\",\"38\",\"1\",\"Training\",\"Stims/Figures/84-C-20-2.bmp\",\"fasha:sha\",\"Up\",\"38\",\"7\",\"6\",\"6B\",\"C1\",\"J\",\"102\"
\"\",\"\",\"approach-retreat\",\"106\",\"942135\",\"0.0-106.0\",\"\",\"\",\"3-2\",\"5188\",\"38\",\"0\",\"Training\",\"Stims/Figures/74-C-20-4.bmp\",\"fafasha\",\"Down\",\"40\",\"7\",\"7\",\"6B\",\"C1\",\"J\",\"103\"
\"\",\"\",\"approach-retreat\",\"107\",\"948522\",\"0.0-107.0\",\"\",\"\",\"3-2\",\"4875\",\"40\",\"1\",\"Training\",\"Stims/Figures/57-J-0-1.bmp\",\"sa:saha\",\"Up\",\"40\",\"7\",\"8\",\"6B\",\"C2\",\"J\",\"104\"
\"\",\"\",\"approach-retreat\",\"108\",\"954567\",\"0.0-108.0\",\"\",\"\",\"3-2\",\"4540\",\"37\",\"1\",\"Training\",\"Stims/Figures/44-C-30-3.bmp\",\"va:sha:va\",\"Left\",\"37\",\"7\",\"9\",\"6B\",\"C1\",\"J\",\"105\"
\"\",\"\",\"approach-retreat\",\"109\",\"960743\",\"0.0-109.0\",\"\",\"\",\"3-2\",\"4669\",\"38\",\"1\",\"Training\",\"Stims/Figures/102-C-20-4.bmp\",\"vafava\",\"Up\",\"38\",\"7\",\"10\",\"6B\",\"C1\",\"J\",\"106\"
\"\",\"\",\"approach-retreat\",\"110\",\"967047\",\"0.0-110.0\",\"\",\"\",\"3-2\",\"4790\",\"37\",\"1\",\"Training\",\"Stims/Figures/27-J-0-1.bmp\",\"sa:ha:ha\",\"Right\",\"37\",\"7\",\"11\",\"6B\",\"C2\",\"J\",\"107\"
\"\",\"\",\"approach-retreat\",\"111\",\"973054\",\"0.0-111.0\",\"\",\"\",\"3-2\",\"4492\",\"40\",\"1\",\"Training\",\"Stims/Figures/57-C-30-1.bmp\",\"va:fasha\",\"Down\",\"40\",\"7\",\"12\",\"6B\",\"C1\",\"J\",\"108\"
\"\",\"\",\"approach-retreat\",\"112\",\"978711\",\"0.0-112.0\",\"\",\"\",\"3-2\",\"4151\",\"38\",\"1\",\"Training\",\"Stims/Figures/44-J-10-3.bmp\",\"za:sa:ha\",\"Down\",\"38\",\"7\",\"13\",\"6B\",\"C2\",\"J\",\"109\"
\"\",\"\",\"approach-retreat\",\"113\",\"985030\",\"0.0-113.0\",\"\",\"\",\"3-2\",\"4814\",\"39\",\"1\",\"Training\",\"Stims/Figures/144-J-10-3.bmp\",\"za:haha\",\"Left\",\"39\",\"7\",\"14\",\"6B\",\"C2\",\"J\",\"110\"
\"\",\"\",\"approach-retreat\",\"114\",\"990477\",\"0.0-114.0\",\"\",\"\",\"3-2\",\"3938\",\"39\",\"0\",\"Training\",\"Stims/Figures/85-C-20-2.bmp\",\"va:shasha\",\"Left\",\"37\",\"7\",\"15\",\"6B\",\"C1\",\"J\",\"111\"
\"\",\"\",\"approach-retreat\",\"115\",\"997908\",\"0.0-115.0\",\"\",\"\",\"3-2\",\"5925\",\"39\",\"1\",\"Training\",\"Stims/Figures/27-C-30-1.bmp\",\"fafava\",\"Right\",\"39\",\"7\",\"16\",\"6B\",\"C1\",\"J\",\"112\"
\"\",\"\",\"approach-retreat\",\"116\",\"1003742\",\"0.0-116.0\",\"\",\"\",\"3-2\",\"4320\",\"38\",\"1\",\"Training\",\"Stims/Figures/44-J-10-3.bmp\",\"za:sa:ha\",\"Down\",\"38\",\"8\",\"1\",\"6B\",\"C2\",\"J\",\"113\"
\"\",\"\",\"approach-retreat\",\"117\",\"1012368\",\"0.0-117.0\",\"\",\"\",\"3-2\",\"7113\",\"40\",\"1\",\"Training\",\"Stims/Figures/57-C-30-1.bmp\",\"va:fasha\",\"Down\",\"40\",\"8\",\"2\",\"6B\",\"C1\",\"J\",\"114\"
\"\",\"\",\"approach-retreat\",\"118\",\"1020832\",\"0.0-118.0\",\"\",\"\",\"3-2\",\"6957\",\"39\",\"1\",\"Training\",\"Stims/Figures/57-J-0-1.bmp\",\"sa:saha\",\"Left\",\"39\",\"8\",\"3\",\"6B\",\"C2\",\"J\",\"115\"
\"\",\"\",\"approach-retreat\",\"119\",\"1028160\",\"0.0-119.0\",\"\",\"\",\"3-2\",\"5818\",\"39\",\"1\",\"Training\",\"Stims/Figures/144-C-30-3.bmp\",\"va:fa:sha\",\"Right\",\"39\",\"8\",\"4\",\"6B\",\"C1\",\"J\",\"116\"
\"\",\"\",\"approach-retreat\",\"120\",\"1035557\",\"0.0-120.0\",\"\",\"\",\"3-2\",\"5882\",\"40\",\"1\",\"Training\",\"Stims/Figures/84-J-0-2.bmp\",\"sasaza\",\"Up\",\"40\",\"8\",\"5\",\"6B\",\"C2\",\"J\",\"117\"
\"\",\"\",\"approach-retreat\",\"121\",\"1041754\",\"0.0-121.0\",\"\",\"\",\"3-2\",\"4684\",\"38\",\"1\",\"Training\",\"Stims/Figures/27-C-30-1.bmp\",\"fafava\",\"Up\",\"38\",\"8\",\"6\",\"6B\",\"C1\",\"J\",\"118\"
\"\",\"\",\"approach-retreat\",\"122\",\"1047532\",\"0.0-122.0\",\"\",\"\",\"3-2\",\"4266\",\"37\",\"1\",\"Training\",\"Stims/Figures/144-J-10-3.bmp\",\"za:haha\",\"Right\",\"37\",\"8\",\"7\",\"6B\",\"C2\",\"J\",\"119\"
\"\",\"\",\"approach-retreat\",\"123\",\"1053459\",\"0.0-123.0\",\"\",\"\",\"3-2\",\"4423\",\"38\",\"1\",\"Training\",\"Stims/Figures/74-C-20-4.bmp\",\"fafasha\",\"Up\",\"38\",\"8\",\"8\",\"6B\",\"C1\",\"J\",\"120\"
\"\",\"\",\"approach-retreat\",\"124\",\"1065092\",\"0.0-124.0\",\"\",\"\",\"3-2\",\"10128\",\"40\",\"0\",\"Training\",\"Stims/Figures/84-C-20-2.bmp\",\"fasha:sha\",\"Up\",\"38\",\"8\",\"9\",\"6B\",\"C1\",\"J\",\"121\"
\"\",\"\",\"approach-retreat\",\"125\",\"1071643\",\"0.0-125.0\",\"\",\"\",\"3-2\",\"5041\",\"38\",\"1\",\"Training\",\"Stims/Figures/74-J-10-4.bmp\",\"zasa:ha\",\"Down\",\"38\",\"8\",\"10\",\"6B\",\"C2\",\"J\",\"122\"
\"\",\"\",\"approach-retreat\",\"126\",\"1077296\",\"0.0-126.0\",\"\",\"\",\"3-2\",\"4147\",\"37\",\"1\",\"Training\",\"Stims/Figures/85-J-0-2.bmp\",\"sasa:ha\",\"Right\",\"37\",\"8\",\"11\",\"6B\",\"C2\",\"J\",\"123\"
\"\",\"\",\"approach-retreat\",\"127\",\"1083194\",\"0.0-127.0\",\"\",\"\",\"3-2\",\"4390\",\"38\",\"1\",\"Training\",\"Stims/Figures/27-J-0-1.bmp\",\"sa:ha:ha\",\"Down\",\"38\",\"8\",\"12\",\"6B\",\"C2\",\"J\",\"124\"
\"\",\"\",\"approach-retreat\",\"128\",\"1089125\",\"0.0-128.0\",\"\",\"\",\"3-2\",\"4423\",\"37\",\"1\",\"Training\",\"Stims/Figures/102-C-20-4.bmp\",\"vafava\",\"Left\",\"37\",\"8\",\"13\",\"6B\",\"C1\",\"J\",\"125\"
\"\",\"\",\"approach-retreat\",\"129\",\"1096697\",\"0.0-129.0\",\"\",\"\",\"3-2\",\"6062\",\"37\",\"0\",\"Training\",\"Stims/Figures/102-J-10-4.bmp\",\"zahaza\",\"Left\",\"39\",\"8\",\"14\",\"6B\",\"C2\",\"J\",\"126\"
\"\",\"\",\"approach-retreat\",\"130\",\"1104183\",\"0.0-130.0\",\"\",\"\",\"3-2\",\"5973\",\"37\",\"1\",\"Training\",\"Stims/Figures/44-C-30-3.bmp\",\"va:sha:va\",\"Left\",\"37\",\"8\",\"15\",\"6B\",\"C1\",\"J\",\"127\"
\"\",\"\",\"approach-retreat\",\"131\",\"1110576\",\"0.0-131.0\",\"\",\"\",\"3-2\",\"4878\",\"39\",\"1\",\"Training\",\"Stims/Figures/85-C-20-2.bmp\",\"va:shasha\",\"Right\",\"39\",\"8\",\"16\",\"6B\",\"C1\",\"J\",\"128\"
\"\",\"\",\"approach-retreat\",\"132\",\"1119372\",\"0.0-132.0\",\"\",\"\",\"3-2\",\"7291\",\"37\",\"1\",\"Training\",\"Stims/Figures/57-C-30-1.bmp\",\"va:fasha\",\"Left\",\"37\",\"9\",\"1\",\"6B\",\"C1\",\"J\",\"129\"
\"\",\"\",\"approach-retreat\",\"133\",\"1125055\",\"0.0-133.0\",\"\",\"\",\"3-2\",\"4170\",\"40\",\"1\",\"Training\",\"Stims/Figures/27-C-30-1.bmp\",\"fafava\",\"Down\",\"40\",\"9\",\"2\",\"6B\",\"C1\",\"J\",\"130\"
\"\",\"\",\"approach-retreat\",\"134\",\"1130459\",\"0.0-134.0\",\"\",\"\",\"3-2\",\"3896\",\"37\",\"1\",\"Training\",\"Stims/Figures/102-C-20-4.bmp\",\"vafava\",\"Left\",\"37\",\"9\",\"3\",\"6B\",\"C1\",\"J\",\"131\"
\"\",\"\",\"approach-retreat\",\"135\",\"1136141\",\"0.0-135.0\",\"\",\"\",\"3-2\",\"4175\",\"40\",\"1\",\"Training\",\"Stims/Figures/144-J-10-3.bmp\",\"za:haha\",\"Up\",\"40\",\"9\",\"4\",\"6B\",\"C2\",\"J\",\"132\"
\"\",\"\",\"approach-retreat\",\"136\",\"1141920\",\"0.0-136.0\",\"\",\"\",\"3-2\",\"4273\",\"40\",\"1\",\"Training\",\"Stims/Figures/74-C-20-4.bmp\",\"fafasha\",\"Down\",\"40\",\"9\",\"5\",\"6B\",\"C1\",\"J\",\"133\"
\"\",\"\",\"approach-retreat\",\"137\",\"1148714\",\"0.0-137.0\",\"\",\"\",\"3-2\",\"5290\",\"40\",\"1\",\"Training\",\"Stims/Figures/44-J-10-3.bmp\",\"za:sa:ha\",\"Up\",\"40\",\"9\",\"6\",\"6B\",\"C2\",\"J\",\"134\"
\"\",\"\",\"approach-retreat\",\"138\",\"1155115\",\"0.0-138.0\",\"\",\"\",\"3-2\",\"4890\",\"39\",\"1\",\"Training\",\"Stims/Figures/85-C-20-2.bmp\",\"va:shasha\",\"Right\",\"39\",\"9\",\"7\",\"6B\",\"C1\",\"J\",\"135\"
\"\",\"\",\"approach-retreat\",\"139\",\"1162408\",\"0.0-139.0\",\"\",\"\",\"3-2\",\"5783\",\"40\",\"0\",\"Training\",\"Stims/Figures/102-J-10-4.bmp\",\"zahaza\",\"Down\",\"38\",\"9\",\"8\",\"6B\",\"C2\",\"J\",\"136\"
\"\",\"\",\"approach-retreat\",\"140\",\"1168817\",\"0.0-140.0\",\"\",\"\",\"3-2\",\"4898\",\"37\",\"1\",\"Training\",\"Stims/Figures/57-J-0-1.bmp\",\"sa:saha\",\"Right\",\"37\",\"9\",\"9\",\"6B\",\"C2\",\"J\",\"137\"
\"\",\"\",\"approach-retreat\",\"141\",\"1174649\",\"0.0-141.0\",\"\",\"\",\"3-2\",\"4326\",\"37\",\"1\",\"Training\",\"Stims/Figures/74-J-10-4.bmp\",\"zasa:ha\",\"Right\",\"37\",\"9\",\"10\",\"6B\",\"C2\",\"J\",\"138\"
\"\",\"\",\"approach-retreat\",\"142\",\"1181715\",\"0.0-142.0\",\"\",\"\",\"3-2\",\"5563\",\"37\",\"1\",\"Training\",\"Stims/Figures/144-C-30-3.bmp\",\"va:fa:sha\",\"Left\",\"37\",\"9\",\"11\",\"6B\",\"C1\",\"J\",\"139\"
\"\",\"\",\"approach-retreat\",\"143\",\"1189470\",\"0.0-143.0\",\"\",\"\",\"3-2\",\"6243\",\"38\",\"1\",\"Training\",\"Stims/Figures/44-C-30-3.bmp\",\"va:sha:va\",\"Up\",\"38\",\"9\",\"12\",\"6B\",\"C1\",\"J\",\"140\"
\"\",\"\",\"approach-retreat\",\"144\",\"1195371\",\"0.0-144.0\",\"\",\"\",\"3-2\",\"4385\",\"40\",\"1\",\"Training\",\"Stims/Figures/85-J-0-2.bmp\",\"sasa:ha\",\"Up\",\"40\",\"9\",\"13\",\"6B\",\"C2\",\"J\",\"141\"
\"\",\"\",\"approach-retreat\",\"145\",\"1202025\",\"0.0-145.0\",\"\",\"\",\"3-2\",\"5139\",\"40\",\"0\",\"Training\",\"Stims/Figures/84-J-0-2.bmp\",\"sasaza\",\"Down\",\"38\",\"9\",\"14\",\"6B\",\"C2\",\"J\",\"142\"
\"\",\"\",\"approach-retreat\",\"146\",\"1208519\",\"0.0-146.0\",\"\",\"\",\"3-2\",\"4983\",\"39\",\"1\",\"Training\",\"Stims/Figures/27-J-0-1.bmp\",\"sa:ha:ha\",\"Left\",\"39\",\"9\",\"15\",\"6B\",\"C2\",\"J\",\"143\"
\"\",\"\",\"approach-retreat\",\"147\",\"1216606\",\"0.0-147.0\",\"\",\"\",\"3-2\",\"6571\",\"37\",\"0\",\"Training\",\"Stims/Figures/84-C-20-2.bmp\",\"fasha:sha\",\"Right\",\"39\",\"9\",\"16\",\"6B\",\"C1\",\"J\",\"144\"
\"18601\",\"\",\"instructions\",\"148\",\"1235208\",\"0.0-148.0\",\"[{\"\"page_index\"\":0,\"\"viewing_time\"\":18600}]\",\"\",\"\",\"\",\"\",\"\",\"\",\"\",\"\",\"\",\"\",\"\",\"\",\"\",\"\",\"\",\"\"
\"\",\"\",\"approach-retreat\",\"149\",\"1242739\",\"0.0-149.0\",\"\",\"\",\"3-2\",\"6026\",\"39\",\"1\",\"Testing\",\"Stims/Figures/27-J-0-1.bmp\",\"sa:ha:ha\",\"Left\",\"39\",\"1\",\"1\",\"6B\",\"C2\",\"J\",\"1\"
\"\",\"\",\"approach-retreat\",\"150\",\"1250803\",\"0.0-150.0\",\"\",\"\",\"3-2\",\"6557\",\"37\",\"0\",\"Testing\",\"Stims/Figures/118-C-20-2.bmp\",\"fa:sha:sha\",\"Right\",\"39\",\"1\",\"2\",\"6B\",\"C1\",\"J\",\"2\"
\"\",\"\",\"approach-retreat\",\"151\",\"1256451\",\"0.0-151.0\",\"\",\"\",\"3-2\",\"4146\",\"38\",\"1\",\"Testing\",\"Stims/Figures/44-C-30-3.bmp\",\"va:sha:va\",\"Up\",\"38\",\"1\",\"3\",\"6B\",\"C1\",\"J\",\"3\"
\"\",\"\",\"approach-retreat\",\"152\",\"1263560\",\"0.0-152.0\",\"\",\"\",\"3-2\",\"5602\",\"37\",\"1\",\"Testing\",\"Stims/Figures/27-C-30-1.bmp\",\"fafava\",\"Left\",\"37\",\"1\",\"4\",\"6B\",\"C1\",\"J\",\"4\"
\"\",\"\",\"approach-retreat\",\"153\",\"1269302\",\"0.0-153.0\",\"\",\"\",\"3-2\",\"4228\",\"39\",\"1\",\"Testing\",\"Stims/Figures/57-J-0-1.bmp\",\"sa:saha\",\"Left\",\"39\",\"1\",\"5\",\"6B\",\"C2\",\"J\",\"5\"
\"\",\"\",\"approach-retreat\",\"154\",\"1275304\",\"0.0-154.0\",\"\",\"\",\"3-2\",\"4498\",\"38\",\"0\",\"Testing\",\"Stims/Figures/102-J-10-4.bmp\",\"zahaza\",\"Up\",\"40\",\"1\",\"6\",\"6B\",\"C2\",\"J\",\"6\"
\"\",\"\",\"approach-retreat\",\"155\",\"1281878\",\"0.0-155.0\",\"\",\"\",\"3-2\",\"5068\",\"40\",\"0\",\"Testing\",\"Stims/Figures/87-C-20-4.bmp\",\"fa:fa:sha\",\"Up\",\"38\",\"1\",\"7\",\"6B\",\"C1\",\"J\",\"7\"
\"\",\"\",\"approach-retreat\",\"156\",\"1291819\",\"0.0-156.0\",\"\",\"\",\"3-2\",\"8436\",\"37\",\"1\",\"Testing\",\"Stims/Figures/85-C-20-2.bmp\",\"va:shasha\",\"Left\",\"37\",\"1\",\"8\",\"6B\",\"C1\",\"J\",\"8\"
\"\",\"\",\"approach-retreat\",\"157\",\"1297700\",\"0.0-157.0\",\"\",\"\",\"3-2\",\"4375\",\"39\",\"1\",\"Testing\",\"Stims/Figures/102-C-20-4.bmp\",\"vafava\",\"Right\",\"39\",\"1\",\"9\",\"6B\",\"C1\",\"J\",\"9\"
\"\",\"\",\"approach-retreat\",\"158\",\"1307965\",\"0.0-158.0\",\"\",\"\",\"3-2\",\"8759\",\"39\",\"0\",\"Testing\",\"Stims/Figures/111-J-10-3.bmp\",\"sasaha\",\"Right\",\"37\",\"1\",\"10\",\"6B\",\"C2\",\"J\",\"10\"
\"\",\"\",\"approach-retreat\",\"159\",\"1313642\",\"0.0-159.0\",\"\",\"\",\"3-2\",\"4164\",\"39\",\"0\",\"Testing\",\"Stims/Figures/57-C-30-1.bmp\",\"va:fasha\",\"Left\",\"37\",\"1\",\"11\",\"6B\",\"C1\",\"J\",\"11\"
\"\",\"\",\"approach-retreat\",\"160\",\"1319647\",\"0.0-160.0\",\"\",\"\",\"3-2\",\"4493\",\"38\",\"1\",\"Testing\",\"Stims/Figures/44-J-10-3.bmp\",\"za:sa:ha\",\"Down\",\"38\",\"1\",\"12\",\"6B\",\"C2\",\"J\",\"12\"
\"\",\"\",\"approach-retreat\",\"161\",\"1325926\",\"0.0-161.0\",\"\",\"\",\"3-2\",\"4772\",\"40\",\"1\",\"Testing\",\"Stims/Figures/71-J-0-1.bmp\",\"zahaha\",\"Up\",\"40\",\"1\",\"13\",\"6B\",\"C2\",\"J\",\"13\"
\"\",\"\",\"approach-retreat\",\"162\",\"1335401\",\"0.0-162.0\",\"\",\"\",\"3-2\",\"7970\",\"40\",\"1\",\"Testing\",\"Stims/Figures/71-C-30-1.bmp\",\"fa:shava\",\"Down\",\"40\",\"1\",\"14\",\"6B\",\"C1\",\"J\",\"14\"
\"\",\"\",\"approach-retreat\",\"163\",\"1341211\",\"0.0-163.0\",\"\",\"\",\"3-2\",\"4300\",\"40\",\"1\",\"Testing\",\"Stims/Figures/84-J-0-2.bmp\",\"sasaza\",\"Up\",\"40\",\"1\",\"15\",\"6B\",\"C2\",\"J\",\"15\"
\"\",\"\",\"approach-retreat\",\"164\",\"1347274\",\"0.0-164.0\",\"\",\"\",\"3-2\",\"4559\",\"38\",\"1\",\"Testing\",\"Stims/Figures/144-J-10-3.bmp\",\"za:haha\",\"Down\",\"38\",\"1\",\"16\",\"6B\",\"C2\",\"J\",\"16\"
\"\",\"\",\"approach-retreat\",\"165\",\"1354612\",\"0.0-165.0\",\"\",\"\",\"3-2\",\"5825\",\"37\",\"0\",\"Testing\",\"Stims/Figures/118-J-0-2.bmp\",\"zasaha\",\"Left\",\"39\",\"1\",\"17\",\"6B\",\"C2\",\"J\",\"17\"
\"\",\"\",\"approach-retreat\",\"166\",\"1360980\",\"0.0-166.0\",\"\",\"\",\"3-2\",\"4865\",\"38\",\"1\",\"Testing\",\"Stims/Figures/85-J-0-2.bmp\",\"sasa:ha\",\"Down\",\"38\",\"1\",\"18\",\"6B\",\"C2\",\"J\",\"18\"
\"\",\"\",\"approach-retreat\",\"167\",\"1373053\",\"0.0-167.0\",\"\",\"\",\"3-2\",\"10560\",\"39\",\"1\",\"Testing\",\"Stims/Figures/111-C-30-3.bmp\",\"vafa:va\",\"Right\",\"39\",\"1\",\"19\",\"6B\",\"C1\",\"J\",\"19\"
\"\",\"\",\"approach-retreat\",\"168\",\"1378918\",\"0.0-168.0\",\"\",\"\",\"3-2\",\"4356\",\"40\",\"0\",\"Testing\",\"Stims/Figures/144-C-30-3.bmp\",\"va:fa:sha\",\"Up\",\"38\",\"1\",\"20\",\"6B\",\"C1\",\"J\",\"20\"
\"\",\"\",\"approach-retreat\",\"169\",\"1385820\",\"0.0-169.0\",\"\",\"\",\"3-2\",\"5396\",\"40\",\"0\",\"Testing\",\"Stims/Figures/87-J-10-4.bmp\",\"saha:ha\",\"Down\",\"38\",\"1\",\"21\",\"6B\",\"C2\",\"J\",\"21\"
\"\",\"\",\"approach-retreat\",\"170\",\"1391696\",\"0.0-170.0\",\"\",\"\",\"3-2\",\"4364\",\"37\",\"0\",\"Testing\",\"Stims/Figures/74-C-20-4.bmp\",\"fafasha\",\"Right\",\"39\",\"1\",\"22\",\"6B\",\"C1\",\"J\",\"22\"
\"\",\"\",\"approach-retreat\",\"171\",\"1397718\",\"0.0-171.0\",\"\",\"\",\"3-2\",\"4513\",\"38\",\"1\",\"Testing\",\"Stims/Figures/74-J-10-4.bmp\",\"zasa:ha\",\"Down\",\"38\",\"1\",\"23\",\"6B\",\"C2\",\"J\",\"23\"
\"\",\"\",\"approach-retreat\",\"172\",\"1403720\",\"0.0-172.0\",\"\",\"\",\"3-2\",\"4488\",\"37\",\"0\",\"Testing\",\"Stims/Figures/84-C-20-2.bmp\",\"fasha:sha\",\"Right\",\"39\",\"1\",\"24\",\"6B\",\"C1\",\"J\",\"24\"
\"\",\"\",\"approach-retreat\",\"173\",\"1409584\",\"0.0-173.0\",\"\",\"\",\"3-2\",\"4354\",\"39\",\"1\",\"Testing\",\"Stims/Figures/102-C-20-4.bmp\",\"vafava\",\"Right\",\"39\",\"2\",\"1\",\"6B\",\"C1\",\"J\",\"25\"
\"\",\"\",\"approach-retreat\",\"174\",\"1415407\",\"0.0-174.0\",\"\",\"\",\"3-2\",\"4313\",\"40\",\"1\",\"Testing\",\"Stims/Figures/57-J-0-1.bmp\",\"sa:saha\",\"Up\",\"40\",\"2\",\"2\",\"6B\",\"C2\",\"J\",\"26\"
\"\",\"\",\"approach-retreat\",\"175\",\"1421134\",\"0.0-175.0\",\"\",\"\",\"3-2\",\"4219\",\"40\",\"0\",\"Testing\",\"Stims/Figures/102-J-10-4.bmp\",\"zahaza\",\"Down\",\"38\",\"2\",\"3\",\"6B\",\"C2\",\"J\",\"27\"
\"\",\"\",\"approach-retreat\",\"176\",\"1428279\",\"0.0-176.0\",\"\",\"\",\"3-2\",\"5635\",\"37\",\"0\",\"Testing\",\"Stims/Figures/111-J-10-3.bmp\",\"sasaha\",\"Left\",\"39\",\"2\",\"4\",\"6B\",\"C2\",\"J\",\"28\"
\"\",\"\",\"approach-retreat\",\"177\",\"1434153\",\"0.0-177.0\",\"\",\"\",\"3-2\",\"4364\",\"39\",\"0\",\"Testing\",\"Stims/Figures/74-C-20-4.bmp\",\"fafasha\",\"Left\",\"37\",\"2\",\"5\",\"6B\",\"C1\",\"J\",\"29\"
\"\",\"\",\"approach-retreat\",\"178\",\"1439844\",\"0.0-178.0\",\"\",\"\",\"3-2\",\"4184\",\"39\",\"1\",\"Testing\",\"Stims/Figures/85-J-0-2.bmp\",\"sasa:ha\",\"Left\",\"39\",\"2\",\"6\",\"6B\",\"C2\",\"J\",\"30\"
\"\",\"\",\"approach-retreat\",\"179\",\"1445924\",\"0.0-179.0\",\"\",\"\",\"3-2\",\"4572\",\"38\",\"0\",\"Testing\",\"Stims/Figures/144-C-30-3.bmp\",\"va:fa:sha\",\"Down\",\"40\",\"2\",\"7\",\"6B\",\"C1\",\"J\",\"31\"
\"\",\"\",\"approach-retreat\",\"180\",\"1451667\",\"0.0-180.0\",\"\",\"\",\"3-2\",\"4238\",\"40\",\"0\",\"Testing\",\"Stims/Figures/87-J-10-4.bmp\",\"saha:ha\",\"Down\",\"38\",\"2\",\"8\",\"6B\",\"C2\",\"J\",\"32\"
\"\",\"\",\"approach-retreat\",\"181\",\"1457597\",\"0.0-181.0\",\"\",\"\",\"3-2\",\"4424\",\"40\",\"1\",\"Testing\",\"Stims/Figures/84-J-0-2.bmp\",\"sasaza\",\"Up\",\"40\",\"2\",\"9\",\"6B\",\"C2\",\"J\",\"33\"
\"\",\"\",\"approach-retreat\",\"182\",\"1463814\",\"0.0-182.0\",\"\",\"\",\"3-2\",\"4711\",\"38\",\"1\",\"Testing\",\"Stims/Figures/87-C-20-4.bmp\",\"fa:fa:sha\",\"Up\",\"38\",\"2\",\"10\",\"6B\",\"C1\",\"J\",\"34\"
\"\",\"\",\"approach-retreat\",\"183\",\"1469833\",\"0.0-183.0\",\"\",\"\",\"3-2\",\"4515\",\"38\",\"1\",\"Testing\",\"Stims/Figures/27-C-30-1.bmp\",\"fafava\",\"Up\",\"38\",\"2\",\"11\",\"6B\",\"C1\",\"J\",\"35\"
\"\",\"\",\"approach-retreat\",\"184\",\"1475870\",\"0.0-184.0\",\"\",\"\",\"3-2\",\"4530\",\"39\",\"1\",\"Testing\",\"Stims/Figures/71-C-30-1.bmp\",\"fa:shava\",\"Right\",\"39\",\"2\",\"12\",\"6B\",\"C1\",\"J\",\"36\"
\"\",\"\",\"approach-retreat\",\"185\",\"1481837\",\"0.0-185.0\",\"\",\"\",\"3-2\",\"4456\",\"38\",\"1\",\"Testing\",\"Stims/Figures/84-C-20-2.bmp\",\"fasha:sha\",\"Up\",\"38\",\"2\",\"13\",\"6B\",\"C1\",\"J\",\"37\"
\"\",\"\",\"approach-retreat\",\"186\",\"1488435\",\"0.0-186.0\",\"\",\"\",\"3-2\",\"5088\",\"37\",\"1\",\"Testing\",\"Stims/Figures/44-C-30-3.bmp\",\"va:sha:va\",\"Left\",\"37\",\"2\",\"14\",\"6B\",\"C1\",\"J\",\"38\"
\"\",\"\",\"approach-retreat\",\"187\",\"1497199\",\"0.0-187.0\",\"\",\"\",\"3-2\",\"7253\",\"39\",\"1\",\"Testing\",\"Stims/Figures/118-C-20-2.bmp\",\"fa:sha:sha\",\"Right\",\"39\",\"2\",\"15\",\"6B\",\"C1\",\"J\",\"39\"
\"\",\"\",\"approach-retreat\",\"188\",\"1503020\",\"0.0-188.0\",\"\",\"\",\"3-2\",\"4310\",\"37\",\"1\",\"Testing\",\"Stims/Figures/118-J-0-2.bmp\",\"zasaha\",\"Right\",\"37\",\"2\",\"16\",\"6B\",\"C2\",\"J\",\"40\"
\"\",\"\",\"approach-retreat\",\"189\",\"1508999\",\"0.0-189.0\",\"\",\"\",\"3-2\",\"4474\",\"39\",\"1\",\"Testing\",\"Stims/Figures/144-J-10-3.bmp\",\"za:haha\",\"Left\",\"39\",\"2\",\"17\",\"6B\",\"C2\",\"J\",\"41\"
\"\",\"\",\"approach-retreat\",\"190\",\"1514806\",\"0.0-190.0\",\"\",\"\",\"3-2\",\"4296\",\"38\",\"1\",\"Testing\",\"Stims/Figures/44-J-10-3.bmp\",\"za:sa:ha\",\"Down\",\"38\",\"2\",\"18\",\"6B\",\"C2\",\"J\",\"42\"
\"\",\"\",\"approach-retreat\",\"191\",\"1522554\",\"0.0-191.0\",\"\",\"\",\"3-2\",\"6243\",\"39\",\"0\",\"Testing\",\"Stims/Figures/85-C-20-2.bmp\",\"va:shasha\",\"Left\",\"37\",\"2\",\"19\",\"6B\",\"C1\",\"J\",\"43\"
\"\",\"\",\"approach-retreat\",\"192\",\"1528543\",\"0.0-192.0\",\"\",\"\",\"3-2\",\"4478\",\"37\",\"1\",\"Testing\",\"Stims/Figures/27-J-0-1.bmp\",\"sa:ha:ha\",\"Right\",\"37\",\"2\",\"20\",\"6B\",\"C2\",\"J\",\"44\"
\"\",\"\",\"approach-retreat\",\"193\",\"1534445\",\"0.0-193.0\",\"\",\"\",\"3-2\",\"4391\",\"40\",\"1\",\"Testing\",\"Stims/Figures/111-C-30-3.bmp\",\"vafa:va\",\"Down\",\"40\",\"2\",\"21\",\"6B\",\"C1\",\"J\",\"45\"
\"\",\"\",\"approach-retreat\",\"194\",\"1540496\",\"0.0-194.0\",\"\",\"\",\"3-2\",\"4539\",\"38\",\"1\",\"Testing\",\"Stims/Figures/71-J-0-1.bmp\",\"zahaha\",\"Down\",\"38\",\"2\",\"22\",\"6B\",\"C2\",\"J\",\"46\"
\"\",\"\",\"approach-retreat\",\"195\",\"1546417\",\"0.0-195.0\",\"\",\"\",\"3-2\",\"4415\",\"40\",\"1\",\"Testing\",\"Stims/Figures/74-J-10-4.bmp\",\"zasa:ha\",\"Up\",\"40\",\"2\",\"23\",\"6B\",\"C2\",\"J\",\"47\"
\"\",\"\",\"approach-retreat\",\"196\",\"1554475\",\"0.0-196.0\",\"\",\"\",\"3-2\",\"6553\",\"37\",\"0\",\"Testing\",\"Stims/Figures/57-C-30-1.bmp\",\"va:fasha\",\"Right\",\"39\",\"2\",\"24\",\"6B\",\"C1\",\"J\",\"48\"
\"\",\"\",\"approach-retreat\",\"197\",\"1560160\",\"0.0-197.0\",\"\",\"\",\"3-2\",\"4174\",\"37\",\"1\",\"Testing\",\"Stims/Figures/44-J-10-3.bmp\",\"za:sa:ha\",\"Right\",\"37\",\"3\",\"1\",\"6B\",\"C2\",\"J\",\"49\"
\"\",\"\",\"approach-retreat\",\"198\",\"1566605\",\"0.0-198.0\",\"\",\"\",\"3-2\",\"4933\",\"39\",\"1\",\"Testing\",\"Stims/Figures/84-J-0-2.bmp\",\"sasaza\",\"Left\",\"39\",\"3\",\"2\",\"6B\",\"C2\",\"J\",\"50\"
\"\",\"\",\"approach-retreat\",\"199\",\"1572427\",\"0.0-199.0\",\"\",\"\",\"3-2\",\"4316\",\"38\",\"1\",\"Testing\",\"Stims/Figures/27-C-30-1.bmp\",\"fafava\",\"Up\",\"38\",\"3\",\"3\",\"6B\",\"C1\",\"J\",\"51\"
\"\",\"\",\"approach-retreat\",\"200\",\"1578705\",\"0.0-200.0\",\"\",\"\",\"3-2\",\"4773\",\"38\",\"0\",\"Testing\",\"Stims/Figures/87-J-10-4.bmp\",\"saha:ha\",\"Up\",\"40\",\"3\",\"4\",\"6B\",\"C2\",\"J\",\"52\"
\"\",\"\",\"approach-retreat\",\"201\",\"1584447\",\"0.0-201.0\",\"\",\"\",\"3-2\",\"4240\",\"40\",\"1\",\"Testing\",\"Stims/Figures/84-C-20-2.bmp\",\"fasha:sha\",\"Down\",\"40\",\"3\",\"5\",\"6B\",\"C1\",\"J\",\"53\"
\"\",\"\",\"approach-retreat\",\"202\",\"1590199\",\"0.0-202.0\",\"\",\"\",\"3-2\",\"4244\",\"40\",\"1\",\"Testing\",\"Stims/Figures/71-C-30-1.bmp\",\"fa:shava\",\"Down\",\"40\",\"3\",\"6\",\"6B\",\"C1\",\"J\",\"54\"
\"\",\"\",\"approach-retreat\",\"203\",\"1595899\",\"0.0-203.0\",\"\",\"\",\"3-2\",\"4187\",\"37\",\"1\",\"Testing\",\"Stims/Figures/102-C-20-4.bmp\",\"vafava\",\"Left\",\"37\",\"3\",\"7\",\"6B\",\"C1\",\"J\",\"55\"
\"\",\"\",\"approach-retreat\",\"204\",\"1601801\",\"0.0-204.0\",\"\",\"\",\"3-2\",\"4389\",\"38\",\"0\",\"Testing\",\"Stims/Figures/102-J-10-4.bmp\",\"zahaza\",\"Up\",\"40\",\"3\",\"8\",\"6B\",\"C2\",\"J\",\"56\"
\"\",\"\",\"approach-retreat\",\"205\",\"1607367\",\"0.0-205.0\",\"\",\"\",\"3-2\",\"4055\",\"37\",\"0\",\"Testing\",\"Stims/Figures/57-C-30-1.bmp\",\"va:fasha\",\"Right\",\"39\",\"3\",\"9\",\"6B\",\"C1\",\"J\",\"57\"
\"\",\"\",\"approach-retreat\",\"206\",\"1613236\",\"0.0-206.0\",\"\",\"\",\"3-2\",\"4357\",\"38\",\"1\",\"Testing\",\"Stims/Figures/144-J-10-3.bmp\",\"za:haha\",\"Down\",\"38\",\"3\",\"10\",\"6B\",\"C2\",\"J\",\"58\"
\"\",\"\",\"approach-retreat\",\"207\",\"1619260\",\"0.0-207.0\",\"\",\"\",\"3-2\",\"4515\",\"40\",\"1\",\"Testing\",\"Stims/Figures/118-C-20-2.bmp\",\"fa:sha:sha\",\"Down\",\"40\",\"3\",\"11\",\"6B\",\"C1\",\"J\",\"59\"
\"\",\"\",\"approach-retreat\",\"208\",\"1625150\",\"0.0-208.0\",\"\",\"\",\"3-2\",\"4383\",\"38\",\"1\",\"Testing\",\"Stims/Figures/57-J-0-1.bmp\",\"sa:saha\",\"Down\",\"38\",\"3\",\"12\",\"6B\",\"C2\",\"J\",\"60\"
\"\",\"\",\"approach-retreat\",\"209\",\"1631386\",\"0.0-209.0\",\"\",\"\",\"3-2\",\"4724\",\"37\",\"1\",\"Testing\",\"Stims/Figures/27-J-0-1.bmp\",\"sa:ha:ha\",\"Right\",\"37\",\"3\",\"13\",\"6B\",\"C2\",\"J\",\"61\"
\"\",\"\",\"approach-retreat\",\"210\",\"1637482\",\"0.0-210.0\",\"\",\"\",\"3-2\",\"4585\",\"40\",\"1\",\"Testing\",\"Stims/Figures/85-J-0-2.bmp\",\"sasa:ha\",\"Up\",\"40\",\"3\",\"14\",\"6B\",\"C2\",\"J\",\"62\"
\"\",\"\",\"approach-retreat\",\"211\",\"1643569\",\"0.0-211.0\",\"\",\"\",\"3-2\",\"4580\",\"39\",\"1\",\"Testing\",\"Stims/Figures/87-C-20-4.bmp\",\"fa:fa:sha\",\"Right\",\"39\",\"3\",\"15\",\"6B\",\"C1\",\"J\",\"63\"
\"\",\"\",\"approach-retreat\",\"212\",\"1649392\",\"0.0-212.0\",\"\",\"\",\"3-2\",\"4317\",\"38\",\"1\",\"Testing\",\"Stims/Figures/44-C-30-3.bmp\",\"va:sha:va\",\"Up\",\"38\",\"3\",\"16\",\"6B\",\"C1\",\"J\",\"64\"
\"\",\"\",\"approach-retreat\",\"213\",\"1655251\",\"0.0-213.0\",\"\",\"\",\"3-2\",\"4355\",\"37\",\"0\",\"Testing\",\"Stims/Figures/144-C-30-3.bmp\",\"va:fa:sha\",\"Right\",\"39\",\"3\",\"17\",\"6B\",\"C1\",\"J\",\"65\"
\"\",\"\",\"approach-retreat\",\"214\",\"1661079\",\"0.0-214.0\",\"\",\"\",\"3-2\",\"4316\",\"37\",\"0\",\"Testing\",\"Stims/Figures/74-C-20-4.bmp\",\"fafasha\",\"Right\",\"39\",\"3\",\"18\",\"6B\",\"C1\",\"J\",\"66\"
\"\",\"\",\"approach-retreat\",\"215\",\"1669015\",\"0.0-215.0\",\"\",\"\",\"3-2\",\"6430\",\"37\",\"0\",\"Testing\",\"Stims/Figures/111-J-10-3.bmp\",\"sasaha\",\"Left\",\"39\",\"3\",\"19\",\"6B\",\"C2\",\"J\",\"67\"
\"\",\"\",\"approach-retreat\",\"216\",\"1675699\",\"0.0-216.0\",\"\",\"\",\"3-2\",\"5170\",\"39\",\"1\",\"Testing\",\"Stims/Figures/74-J-10-4.bmp\",\"zasa:ha\",\"Left\",\"39\",\"3\",\"20\",\"6B\",\"C2\",\"J\",\"68\"
\"\",\"\",\"approach-retreat\",\"217\",\"1681424\",\"0.0-217.0\",\"\",\"\",\"3-2\",\"4222\",\"39\",\"1\",\"Testing\",\"Stims/Figures/118-J-0-2.bmp\",\"zasaha\",\"Left\",\"39\",\"3\",\"21\",\"6B\",\"C2\",\"J\",\"69\"
\"\",\"\",\"approach-retreat\",\"218\",\"1687404\",\"0.0-218.0\",\"\",\"\",\"3-2\",\"4472\",\"37\",\"1\",\"Testing\",\"Stims/Figures/111-C-30-3.bmp\",\"vafa:va\",\"Left\",\"37\",\"3\",\"22\",\"6B\",\"C1\",\"J\",\"70\"
\"\",\"\",\"approach-retreat\",\"219\",\"1693377\",\"0.0-219.0\",\"\",\"\",\"3-2\",\"4464\",\"38\",\"1\",\"Testing\",\"Stims/Figures/85-C-20-2.bmp\",\"va:shasha\",\"Up\",\"38\",\"3\",\"23\",\"6B\",\"C1\",\"J\",\"71\"
\"\",\"\",\"approach-retreat\",\"220\",\"1699145\",\"0.0-220.0\",\"\",\"\",\"3-2\",\"4257\",\"38\",\"1\",\"Testing\",\"Stims/Figures/71-J-0-1.bmp\",\"zahaha\",\"Down\",\"38\",\"3\",\"24\",\"6B\",\"C2\",\"J\",\"72\"
\"\",\"\",\"approach-retreat\",\"221\",\"1705054\",\"0.0-221.0\",\"\",\"\",\"3-2\",\"4403\",\"38\",\"1\",\"Testing\",\"Stims/Figures/144-J-10-3.bmp\",\"za:haha\",\"Down\",\"38\",\"4\",\"1\",\"6B\",\"C2\",\"J\",\"73\"
\"\",\"\",\"approach-retreat\",\"222\",\"1711296\",\"0.0-222.0\",\"\",\"\",\"3-2\",\"4729\",\"37\",\"0\",\"Testing\",\"Stims/Figures/57-C-30-1.bmp\",\"va:fasha\",\"Right\",\"39\",\"4\",\"2\",\"6B\",\"C1\",\"J\",\"74\"
\"\",\"\",\"approach-retreat\",\"223\",\"1717056\",\"0.0-223.0\",\"\",\"\",\"3-2\",\"4246\",\"40\",\"0\",\"Testing\",\"Stims/Figures/87-J-10-4.bmp\",\"saha:ha\",\"Down\",\"38\",\"4\",\"3\",\"6B\",\"C2\",\"J\",\"75\"
\"\",\"\",\"approach-retreat\",\"224\",\"1723561\",\"0.0-224.0\",\"\",\"\",\"3-2\",\"5001\",\"39\",\"0\",\"Testing\",\"Stims/Figures/102-J-10-4.bmp\",\"zahaza\",\"Right\",\"37\",\"4\",\"4\",\"6B\",\"C2\",\"J\",\"76\"
\"\",\"\",\"approach-retreat\",\"225\",\"1729707\",\"0.0-225.0\",\"\",\"\",\"3-2\",\"4634\",\"40\",\"1\",\"Testing\",\"Stims/Figures/85-C-20-2.bmp\",\"va:shasha\",\"Down\",\"40\",\"4\",\"5\",\"6B\",\"C1\",\"J\",\"77\"
\"\",\"\",\"approach-retreat\",\"226\",\"1735971\",\"0.0-226.0\",\"\",\"\",\"3-2\",\"4752\",\"39\",\"1\",\"Testing\",\"Stims/Figures/71-J-0-1.bmp\",\"zahaha\",\"Left\",\"39\",\"4\",\"6\",\"6B\",\"C2\",\"J\",\"78\"
\"\",\"\",\"approach-retreat\",\"227\",\"1742029\",\"0.0-227.0\",\"\",\"\",\"3-2\",\"4548\",\"38\",\"1\",\"Testing\",\"Stims/Figures/27-C-30-1.bmp\",\"fafava\",\"Up\",\"38\",\"4\",\"7\",\"6B\",\"C1\",\"J\",\"79\"
\"\",\"\",\"approach-retreat\",\"228\",\"1748127\",\"0.0-228.0\",\"\",\"\",\"3-2\",\"4592\",\"39\",\"1\",\"Testing\",\"Stims/Figures/44-J-10-3.bmp\",\"za:sa:ha\",\"Left\",\"39\",\"4\",\"8\",\"6B\",\"C2\",\"J\",\"80\"
\"\",\"\",\"approach-retreat\",\"229\",\"1754205\",\"0.0-229.0\",\"\",\"\",\"3-2\",\"4568\",\"39\",\"1\",\"Testing\",\"Stims/Figures/118-C-20-2.bmp\",\"fa:sha:sha\",\"Right\",\"39\",\"4\",\"9\",\"6B\",\"C1\",\"J\",\"81\"
\"\",\"\",\"approach-retreat\",\"230\",\"1760760\",\"0.0-230.0\",\"\",\"\",\"3-2\",\"5052\",\"39\",\"1\",\"Testing\",\"Stims/Figures/57-J-0-1.bmp\",\"sa:saha\",\"Left\",\"39\",\"4\",\"10\",\"6B\",\"C2\",\"J\",\"82\"
\"\",\"\",\"approach-retreat\",\"231\",\"1766678\",\"0.0-231.0\",\"\",\"\",\"3-2\",\"4403\",\"37\",\"1\",\"Testing\",\"Stims/Figures/87-C-20-4.bmp\",\"fa:fa:sha\",\"Left\",\"37\",\"4\",\"11\",\"6B\",\"C1\",\"J\",\"83\"
\"\",\"\",\"approach-retreat\",\"232\",\"1773086\",\"0.0-232.0\",\"\",\"\",\"3-2\",\"4896\",\"37\",\"0\",\"Testing\",\"Stims/Figures/74-C-20-4.bmp\",\"fafasha\",\"Right\",\"39\",\"4\",\"12\",\"6B\",\"C1\",\"J\",\"84\"
\"\",\"\",\"approach-retreat\",\"233\",\"1779495\",\"0.0-233.0\",\"\",\"\",\"3-2\",\"4902\",\"39\",\"0\",\"Testing\",\"Stims/Figures/144-C-30-3.bmp\",\"va:fa:sha\",\"Left\",\"37\",\"4\",\"13\",\"6B\",\"C1\",\"J\",\"85\"
\"\",\"\",\"approach-retreat\",\"234\",\"1785404\",\"0.0-234.0\",\"\",\"\",\"3-2\",\"4399\",\"40\",\"1\",\"Testing\",\"Stims/Figures/85-J-0-2.bmp\",\"sasa:ha\",\"Up\",\"40\",\"4\",\"14\",\"6B\",\"C2\",\"J\",\"86\"
\"\",\"\",\"approach-retreat\",\"235\",\"1791254\",\"0.0-235.0\",\"\",\"\",\"3-2\",\"4340\",\"38\",\"1\",\"Testing\",\"Stims/Figures/102-C-20-4.bmp\",\"vafava\",\"Up\",\"38\",\"4\",\"15\",\"6B\",\"C1\",\"J\",\"87\"
\"\",\"\",\"approach-retreat\",\"236\",\"1797215\",\"0.0-236.0\",\"\",\"\",\"3-2\",\"4453\",\"40\",\"1\",\"Testing\",\"Stims/Figures/84-C-20-2.bmp\",\"fasha:sha\",\"Down\",\"40\",\"4\",\"16\",\"6B\",\"C1\",\"J\",\"88\"
\"\",\"\",\"approach-retreat\",\"237\",\"1803596\",\"0.0-237.0\",\"\",\"\",\"3-2\",\"4873\",\"39\",\"1\",\"Testing\",\"Stims/Figures/111-C-30-3.bmp\",\"vafa:va\",\"Right\",\"39\",\"4\",\"17\",\"6B\",\"C1\",\"J\",\"89\"
\"\",\"\",\"approach-retreat\",\"238\",\"1809841\",\"0.0-238.0\",\"\",\"\",\"3-2\",\"4734\",\"37\",\"0\",\"Testing\",\"Stims/Figures/111-J-10-3.bmp\",\"sasaha\",\"Left\",\"39\",\"4\",\"18\",\"6B\",\"C2\",\"J\",\"90\"
\"\",\"\",\"approach-retreat\",\"239\",\"1815748\",\"0.0-239.0\",\"\",\"\",\"3-2\",\"4393\",\"40\",\"1\",\"Testing\",\"Stims/Figures/44-C-30-3.bmp\",\"va:sha:va\",\"Down\",\"40\",\"4\",\"19\",\"6B\",\"C1\",\"J\",\"91\"
\"\",\"\",\"approach-retreat\",\"240\",\"1822637\",\"0.0-240.0\",\"\",\"\",\"3-2\",\"5375\",\"40\",\"1\",\"Testing\",\"Stims/Figures/27-J-0-1.bmp\",\"sa:ha:ha\",\"Up\",\"40\",\"4\",\"20\",\"6B\",\"C2\",\"J\",\"92\"
\"\",\"\",\"approach-retreat\",\"241\",\"1828529\",\"0.0-241.0\",\"\",\"\",\"3-2\",\"4379\",\"38\",\"1\",\"Testing\",\"Stims/Figures/118-J-0-2.bmp\",\"zasaha\",\"Down\",\"38\",\"4\",\"21\",\"6B\",\"C2\",\"J\",\"93\"
\"\",\"\",\"approach-retreat\",\"242\",\"1834202\",\"0.0-242.0\",\"\",\"\",\"3-2\",\"4164\",\"39\",\"1\",\"Testing\",\"Stims/Figures/71-C-30-1.bmp\",\"fa:shava\",\"Right\",\"39\",\"4\",\"22\",\"6B\",\"C1\",\"J\",\"94\"
\"\",\"\",\"approach-retreat\",\"243\",\"1841679\",\"0.0-243.0\",\"\",\"\",\"3-2\",\"5964\",\"40\",\"1\",\"Testing\",\"Stims/Figures/74-J-10-4.bmp\",\"zasa:ha\",\"Up\",\"40\",\"4\",\"23\",\"6B\",\"C2\",\"J\",\"95\"
\"\",\"\",\"approach-retreat\",\"244\",\"1847557\",\"0.0-244.0\",\"\",\"\",\"3-2\",\"4366\",\"40\",\"1\",\"Testing\",\"Stims/Figures/84-J-0-2.bmp\",\"sasaza\",\"Up\",\"40\",\"4\",\"24\",\"6B\",\"C2\",\"J\",\"96\"
\"20530\",\"\",\"survey-text\",\"245\",\"1868090\",\"0.0-245.0\",\"\",\"{\"\"Q0\"\":\"\"PS150038\"\"}\",\"\",\"\",\"\",\"\",\"\",\"\",\"\",\"\",\"\",\"\",\"\",\"\",\"\",\"\",\"\"
