\"rt\",\"key_press\",\"trial_type\",\"trial_index\",\"time_elapsed\",\"internal_node_id\",\"view_history\",\"responses\",\"Id\",\"Rt\",\"ResKeyCode\",\"ResCorr\",\"TrialType2\",\"Image\",\"Label\",\"Location\",\"CorrectResponse\",\"Block\",\"BlockTrial\",\"Condition\",\"LabelType\",\"Subcondition\",\"trialNum\"
\"66283\",\"32\",\"text\",\"0\",\"66289\",\"0.0-0.0-0.0\",\"\",\"\",\"\",\"\",\"\",\"\",\"\",\"\",\"\",\"\",\"\",\"\",\"\",\"\",\"\",\"\",\"\"
\"102235\",\"\",\"instructions\",\"1\",\"168528\",\"0.0-1.0\",\"[{\"\"page_index\"\":0,\"\"viewing_time\"\":102235}]\",\"\",\"\",\"\",\"\",\"\",\"\",\"\",\"\",\"\",\"\",\"\",\"\",\"\",\"\",\"\",\"\"
\"28598\",\"\",\"survey-multi-choice\",\"2\",\"197188\",\"0.0-2.0\",\"\",\"{\"\"Q0\"\":\"\"Da\"\",\"\"Q1\"\":\"\"Da\"\",\"\"Q2\"\":\"\"Da\"\",\"\"Q3\"\":\"\"Da\"\",\"\"Q4\"\":\"\"Da\"\",\"\"Q5\"\":\"\"Da\"\"}\",\"\",\"\",\"\",\"\",\"\",\"\",\"\",\"\",\"\",\"\",\"\",\"\",\"\",\"\",\"\"
\"\",\"\",\"bio\",\"3\",\"210094\",\"0.0-3.0\",\"\",\"{\"\"age\"\":\"\"20\"\",\"\"gender\"\":\"\"f\"\",\"\"specify\"\":\"\"\"\"}\",\"\",\"\",\"\",\"\",\"\",\"\",\"\",\"\",\"\",\"\",\"\",\"\",\"\",\"\",\"\"
\"\",\"\",\"approach-retreat\",\"4\",\"217516\",\"0.0-4.0\",\"\",\"\",\"2-3\",\"5909\",\"40\",\"1\",\"Training\",\"Stims/Figures/86-J-0-1.bmp\",\"taka:ta\",\"Down\",\"40\",\"1\",\"1\",\"4\",\"P\",\"C\",\"1\"
\"\",\"\",\"approach-retreat\",\"5\",\"223454\",\"0.0-5.0\",\"\",\"\",\"2-3\",\"4417\",\"40\",\"1\",\"Training\",\"Stims/Figures/128-C-30-3.bmp\",\"namala\",\"Up\",\"40\",\"1\",\"2\",\"4\",\"S\",\"C\",\"2\"
\"\",\"\",\"approach-retreat\",\"6\",\"229268\",\"0.0-6.0\",\"\",\"\",\"2-3\",\"4296\",\"38\",\"1\",\"Training\",\"Stims/Figures/118-J-0-2.bmp\",\"ta:pa:ta\",\"Up\",\"38\",\"1\",\"3\",\"4\",\"P\",\"C\",\"3\"
\"\",\"\",\"approach-retreat\",\"7\",\"234985\",\"0.0-7.0\",\"\",\"\",\"2-3\",\"4199\",\"38\",\"1\",\"Training\",\"Stims/Figures/102-J-10-4.bmp\",\"paka:ka\",\"Up\",\"38\",\"1\",\"4\",\"4\",\"P\",\"C\",\"4\"
\"\",\"\",\"approach-retreat\",\"8\",\"241040\",\"0.0-8.0\",\"\",\"\",\"2-3\",\"4535\",\"37\",\"1\",\"Training\",\"Stims/Figures/87-C-20-4.bmp\",\"na:mala\",\"Right\",\"37\",\"1\",\"5\",\"4\",\"S\",\"C\",\"5\"
\"\",\"\",\"approach-retreat\",\"9\",\"246663\",\"0.0-9.0\",\"\",\"\",\"2-3\",\"4106\",\"37\",\"1\",\"Training\",\"Stims/Figures/128-J-10-3.bmp\",\"papata\",\"Left\",\"37\",\"1\",\"6\",\"4\",\"P\",\"C\",\"6\"
\"\",\"\",\"approach-retreat\",\"10\",\"253550\",\"0.0-10.0\",\"\",\"\",\"2-3\",\"5367\",\"40\",\"1\",\"Training\",\"Stims/Figures/102-C-20-4.bmp\",\"ma:mala\",\"Up\",\"40\",\"1\",\"7\",\"4\",\"S\",\"C\",\"7\"
\"\",\"\",\"approach-retreat\",\"11\",\"259706\",\"0.0-11.0\",\"\",\"\",\"2-3\",\"4636\",\"39\",\"1\",\"Training\",\"Stims/Figures/118-C-20-2.bmp\",\"ma:la:la\",\"Left\",\"39\",\"1\",\"8\",\"4\",\"S\",\"C\",\"8\"
\"\",\"\",\"approach-retreat\",\"12\",\"266209\",\"0.0-12.0\",\"\",\"\",\"2-3\",\"4981\",\"37\",\"1\",\"Training\",\"Stims/Figures/86-C-30-1.bmp\",\"ma:ma:la\",\"Right\",\"37\",\"1\",\"9\",\"4\",\"S\",\"C\",\"9\"
\"\",\"\",\"approach-retreat\",\"13\",\"271650\",\"0.0-13.0\",\"\",\"\",\"2-3\",\"3925\",\"39\",\"1\",\"Training\",\"Stims/Figures/85-J-0-2.bmp\",\"ta:ka:ka\",\"Right\",\"39\",\"1\",\"10\",\"4\",\"P\",\"C\",\"10\"
\"\",\"\",\"approach-retreat\",\"14\",\"277753\",\"0.0-14.0\",\"\",\"\",\"2-3\",\"4580\",\"39\",\"1\",\"Training\",\"Stims/Figures/27-J-0-1.bmp\",\"tapaka\",\"Right\",\"39\",\"1\",\"11\",\"4\",\"P\",\"C\",\"11\"
\"\",\"\",\"approach-retreat\",\"15\",\"283456\",\"0.0-15.0\",\"\",\"\",\"2-3\",\"4186\",\"38\",\"1\",\"Training\",\"Stims/Figures/85-C-20-2.bmp\",\"na:lala\",\"Down\",\"38\",\"1\",\"12\",\"4\",\"S\",\"C\",\"12\"
\"\",\"\",\"approach-retreat\",\"16\",\"290465\",\"0.0-16.0\",\"\",\"\",\"2-3\",\"5493\",\"39\",\"1\",\"Training\",\"Stims/Figures/27-C-30-1.bmp\",\"nalana\",\"Left\",\"39\",\"1\",\"13\",\"4\",\"S\",\"C\",\"13\"
\"\",\"\",\"approach-retreat\",\"17\",\"297685\",\"0.0-17.0\",\"\",\"\",\"2-3\",\"5704\",\"40\",\"1\",\"Training\",\"Stims/Figures/87-J-10-4.bmp\",\"papa:ka\",\"Down\",\"40\",\"1\",\"14\",\"4\",\"P\",\"C\",\"14\"
\"\",\"\",\"approach-retreat\",\"18\",\"304444\",\"0.0-18.0\",\"\",\"\",\"2-3\",\"5243\",\"38\",\"1\",\"Training\",\"Stims/Figures/44-C-30-3.bmp\",\"mamana\",\"Down\",\"38\",\"1\",\"15\",\"4\",\"S\",\"C\",\"15\"
\"\",\"\",\"approach-retreat\",\"19\",\"310030\",\"0.0-19.0\",\"\",\"\",\"2-3\",\"4070\",\"37\",\"1\",\"Training\",\"Stims/Figures/44-J-10-3.bmp\",\"tapa:ta\",\"Left\",\"37\",\"1\",\"16\",\"4\",\"P\",\"C\",\"16\"
\"\",\"\",\"approach-retreat\",\"20\",\"316014\",\"0.0-20.0\",\"\",\"\",\"2-3\",\"4469\",\"37\",\"0\",\"Training\",\"Stims/Figures/102-C-20-4.bmp\",\"ma:mala\",\"Left\",\"39\",\"2\",\"1\",\"4\",\"S\",\"C\",\"17\"
\"\",\"\",\"approach-retreat\",\"21\",\"321699\",\"0.0-21.0\",\"\",\"\",\"2-3\",\"4168\",\"39\",\"1\",\"Training\",\"Stims/Figures/44-J-10-3.bmp\",\"tapa:ta\",\"Right\",\"39\",\"2\",\"2\",\"4\",\"P\",\"C\",\"18\"
\"\",\"\",\"approach-retreat\",\"22\",\"327193\",\"0.0-22.0\",\"\",\"\",\"2-3\",\"3980\",\"37\",\"1\",\"Training\",\"Stims/Figures/87-J-10-4.bmp\",\"papa:ka\",\"Left\",\"37\",\"2\",\"3\",\"4\",\"P\",\"C\",\"19\"
\"\",\"\",\"approach-retreat\",\"23\",\"332708\",\"0.0-23.0\",\"\",\"\",\"2-3\",\"3999\",\"39\",\"1\",\"Training\",\"Stims/Figures/102-J-10-4.bmp\",\"paka:ka\",\"Right\",\"39\",\"2\",\"4\",\"4\",\"P\",\"C\",\"20\"
\"\",\"\",\"approach-retreat\",\"24\",\"338213\",\"0.0-24.0\",\"\",\"\",\"2-3\",\"3983\",\"37\",\"1\",\"Training\",\"Stims/Figures/44-C-30-3.bmp\",\"mamana\",\"Right\",\"37\",\"2\",\"5\",\"4\",\"S\",\"C\",\"21\"
\"\",\"\",\"approach-retreat\",\"25\",\"344093\",\"0.0-25.0\",\"\",\"\",\"2-3\",\"4360\",\"38\",\"1\",\"Training\",\"Stims/Figures/27-C-30-1.bmp\",\"nalana\",\"Down\",\"38\",\"2\",\"6\",\"4\",\"S\",\"C\",\"22\"
\"\",\"\",\"approach-retreat\",\"26\",\"349799\",\"0.0-26.0\",\"\",\"\",\"2-3\",\"4193\",\"38\",\"1\",\"Training\",\"Stims/Figures/86-J-0-1.bmp\",\"taka:ta\",\"Up\",\"38\",\"2\",\"7\",\"4\",\"P\",\"C\",\"23\"
\"\",\"\",\"approach-retreat\",\"27\",\"355495\",\"0.0-27.0\",\"\",\"\",\"2-3\",\"4177\",\"40\",\"1\",\"Training\",\"Stims/Figures/27-J-0-1.bmp\",\"tapaka\",\"Down\",\"40\",\"2\",\"8\",\"4\",\"P\",\"C\",\"24\"
\"\",\"\",\"approach-retreat\",\"28\",\"361030\",\"0.0-28.0\",\"\",\"\",\"2-3\",\"4017\",\"38\",\"1\",\"Training\",\"Stims/Figures/128-J-10-3.bmp\",\"papata\",\"Up\",\"38\",\"2\",\"9\",\"4\",\"P\",\"C\",\"25\"
\"\",\"\",\"approach-retreat\",\"29\",\"366581\",\"0.0-29.0\",\"\",\"\",\"2-3\",\"4035\",\"38\",\"1\",\"Training\",\"Stims/Figures/118-J-0-2.bmp\",\"ta:pa:ta\",\"Up\",\"38\",\"2\",\"10\",\"4\",\"P\",\"C\",\"26\"
\"\",\"\",\"approach-retreat\",\"30\",\"372153\",\"0.0-30.0\",\"\",\"\",\"2-3\",\"4055\",\"39\",\"1\",\"Training\",\"Stims/Figures/85-J-0-2.bmp\",\"ta:ka:ka\",\"Right\",\"39\",\"2\",\"11\",\"4\",\"P\",\"C\",\"27\"
\"\",\"\",\"approach-retreat\",\"31\",\"377699\",\"0.0-31.0\",\"\",\"\",\"2-3\",\"4030\",\"39\",\"1\",\"Training\",\"Stims/Figures/118-C-20-2.bmp\",\"ma:la:la\",\"Left\",\"39\",\"2\",\"12\",\"4\",\"S\",\"C\",\"28\"
\"\",\"\",\"approach-retreat\",\"32\",\"383213\",\"0.0-32.0\",\"\",\"\",\"2-3\",\"3999\",\"39\",\"1\",\"Training\",\"Stims/Figures/86-C-30-1.bmp\",\"ma:ma:la\",\"Left\",\"39\",\"2\",\"13\",\"4\",\"S\",\"C\",\"29\"
\"\",\"\",\"approach-retreat\",\"33\",\"388803\",\"0.0-33.0\",\"\",\"\",\"2-3\",\"4072\",\"38\",\"1\",\"Training\",\"Stims/Figures/85-C-20-2.bmp\",\"na:lala\",\"Down\",\"38\",\"2\",\"14\",\"4\",\"S\",\"C\",\"30\"
\"\",\"\",\"approach-retreat\",\"34\",\"394414\",\"0.0-34.0\",\"\",\"\",\"2-3\",\"4092\",\"40\",\"1\",\"Training\",\"Stims/Figures/128-C-30-3.bmp\",\"namala\",\"Up\",\"40\",\"2\",\"15\",\"4\",\"S\",\"C\",\"31\"
\"\",\"\",\"approach-retreat\",\"35\",\"399944\",\"0.0-35.0\",\"\",\"\",\"2-3\",\"4013\",\"38\",\"1\",\"Training\",\"Stims/Figures/87-C-20-4.bmp\",\"na:mala\",\"Down\",\"38\",\"2\",\"16\",\"4\",\"S\",\"C\",\"32\"
\"\",\"\",\"approach-retreat\",\"36\",\"405467\",\"0.0-36.0\",\"\",\"\",\"2-3\",\"4007\",\"38\",\"1\",\"Training\",\"Stims/Figures/44-C-30-3.bmp\",\"mamana\",\"Down\",\"38\",\"3\",\"1\",\"4\",\"S\",\"C\",\"33\"
\"\",\"\",\"approach-retreat\",\"37\",\"410963\",\"0.0-37.0\",\"\",\"\",\"2-3\",\"3979\",\"38\",\"1\",\"Training\",\"Stims/Figures/27-C-30-1.bmp\",\"nalana\",\"Down\",\"38\",\"3\",\"2\",\"4\",\"S\",\"C\",\"34\"
\"\",\"\",\"approach-retreat\",\"38\",\"416729\",\"0.0-38.0\",\"\",\"\",\"2-3\",\"4247\",\"40\",\"1\",\"Training\",\"Stims/Figures/86-C-30-1.bmp\",\"ma:ma:la\",\"Up\",\"40\",\"3\",\"3\",\"4\",\"S\",\"C\",\"35\"
\"\",\"\",\"approach-retreat\",\"39\",\"422265\",\"0.0-39.0\",\"\",\"\",\"2-3\",\"4015\",\"39\",\"1\",\"Training\",\"Stims/Figures/87-C-20-4.bmp\",\"na:mala\",\"Left\",\"39\",\"3\",\"4\",\"4\",\"S\",\"C\",\"36\"
\"\",\"\",\"approach-retreat\",\"40\",\"427865\",\"0.0-40.0\",\"\",\"\",\"2-3\",\"4083\",\"38\",\"1\",\"Training\",\"Stims/Figures/44-J-10-3.bmp\",\"tapa:ta\",\"Up\",\"38\",\"3\",\"5\",\"4\",\"P\",\"C\",\"37\"
\"\",\"\",\"approach-retreat\",\"41\",\"433995\",\"0.0-41.0\",\"\",\"\",\"2-3\",\"4615\",\"37\",\"1\",\"Training\",\"Stims/Figures/85-C-20-2.bmp\",\"na:lala\",\"Right\",\"37\",\"3\",\"6\",\"4\",\"S\",\"C\",\"38\"
\"\",\"\",\"approach-retreat\",\"42\",\"439517\",\"0.0-42.0\",\"\",\"\",\"2-3\",\"4007\",\"37\",\"1\",\"Training\",\"Stims/Figures/128-J-10-3.bmp\",\"papata\",\"Left\",\"37\",\"3\",\"7\",\"4\",\"P\",\"C\",\"39\"
\"\",\"\",\"approach-retreat\",\"43\",\"445292\",\"0.0-43.0\",\"\",\"\",\"2-3\",\"4258\",\"38\",\"1\",\"Training\",\"Stims/Figures/27-J-0-1.bmp\",\"tapaka\",\"Up\",\"38\",\"3\",\"8\",\"4\",\"P\",\"C\",\"40\"
\"\",\"\",\"approach-retreat\",\"44\",\"450980\",\"0.0-44.0\",\"\",\"\",\"2-3\",\"4167\",\"37\",\"1\",\"Training\",\"Stims/Figures/118-J-0-2.bmp\",\"ta:pa:ta\",\"Left\",\"37\",\"3\",\"9\",\"4\",\"P\",\"C\",\"41\"
\"\",\"\",\"approach-retreat\",\"45\",\"456607\",\"0.0-45.0\",\"\",\"\",\"2-3\",\"4108\",\"39\",\"1\",\"Training\",\"Stims/Figures/87-J-10-4.bmp\",\"papa:ka\",\"Right\",\"39\",\"3\",\"10\",\"4\",\"P\",\"C\",\"42\"
\"\",\"\",\"approach-retreat\",\"46\",\"462209\",\"0.0-46.0\",\"\",\"\",\"2-3\",\"4082\",\"38\",\"1\",\"Training\",\"Stims/Figures/118-C-20-2.bmp\",\"ma:la:la\",\"Down\",\"38\",\"3\",\"11\",\"4\",\"S\",\"C\",\"43\"
\"\",\"\",\"approach-retreat\",\"47\",\"467730\",\"0.0-47.0\",\"\",\"\",\"2-3\",\"4005\",\"38\",\"1\",\"Training\",\"Stims/Figures/128-C-30-3.bmp\",\"namala\",\"Down\",\"38\",\"3\",\"12\",\"4\",\"S\",\"C\",\"44\"
\"\",\"\",\"approach-retreat\",\"48\",\"473244\",\"0.0-48.0\",\"\",\"\",\"2-3\",\"3998\",\"39\",\"1\",\"Training\",\"Stims/Figures/86-J-0-1.bmp\",\"taka:ta\",\"Right\",\"39\",\"3\",\"13\",\"4\",\"P\",\"C\",\"45\"
\"\",\"\",\"approach-retreat\",\"49\",\"478775\",\"0.0-49.0\",\"\",\"\",\"2-3\",\"4017\",\"38\",\"1\",\"Training\",\"Stims/Figures/85-J-0-2.bmp\",\"ta:ka:ka\",\"Up\",\"38\",\"3\",\"14\",\"4\",\"P\",\"C\",\"46\"
\"\",\"\",\"approach-retreat\",\"50\",\"484268\",\"0.0-50.0\",\"\",\"\",\"2-3\",\"3974\",\"39\",\"1\",\"Training\",\"Stims/Figures/102-J-10-4.bmp\",\"paka:ka\",\"Right\",\"39\",\"3\",\"15\",\"4\",\"P\",\"C\",\"47\"
\"\",\"\",\"approach-retreat\",\"51\",\"489692\",\"0.0-51.0\",\"\",\"\",\"2-3\",\"3906\",\"39\",\"1\",\"Training\",\"Stims/Figures/102-C-20-4.bmp\",\"ma:mala\",\"Left\",\"39\",\"3\",\"16\",\"4\",\"S\",\"C\",\"48\"
\"\",\"\",\"approach-retreat\",\"52\",\"495302\",\"0.0-52.0\",\"\",\"\",\"2-3\",\"4090\",\"38\",\"1\",\"Training\",\"Stims/Figures/128-C-30-3.bmp\",\"namala\",\"Down\",\"38\",\"4\",\"1\",\"4\",\"S\",\"C\",\"49\"
\"\",\"\",\"approach-retreat\",\"53\",\"501387\",\"0.0-53.0\",\"\",\"\",\"2-3\",\"4569\",\"37\",\"1\",\"Training\",\"Stims/Figures/44-C-30-3.bmp\",\"mamana\",\"Right\",\"37\",\"4\",\"2\",\"4\",\"S\",\"C\",\"50\"
\"\",\"\",\"approach-retreat\",\"54\",\"506846\",\"0.0-54.0\",\"\",\"\",\"2-3\",\"3941\",\"38\",\"1\",\"Training\",\"Stims/Figures/102-C-20-4.bmp\",\"ma:mala\",\"Down\",\"38\",\"4\",\"3\",\"4\",\"S\",\"C\",\"51\"
\"\",\"\",\"approach-retreat\",\"55\",\"512366\",\"0.0-55.0\",\"\",\"\",\"2-3\",\"4002\",\"39\",\"1\",\"Training\",\"Stims/Figures/87-C-20-4.bmp\",\"na:mala\",\"Left\",\"39\",\"4\",\"4\",\"4\",\"S\",\"C\",\"52\"
\"\",\"\",\"approach-retreat\",\"56\",\"518137\",\"0.0-56.0\",\"\",\"\",\"2-3\",\"4252\",\"40\",\"1\",\"Training\",\"Stims/Figures/118-C-20-2.bmp\",\"ma:la:la\",\"Up\",\"40\",\"4\",\"5\",\"4\",\"S\",\"C\",\"53\"
\"\",\"\",\"approach-retreat\",\"57\",\"523614\",\"0.0-57.0\",\"\",\"\",\"2-3\",\"3956\",\"38\",\"1\",\"Training\",\"Stims/Figures/44-J-10-3.bmp\",\"tapa:ta\",\"Up\",\"38\",\"4\",\"6\",\"4\",\"P\",\"C\",\"54\"
\"\",\"\",\"approach-retreat\",\"58\",\"529700\",\"0.0-58.0\",\"\",\"\",\"2-3\",\"4571\",\"39\",\"1\",\"Training\",\"Stims/Figures/85-C-20-2.bmp\",\"na:lala\",\"Left\",\"39\",\"4\",\"7\",\"4\",\"S\",\"C\",\"55\"
\"\",\"\",\"approach-retreat\",\"59\",\"535703\",\"0.0-59.0\",\"\",\"\",\"2-3\",\"4491\",\"40\",\"1\",\"Training\",\"Stims/Figures/85-J-0-2.bmp\",\"ta:ka:ka\",\"Down\",\"40\",\"4\",\"8\",\"4\",\"P\",\"C\",\"56\"
\"\",\"\",\"approach-retreat\",\"60\",\"541446\",\"0.0-60.0\",\"\",\"\",\"2-3\",\"4226\",\"39\",\"1\",\"Training\",\"Stims/Figures/86-J-0-1.bmp\",\"taka:ta\",\"Right\",\"39\",\"4\",\"9\",\"4\",\"P\",\"C\",\"57\"
\"\",\"\",\"approach-retreat\",\"61\",\"547039\",\"0.0-61.0\",\"\",\"\",\"2-3\",\"4077\",\"40\",\"1\",\"Training\",\"Stims/Figures/27-C-30-1.bmp\",\"nalana\",\"Up\",\"40\",\"4\",\"10\",\"4\",\"S\",\"C\",\"58\"
\"\",\"\",\"approach-retreat\",\"62\",\"552639\",\"0.0-62.0\",\"\",\"\",\"2-3\",\"4084\",\"40\",\"1\",\"Training\",\"Stims/Figures/128-J-10-3.bmp\",\"papata\",\"Down\",\"40\",\"4\",\"11\",\"4\",\"P\",\"C\",\"59\"
\"\",\"\",\"approach-retreat\",\"63\",\"558260\",\"0.0-63.0\",\"\",\"\",\"2-3\",\"4103\",\"37\",\"1\",\"Training\",\"Stims/Figures/102-J-10-4.bmp\",\"paka:ka\",\"Left\",\"37\",\"4\",\"12\",\"4\",\"P\",\"C\",\"60\"
\"\",\"\",\"approach-retreat\",\"64\",\"563904\",\"0.0-64.0\",\"\",\"\",\"2-3\",\"4127\",\"39\",\"0\",\"Training\",\"Stims/Figures/86-C-30-1.bmp\",\"ma:ma:la\",\"Right\",\"37\",\"4\",\"13\",\"4\",\"S\",\"C\",\"61\"
\"\",\"\",\"approach-retreat\",\"65\",\"569349\",\"0.0-65.0\",\"\",\"\",\"2-3\",\"3932\",\"39\",\"1\",\"Training\",\"Stims/Figures/118-J-0-2.bmp\",\"ta:pa:ta\",\"Right\",\"39\",\"4\",\"14\",\"4\",\"P\",\"C\",\"62\"
\"\",\"\",\"approach-retreat\",\"66\",\"575417\",\"0.0-66.0\",\"\",\"\",\"2-3\",\"4552\",\"38\",\"1\",\"Training\",\"Stims/Figures/27-J-0-1.bmp\",\"tapaka\",\"Up\",\"38\",\"4\",\"15\",\"4\",\"P\",\"C\",\"63\"
\"\",\"\",\"approach-retreat\",\"67\",\"580961\",\"0.0-67.0\",\"\",\"\",\"2-3\",\"4026\",\"37\",\"1\",\"Training\",\"Stims/Figures/87-J-10-4.bmp\",\"papa:ka\",\"Left\",\"37\",\"4\",\"16\",\"4\",\"P\",\"C\",\"64\"
\"\",\"\",\"approach-retreat\",\"68\",\"586872\",\"0.0-68.0\",\"\",\"\",\"2-3\",\"4391\",\"40\",\"1\",\"Training\",\"Stims/Figures/27-C-30-1.bmp\",\"nalana\",\"Up\",\"40\",\"5\",\"1\",\"4\",\"S\",\"C\",\"65\"
\"\",\"\",\"approach-retreat\",\"69\",\"592565\",\"0.0-69.0\",\"\",\"\",\"2-3\",\"4173\",\"38\",\"1\",\"Training\",\"Stims/Figures/128-C-30-3.bmp\",\"namala\",\"Down\",\"38\",\"5\",\"2\",\"4\",\"S\",\"C\",\"66\"
\"\",\"\",\"approach-retreat\",\"70\",\"598191\",\"0.0-70.0\",\"\",\"\",\"2-3\",\"4110\",\"37\",\"1\",\"Training\",\"Stims/Figures/85-C-20-2.bmp\",\"na:lala\",\"Right\",\"37\",\"5\",\"3\",\"4\",\"S\",\"C\",\"67\"
\"\",\"\",\"approach-retreat\",\"71\",\"603900\",\"0.0-71.0\",\"\",\"\",\"2-3\",\"4192\",\"40\",\"1\",\"Training\",\"Stims/Figures/44-J-10-3.bmp\",\"tapa:ta\",\"Down\",\"40\",\"5\",\"4\",\"4\",\"P\",\"C\",\"68\"
\"\",\"\",\"approach-retreat\",\"72\",\"609902\",\"0.0-72.0\",\"\",\"\",\"2-3\",\"4485\",\"40\",\"1\",\"Training\",\"Stims/Figures/86-C-30-1.bmp\",\"ma:ma:la\",\"Up\",\"40\",\"5\",\"5\",\"4\",\"S\",\"C\",\"69\"
\"\",\"\",\"approach-retreat\",\"73\",\"615988\",\"0.0-73.0\",\"\",\"\",\"2-3\",\"4569\",\"37\",\"1\",\"Training\",\"Stims/Figures/44-C-30-3.bmp\",\"mamana\",\"Right\",\"37\",\"5\",\"6\",\"4\",\"S\",\"C\",\"70\"
\"\",\"\",\"approach-retreat\",\"74\",\"621619\",\"0.0-74.0\",\"\",\"\",\"2-3\",\"4111\",\"39\",\"1\",\"Training\",\"Stims/Figures/102-J-10-4.bmp\",\"paka:ka\",\"Right\",\"39\",\"5\",\"7\",\"4\",\"P\",\"C\",\"71\"
\"\",\"\",\"approach-retreat\",\"75\",\"627721\",\"0.0-75.0\",\"\",\"\",\"2-3\",\"4582\",\"40\",\"1\",\"Training\",\"Stims/Figures/118-J-0-2.bmp\",\"ta:pa:ta\",\"Down\",\"40\",\"5\",\"8\",\"4\",\"P\",\"C\",\"72\"
\"\",\"\",\"approach-retreat\",\"76\",\"633349\",\"0.0-76.0\",\"\",\"\",\"2-3\",\"4109\",\"38\",\"1\",\"Training\",\"Stims/Figures/85-J-0-2.bmp\",\"ta:ka:ka\",\"Up\",\"38\",\"5\",\"9\",\"4\",\"P\",\"C\",\"73\"
\"\",\"\",\"approach-retreat\",\"77\",\"638980\",\"0.0-77.0\",\"\",\"\",\"2-3\",\"4115\",\"37\",\"0\",\"Training\",\"Stims/Figures/118-C-20-2.bmp\",\"ma:la:la\",\"Left\",\"39\",\"5\",\"10\",\"4\",\"S\",\"C\",\"74\"
\"\",\"\",\"approach-retreat\",\"78\",\"644641\",\"0.0-78.0\",\"\",\"\",\"2-3\",\"4145\",\"38\",\"1\",\"Training\",\"Stims/Figures/128-J-10-3.bmp\",\"papata\",\"Up\",\"38\",\"5\",\"11\",\"4\",\"P\",\"C\",\"75\"
\"\",\"\",\"approach-retreat\",\"79\",\"650232\",\"0.0-79.0\",\"\",\"\",\"2-3\",\"4075\",\"40\",\"1\",\"Training\",\"Stims/Figures/86-J-0-1.bmp\",\"taka:ta\",\"Down\",\"40\",\"5\",\"12\",\"4\",\"P\",\"C\",\"76\"
\"\",\"\",\"approach-retreat\",\"80\",\"655848\",\"0.0-80.0\",\"\",\"\",\"2-3\",\"4094\",\"39\",\"1\",\"Training\",\"Stims/Figures/87-J-10-4.bmp\",\"papa:ka\",\"Right\",\"39\",\"5\",\"13\",\"4\",\"P\",\"C\",\"77\"
\"\",\"\",\"approach-retreat\",\"81\",\"661620\",\"0.0-81.0\",\"\",\"\",\"2-3\",\"4252\",\"39\",\"1\",\"Training\",\"Stims/Figures/87-C-20-4.bmp\",\"na:mala\",\"Left\",\"39\",\"5\",\"14\",\"4\",\"S\",\"C\",\"78\"
\"\",\"\",\"approach-retreat\",\"82\",\"667358\",\"0.0-82.0\",\"\",\"\",\"2-3\",\"4220\",\"37\",\"1\",\"Training\",\"Stims/Figures/27-J-0-1.bmp\",\"tapaka\",\"Left\",\"37\",\"5\",\"15\",\"4\",\"P\",\"C\",\"79\"
\"\",\"\",\"approach-retreat\",\"83\",\"673046\",\"0.0-83.0\",\"\",\"\",\"2-3\",\"4171\",\"37\",\"0\",\"Training\",\"Stims/Figures/102-C-20-4.bmp\",\"ma:mala\",\"Left\",\"39\",\"5\",\"16\",\"4\",\"S\",\"C\",\"80\"
\"\",\"\",\"approach-retreat\",\"84\",\"678627\",\"0.0-84.0\",\"\",\"\",\"2-3\",\"4064\",\"40\",\"1\",\"Training\",\"Stims/Figures/86-J-0-1.bmp\",\"taka:ta\",\"Down\",\"40\",\"6\",\"1\",\"4\",\"P\",\"C\",\"81\"
\"\",\"\",\"approach-retreat\",\"85\",\"684376\",\"0.0-85.0\",\"\",\"\",\"2-3\",\"4233\",\"40\",\"0\",\"Training\",\"Stims/Figures/87-J-10-4.bmp\",\"papa:ka\",\"Up\",\"38\",\"6\",\"2\",\"4\",\"P\",\"C\",\"82\"
\"\",\"\",\"approach-retreat\",\"86\",\"690040\",\"0.0-86.0\",\"\",\"\",\"2-3\",\"4145\",\"39\",\"1\",\"Training\",\"Stims/Figures/44-J-10-3.bmp\",\"tapa:ta\",\"Right\",\"39\",\"6\",\"3\",\"4\",\"P\",\"C\",\"83\"
\"\",\"\",\"approach-retreat\",\"87\",\"695656\",\"0.0-87.0\",\"\",\"\",\"2-3\",\"4101\",\"38\",\"1\",\"Training\",\"Stims/Figures/118-J-0-2.bmp\",\"ta:pa:ta\",\"Up\",\"38\",\"6\",\"4\",\"4\",\"P\",\"C\",\"84\"
\"\",\"\",\"approach-retreat\",\"88\",\"701309\",\"0.0-88.0\",\"\",\"\",\"2-3\",\"4138\",\"40\",\"1\",\"Training\",\"Stims/Figures/102-J-10-4.bmp\",\"paka:ka\",\"Down\",\"40\",\"6\",\"5\",\"4\",\"P\",\"C\",\"85\"
\"\",\"\",\"approach-retreat\",\"89\",\"706811\",\"0.0-89.0\",\"\",\"\",\"2-3\",\"3983\",\"37\",\"0\",\"Training\",\"Stims/Figures/86-C-30-1.bmp\",\"ma:ma:la\",\"Left\",\"39\",\"6\",\"6\",\"4\",\"S\",\"C\",\"86\"
\"\",\"\",\"approach-retreat\",\"90\",\"712303\",\"0.0-90.0\",\"\",\"\",\"2-3\",\"3976\",\"40\",\"1\",\"Training\",\"Stims/Figures/85-J-0-2.bmp\",\"ta:ka:ka\",\"Down\",\"40\",\"6\",\"7\",\"4\",\"P\",\"C\",\"87\"
\"\",\"\",\"approach-retreat\",\"91\",\"717867\",\"0.0-91.0\",\"\",\"\",\"2-3\",\"4047\",\"37\",\"1\",\"Training\",\"Stims/Figures/87-C-20-4.bmp\",\"na:mala\",\"Right\",\"37\",\"6\",\"8\",\"4\",\"S\",\"C\",\"88\"
\"\",\"\",\"approach-retreat\",\"92\",\"723299\",\"0.0-92.0\",\"\",\"\",\"2-3\",\"3917\",\"37\",\"1\",\"Training\",\"Stims/Figures/85-C-20-2.bmp\",\"na:lala\",\"Right\",\"37\",\"6\",\"9\",\"4\",\"S\",\"C\",\"89\"
\"\",\"\",\"approach-retreat\",\"93\",\"729030\",\"0.0-93.0\",\"\",\"\",\"2-3\",\"4210\",\"40\",\"1\",\"Training\",\"Stims/Figures/102-C-20-4.bmp\",\"ma:mala\",\"Up\",\"40\",\"6\",\"10\",\"4\",\"S\",\"C\",\"90\"
\"\",\"\",\"approach-retreat\",\"94\",\"734913\",\"0.0-94.0\",\"\",\"\",\"2-3\",\"4365\",\"39\",\"1\",\"Training\",\"Stims/Figures/27-C-30-1.bmp\",\"nalana\",\"Left\",\"39\",\"6\",\"11\",\"4\",\"S\",\"C\",\"91\"
\"\",\"\",\"approach-retreat\",\"95\",\"740595\",\"0.0-95.0\",\"\",\"\",\"2-3\",\"4163\",\"38\",\"1\",\"Training\",\"Stims/Figures/44-C-30-3.bmp\",\"mamana\",\"Down\",\"38\",\"6\",\"12\",\"4\",\"S\",\"C\",\"92\"
\"\",\"\",\"approach-retreat\",\"96\",\"746161\",\"0.0-96.0\",\"\",\"\",\"2-3\",\"4050\",\"37\",\"1\",\"Training\",\"Stims/Figures/27-J-0-1.bmp\",\"tapaka\",\"Left\",\"37\",\"6\",\"13\",\"4\",\"P\",\"C\",\"93\"
\"\",\"\",\"approach-retreat\",\"97\",\"752095\",\"0.0-97.0\",\"\",\"\",\"2-3\",\"4417\",\"40\",\"1\",\"Training\",\"Stims/Figures/118-C-20-2.bmp\",\"ma:la:la\",\"Up\",\"40\",\"6\",\"14\",\"4\",\"S\",\"C\",\"94\"
\"\",\"\",\"approach-retreat\",\"98\",\"757715\",\"0.0-98.0\",\"\",\"\",\"2-3\",\"4104\",\"37\",\"1\",\"Training\",\"Stims/Figures/128-J-10-3.bmp\",\"papata\",\"Left\",\"37\",\"6\",\"15\",\"4\",\"P\",\"C\",\"95\"
\"\",\"\",\"approach-retreat\",\"99\",\"763262\",\"0.0-99.0\",\"\",\"\",\"2-3\",\"4030\",\"37\",\"1\",\"Training\",\"Stims/Figures/128-C-30-3.bmp\",\"namala\",\"Right\",\"37\",\"6\",\"16\",\"4\",\"S\",\"C\",\"96\"
\"\",\"\",\"approach-retreat\",\"100\",\"768883\",\"0.0-100.0\",\"\",\"\",\"2-3\",\"4105\",\"40\",\"1\",\"Training\",\"Stims/Figures/87-C-20-4.bmp\",\"na:mala\",\"Up\",\"40\",\"7\",\"1\",\"4\",\"S\",\"C\",\"97\"
\"\",\"\",\"approach-retreat\",\"101\",\"774429\",\"0.0-101.0\",\"\",\"\",\"2-3\",\"4031\",\"38\",\"1\",\"Training\",\"Stims/Figures/118-J-0-2.bmp\",\"ta:pa:ta\",\"Up\",\"38\",\"7\",\"2\",\"4\",\"P\",\"C\",\"98\"
\"\",\"\",\"approach-retreat\",\"102\",\"780511\",\"0.0-102.0\",\"\",\"\",\"2-3\",\"4562\",\"39\",\"1\",\"Training\",\"Stims/Figures/102-C-20-4.bmp\",\"ma:mala\",\"Left\",\"39\",\"7\",\"3\",\"4\",\"S\",\"C\",\"99\"
\"\",\"\",\"approach-retreat\",\"103\",\"785991\",\"0.0-103.0\",\"\",\"\",\"2-3\",\"3961\",\"37\",\"1\",\"Training\",\"Stims/Figures/44-J-10-3.bmp\",\"tapa:ta\",\"Left\",\"37\",\"7\",\"4\",\"4\",\"P\",\"C\",\"100\"
\"\",\"\",\"approach-retreat\",\"104\",\"791548\",\"0.0-104.0\",\"\",\"\",\"2-3\",\"4041\",\"40\",\"1\",\"Training\",\"Stims/Figures/128-J-10-3.bmp\",\"papata\",\"Down\",\"40\",\"7\",\"5\",\"4\",\"P\",\"C\",\"101\"
\"\",\"\",\"approach-retreat\",\"105\",\"797571\",\"0.0-105.0\",\"\",\"\",\"2-3\",\"4506\",\"38\",\"1\",\"Training\",\"Stims/Figures/102-J-10-4.bmp\",\"paka:ka\",\"Up\",\"38\",\"7\",\"6\",\"4\",\"P\",\"C\",\"102\"
\"\",\"\",\"approach-retreat\",\"106\",\"803821\",\"0.0-106.0\",\"\",\"\",\"2-3\",\"4732\",\"38\",\"1\",\"Training\",\"Stims/Figures/128-C-30-3.bmp\",\"namala\",\"Down\",\"38\",\"7\",\"7\",\"4\",\"S\",\"C\",\"103\"
\"\",\"\",\"approach-retreat\",\"107\",\"809503\",\"0.0-107.0\",\"\",\"\",\"2-3\",\"4166\",\"40\",\"1\",\"Training\",\"Stims/Figures/27-J-0-1.bmp\",\"tapaka\",\"Down\",\"40\",\"7\",\"8\",\"4\",\"P\",\"C\",\"104\"
\"\",\"\",\"approach-retreat\",\"108\",\"815367\",\"0.0-108.0\",\"\",\"\",\"2-3\",\"4344\",\"39\",\"1\",\"Training\",\"Stims/Figures/118-C-20-2.bmp\",\"ma:la:la\",\"Left\",\"39\",\"7\",\"9\",\"4\",\"S\",\"C\",\"105\"
\"\",\"\",\"approach-retreat\",\"109\",\"820855\",\"0.0-109.0\",\"\",\"\",\"2-3\",\"3972\",\"37\",\"1\",\"Training\",\"Stims/Figures/85-C-20-2.bmp\",\"na:lala\",\"Right\",\"37\",\"7\",\"10\",\"4\",\"S\",\"C\",\"106\"
\"\",\"\",\"approach-retreat\",\"110\",\"826542\",\"0.0-110.0\",\"\",\"\",\"2-3\",\"4168\",\"38\",\"1\",\"Training\",\"Stims/Figures/86-C-30-1.bmp\",\"ma:ma:la\",\"Down\",\"38\",\"7\",\"11\",\"4\",\"S\",\"C\",\"107\"
\"\",\"\",\"approach-retreat\",\"111\",\"832164\",\"0.0-111.0\",\"\",\"\",\"2-3\",\"4104\",\"40\",\"1\",\"Training\",\"Stims/Figures/27-C-30-1.bmp\",\"nalana\",\"Up\",\"40\",\"7\",\"12\",\"4\",\"S\",\"C\",\"108\"
\"\",\"\",\"approach-retreat\",\"112\",\"837945\",\"0.0-112.0\",\"\",\"\",\"2-3\",\"4262\",\"37\",\"1\",\"Training\",\"Stims/Figures/44-C-30-3.bmp\",\"mamana\",\"Right\",\"37\",\"7\",\"13\",\"4\",\"S\",\"C\",\"109\"
\"\",\"\",\"approach-retreat\",\"113\",\"843558\",\"0.0-113.0\",\"\",\"\",\"2-3\",\"4096\",\"37\",\"1\",\"Training\",\"Stims/Figures/86-J-0-1.bmp\",\"taka:ta\",\"Left\",\"37\",\"7\",\"14\",\"4\",\"P\",\"C\",\"110\"
\"\",\"\",\"approach-retreat\",\"114\",\"849439\",\"0.0-114.0\",\"\",\"\",\"2-3\",\"4366\",\"39\",\"1\",\"Training\",\"Stims/Figures/87-J-10-4.bmp\",\"papa:ka\",\"Right\",\"39\",\"7\",\"15\",\"4\",\"P\",\"C\",\"111\"
\"\",\"\",\"approach-retreat\",\"115\",\"854973\",\"0.0-115.0\",\"\",\"\",\"2-3\",\"4017\",\"39\",\"1\",\"Training\",\"Stims/Figures/85-J-0-2.bmp\",\"ta:ka:ka\",\"Right\",\"39\",\"7\",\"16\",\"4\",\"P\",\"C\",\"112\"
\"\",\"\",\"approach-retreat\",\"116\",\"860539\",\"0.0-116.0\",\"\",\"\",\"2-3\",\"4049\",\"38\",\"1\",\"Training\",\"Stims/Figures/27-J-0-1.bmp\",\"tapaka\",\"Up\",\"38\",\"8\",\"1\",\"4\",\"P\",\"C\",\"113\"
\"\",\"\",\"approach-retreat\",\"117\",\"866085\",\"0.0-117.0\",\"\",\"\",\"2-3\",\"4032\",\"37\",\"1\",\"Training\",\"Stims/Figures/87-C-20-4.bmp\",\"na:mala\",\"Right\",\"37\",\"8\",\"2\",\"4\",\"S\",\"C\",\"114\"
\"\",\"\",\"approach-retreat\",\"118\",\"871647\",\"0.0-118.0\",\"\",\"\",\"2-3\",\"4044\",\"39\",\"1\",\"Training\",\"Stims/Figures/102-J-10-4.bmp\",\"paka:ka\",\"Right\",\"39\",\"8\",\"3\",\"4\",\"P\",\"C\",\"115\"
\"\",\"\",\"approach-retreat\",\"119\",\"877552\",\"0.0-119.0\",\"\",\"\",\"2-3\",\"4387\",\"40\",\"0\",\"Training\",\"Stims/Figures/86-C-30-1.bmp\",\"ma:ma:la\",\"Down\",\"38\",\"8\",\"4\",\"4\",\"S\",\"C\",\"116\"
\"\",\"\",\"approach-retreat\",\"120\",\"883166\",\"0.0-120.0\",\"\",\"\",\"2-3\",\"4092\",\"40\",\"1\",\"Training\",\"Stims/Figures/87-J-10-4.bmp\",\"papa:ka\",\"Down\",\"40\",\"8\",\"5\",\"4\",\"P\",\"C\",\"117\"
\"\",\"\",\"approach-retreat\",\"121\",\"888700\",\"0.0-121.0\",\"\",\"\",\"2-3\",\"4015\",\"40\",\"1\",\"Training\",\"Stims/Figures/118-J-0-2.bmp\",\"ta:pa:ta\",\"Down\",\"40\",\"8\",\"6\",\"4\",\"P\",\"C\",\"118\"
\"\",\"\",\"approach-retreat\",\"122\",\"894215\",\"0.0-122.0\",\"\",\"\",\"2-3\",\"3998\",\"39\",\"1\",\"Training\",\"Stims/Figures/44-J-10-3.bmp\",\"tapa:ta\",\"Right\",\"39\",\"8\",\"7\",\"4\",\"P\",\"C\",\"119\"
\"\",\"\",\"approach-retreat\",\"123\",\"899825\",\"0.0-123.0\",\"\",\"\",\"2-3\",\"4094\",\"38\",\"0\",\"Training\",\"Stims/Figures/102-C-20-4.bmp\",\"ma:mala\",\"Up\",\"40\",\"8\",\"8\",\"4\",\"S\",\"C\",\"120\"
\"\",\"\",\"approach-retreat\",\"124\",\"906013\",\"0.0-124.0\",\"\",\"\",\"2-3\",\"4665\",\"39\",\"1\",\"Training\",\"Stims/Figures/128-J-10-3.bmp\",\"papata\",\"Right\",\"39\",\"8\",\"9\",\"4\",\"P\",\"C\",\"121\"
\"\",\"\",\"approach-retreat\",\"125\",\"911581\",\"0.0-125.0\",\"\",\"\",\"2-3\",\"4051\",\"40\",\"1\",\"Training\",\"Stims/Figures/27-C-30-1.bmp\",\"nalana\",\"Up\",\"40\",\"8\",\"10\",\"4\",\"S\",\"C\",\"122\"
\"\",\"\",\"approach-retreat\",\"126\",\"917259\",\"0.0-126.0\",\"\",\"\",\"2-3\",\"4160\",\"40\",\"1\",\"Training\",\"Stims/Figures/44-C-30-3.bmp\",\"mamana\",\"Up\",\"40\",\"8\",\"11\",\"4\",\"S\",\"C\",\"123\"
\"\",\"\",\"approach-retreat\",\"127\",\"923249\",\"0.0-127.0\",\"\",\"\",\"2-3\",\"4472\",\"40\",\"1\",\"Training\",\"Stims/Figures/86-J-0-1.bmp\",\"taka:ta\",\"Down\",\"40\",\"8\",\"12\",\"4\",\"P\",\"C\",\"124\"
\"\",\"\",\"approach-retreat\",\"128\",\"929182\",\"0.0-128.0\",\"\",\"\",\"2-3\",\"4416\",\"39\",\"1\",\"Training\",\"Stims/Figures/118-C-20-2.bmp\",\"ma:la:la\",\"Left\",\"39\",\"8\",\"13\",\"4\",\"S\",\"C\",\"125\"
\"\",\"\",\"approach-retreat\",\"129\",\"935090\",\"0.0-129.0\",\"\",\"\",\"2-3\",\"4388\",\"39\",\"1\",\"Training\",\"Stims/Figures/128-C-30-3.bmp\",\"namala\",\"Left\",\"39\",\"8\",\"14\",\"4\",\"S\",\"C\",\"126\"
\"\",\"\",\"approach-retreat\",\"130\",\"941028\",\"0.0-130.0\",\"\",\"\",\"2-3\",\"4421\",\"37\",\"1\",\"Training\",\"Stims/Figures/85-J-0-2.bmp\",\"ta:ka:ka\",\"Left\",\"37\",\"8\",\"15\",\"4\",\"P\",\"C\",\"127\"
\"\",\"\",\"approach-retreat\",\"131\",\"947107\",\"0.0-131.0\",\"\",\"\",\"2-3\",\"4560\",\"39\",\"1\",\"Training\",\"Stims/Figures/85-C-20-2.bmp\",\"na:lala\",\"Left\",\"39\",\"8\",\"16\",\"4\",\"S\",\"C\",\"128\"
\"\",\"\",\"approach-retreat\",\"132\",\"952804\",\"0.0-132.0\",\"\",\"\",\"2-3\",\"4180\",\"37\",\"1\",\"Training\",\"Stims/Figures/44-C-30-3.bmp\",\"mamana\",\"Right\",\"37\",\"9\",\"1\",\"4\",\"S\",\"C\",\"129\"
\"\",\"\",\"approach-retreat\",\"133\",\"958341\",\"0.0-133.0\",\"\",\"\",\"2-3\",\"4020\",\"37\",\"1\",\"Training\",\"Stims/Figures/44-J-10-3.bmp\",\"tapa:ta\",\"Left\",\"37\",\"9\",\"2\",\"4\",\"P\",\"C\",\"130\"
\"\",\"\",\"approach-retreat\",\"134\",\"963967\",\"0.0-134.0\",\"\",\"\",\"2-3\",\"4106\",\"37\",\"1\",\"Training\",\"Stims/Figures/102-C-20-4.bmp\",\"ma:mala\",\"Right\",\"37\",\"9\",\"3\",\"4\",\"S\",\"C\",\"131\"
\"\",\"\",\"approach-retreat\",\"135\",\"969384\",\"0.0-135.0\",\"\",\"\",\"2-3\",\"3900\",\"37\",\"1\",\"Training\",\"Stims/Figures/86-C-30-1.bmp\",\"ma:ma:la\",\"Right\",\"37\",\"9\",\"4\",\"4\",\"S\",\"C\",\"132\"
\"\",\"\",\"approach-retreat\",\"136\",\"975037\",\"0.0-136.0\",\"\",\"\",\"2-3\",\"4139\",\"38\",\"1\",\"Training\",\"Stims/Figures/85-C-20-2.bmp\",\"na:lala\",\"Down\",\"38\",\"9\",\"5\",\"4\",\"S\",\"C\",\"133\"
\"\",\"\",\"approach-retreat\",\"137\",\"980746\",\"0.0-137.0\",\"\",\"\",\"2-3\",\"4194\",\"40\",\"1\",\"Training\",\"Stims/Figures/27-C-30-1.bmp\",\"nalana\",\"Up\",\"40\",\"9\",\"6\",\"4\",\"S\",\"C\",\"134\"
\"\",\"\",\"approach-retreat\",\"138\",\"986646\",\"0.0-138.0\",\"\",\"\",\"2-3\",\"4385\",\"39\",\"1\",\"Training\",\"Stims/Figures/87-C-20-4.bmp\",\"na:mala\",\"Left\",\"39\",\"9\",\"7\",\"4\",\"S\",\"C\",\"135\"
\"\",\"\",\"approach-retreat\",\"139\",\"992085\",\"0.0-139.0\",\"\",\"\",\"2-3\",\"3923\",\"37\",\"1\",\"Training\",\"Stims/Figures/128-J-10-3.bmp\",\"papata\",\"Left\",\"37\",\"9\",\"8\",\"4\",\"P\",\"C\",\"136\"
\"\",\"\",\"approach-retreat\",\"140\",\"997860\",\"0.0-140.0\",\"\",\"\",\"2-3\",\"4259\",\"40\",\"1\",\"Training\",\"Stims/Figures/87-J-10-4.bmp\",\"papa:ka\",\"Down\",\"40\",\"9\",\"9\",\"4\",\"P\",\"C\",\"137\"
\"\",\"\",\"approach-retreat\",\"141\",\"1003640\",\"0.0-141.0\",\"\",\"\",\"2-3\",\"4259\",\"37\",\"1\",\"Training\",\"Stims/Figures/85-J-0-2.bmp\",\"ta:ka:ka\",\"Left\",\"37\",\"9\",\"10\",\"4\",\"P\",\"C\",\"138\"
\"\",\"\",\"approach-retreat\",\"142\",\"1009345\",\"0.0-142.0\",\"\",\"\",\"2-3\",\"4187\",\"40\",\"1\",\"Training\",\"Stims/Figures/86-J-0-1.bmp\",\"taka:ta\",\"Down\",\"40\",\"9\",\"11\",\"4\",\"P\",\"C\",\"139\"
\"\",\"\",\"approach-retreat\",\"143\",\"1014849\",\"0.0-143.0\",\"\",\"\",\"2-3\",\"3985\",\"39\",\"1\",\"Training\",\"Stims/Figures/27-J-0-1.bmp\",\"tapaka\",\"Right\",\"39\",\"9\",\"12\",\"4\",\"P\",\"C\",\"140\"
\"\",\"\",\"approach-retreat\",\"144\",\"1020499\",\"0.0-144.0\",\"\",\"\",\"2-3\",\"4134\",\"38\",\"1\",\"Training\",\"Stims/Figures/118-J-0-2.bmp\",\"ta:pa:ta\",\"Up\",\"38\",\"9\",\"13\",\"4\",\"P\",\"C\",\"141\"
\"\",\"\",\"approach-retreat\",\"145\",\"1026296\",\"0.0-145.0\",\"\",\"\",\"2-3\",\"4277\",\"40\",\"1\",\"Training\",\"Stims/Figures/102-J-10-4.bmp\",\"paka:ka\",\"Down\",\"40\",\"9\",\"14\",\"4\",\"P\",\"C\",\"142\"
\"\",\"\",\"approach-retreat\",\"146\",\"1032021\",\"0.0-146.0\",\"\",\"\",\"2-3\",\"4203\",\"38\",\"0\",\"Training\",\"Stims/Figures/118-C-20-2.bmp\",\"ma:la:la\",\"Up\",\"40\",\"9\",\"15\",\"4\",\"S\",\"C\",\"143\"
\"\",\"\",\"approach-retreat\",\"147\",\"1037569\",\"0.0-147.0\",\"\",\"\",\"2-3\",\"4031\",\"40\",\"1\",\"Training\",\"Stims/Figures/128-C-30-3.bmp\",\"namala\",\"Up\",\"40\",\"9\",\"16\",\"4\",\"S\",\"C\",\"144\"
\"15589\",\"\",\"instructions\",\"148\",\"1053159\",\"0.0-148.0\",\"[{\"\"page_index\"\":0,\"\"viewing_time\"\":15585}]\",\"\",\"\",\"\",\"\",\"\",\"\",\"\",\"\",\"\",\"\",\"\",\"\",\"\",\"\",\"\",\"\"
\"\",\"\",\"approach-retreat\",\"149\",\"1059402\",\"0.0-149.0\",\"\",\"\",\"2-3\",\"4733\",\"40\",\"1\",\"Testing\",\"Stims/Figures/71-J-0-1.bmp\",\"tapa:ka\",\"Down\",\"40\",\"1\",\"1\",\"4\",\"P\",\"C\",\"1\"
\"\",\"\",\"approach-retreat\",\"150\",\"1065338\",\"0.0-150.0\",\"\",\"\",\"2-3\",\"4420\",\"37\",\"1\",\"Testing\",\"Stims/Figures/85-J-0-2.bmp\",\"ta:ka:ka\",\"Left\",\"37\",\"1\",\"2\",\"4\",\"P\",\"C\",\"2\"
\"\",\"\",\"approach-retreat\",\"151\",\"1070860\",\"0.0-151.0\",\"\",\"\",\"2-3\",\"4008\",\"40\",\"1\",\"Testing\",\"Stims/Figures/102-C-20-4.bmp\",\"ma:mala\",\"Up\",\"40\",\"1\",\"3\",\"4\",\"S\",\"C\",\"3\"
\"\",\"\",\"approach-retreat\",\"152\",\"1076610\",\"0.0-152.0\",\"\",\"\",\"2-3\",\"4237\",\"40\",\"1\",\"Testing\",\"Stims/Figures/27-J-0-1.bmp\",\"tapaka\",\"Down\",\"40\",\"1\",\"4\",\"4\",\"P\",\"C\",\"4\"
\"\",\"\",\"approach-retreat\",\"153\",\"1082629\",\"0.0-153.0\",\"\",\"\",\"2-3\",\"4507\",\"40\",\"1\",\"Testing\",\"Stims/Figures/44-C-30-3.bmp\",\"mamana\",\"Up\",\"40\",\"1\",\"5\",\"4\",\"S\",\"C\",\"5\"
\"\",\"\",\"approach-retreat\",\"154\",\"1088505\",\"0.0-154.0\",\"\",\"\",\"2-3\",\"4363\",\"37\",\"1\",\"Testing\",\"Stims/Figures/7-C-20-4.bmp\",\"mama:la\",\"Right\",\"37\",\"1\",\"6\",\"4\",\"S\",\"C\",\"6\"
\"\",\"\",\"approach-retreat\",\"155\",\"1093970\",\"0.0-155.0\",\"\",\"\",\"2-3\",\"3953\",\"37\",\"1\",\"Testing\",\"Stims/Figures/85-C-20-2.bmp\",\"na:lala\",\"Right\",\"37\",\"1\",\"7\",\"4\",\"S\",\"C\",\"7\"
\"\",\"\",\"approach-retreat\",\"156\",\"1099385\",\"0.0-156.0\",\"\",\"\",\"2-3\",\"3905\",\"37\",\"1\",\"Testing\",\"Stims/Figures/44-J-10-3.bmp\",\"tapa:ta\",\"Left\",\"37\",\"1\",\"8\",\"4\",\"P\",\"C\",\"8\"
\"\",\"\",\"approach-retreat\",\"157\",\"1105500\",\"0.0-157.0\",\"\",\"\",\"2-3\",\"4603\",\"40\",\"1\",\"Testing\",\"Stims/Figures/87-J-10-4.bmp\",\"papa:ka\",\"Down\",\"40\",\"1\",\"9\",\"4\",\"P\",\"C\",\"9\"
\"\",\"\",\"approach-retreat\",\"158\",\"1111606\",\"0.0-158.0\",\"\",\"\",\"2-3\",\"4592\",\"40\",\"1\",\"Testing\",\"Stims/Figures/128-C-30-3.bmp\",\"namala\",\"Up\",\"40\",\"1\",\"10\",\"4\",\"S\",\"C\",\"10\"
\"\",\"\",\"approach-retreat\",\"159\",\"1117688\",\"0.0-159.0\",\"\",\"\",\"2-3\",\"4566\",\"39\",\"1\",\"Testing\",\"Stims/Figures/71-C-30-1.bmp\",\"mama:na\",\"Left\",\"39\",\"1\",\"11\",\"4\",\"S\",\"C\",\"11\"
\"\",\"\",\"approach-retreat\",\"160\",\"1123344\",\"0.0-160.0\",\"\",\"\",\"2-3\",\"4143\",\"40\",\"1\",\"Testing\",\"Stims/Figures/86-C-30-1.bmp\",\"ma:ma:la\",\"Up\",\"40\",\"1\",\"12\",\"4\",\"S\",\"C\",\"12\"
\"\",\"\",\"approach-retreat\",\"161\",\"1128880\",\"0.0-161.0\",\"\",\"\",\"2-3\",\"4024\",\"39\",\"1\",\"Testing\",\"Stims/Figures/118-J-0-2.bmp\",\"ta:pa:ta\",\"Right\",\"39\",\"1\",\"13\",\"4\",\"P\",\"C\",\"13\"
\"\",\"\",\"approach-retreat\",\"162\",\"1134904\",\"0.0-162.0\",\"\",\"\",\"2-3\",\"4512\",\"40\",\"1\",\"Testing\",\"Stims/Figures/94-J-0-2.bmp\",\"pa:pata\",\"Down\",\"40\",\"1\",\"14\",\"4\",\"P\",\"C\",\"14\"
\"\",\"\",\"approach-retreat\",\"163\",\"1141192\",\"0.0-163.0\",\"\",\"\",\"2-3\",\"4774\",\"38\",\"1\",\"Testing\",\"Stims/Figures/27-C-30-1.bmp\",\"nalana\",\"Down\",\"38\",\"1\",\"15\",\"4\",\"S\",\"C\",\"15\"
\"\",\"\",\"approach-retreat\",\"164\",\"1147125\",\"0.0-164.0\",\"\",\"\",\"2-3\",\"4421\",\"40\",\"1\",\"Testing\",\"Stims/Figures/144-C-30-3.bmp\",\"nama:la\",\"Up\",\"40\",\"1\",\"16\",\"4\",\"S\",\"C\",\"16\"
\"\",\"\",\"approach-retreat\",\"165\",\"1152723\",\"0.0-165.0\",\"\",\"\",\"2-3\",\"4071\",\"37\",\"1\",\"Testing\",\"Stims/Figures/87-C-20-4.bmp\",\"na:mala\",\"Right\",\"37\",\"1\",\"17\",\"4\",\"S\",\"C\",\"17\"
\"\",\"\",\"approach-retreat\",\"166\",\"1158478\",\"0.0-166.0\",\"\",\"\",\"2-3\",\"4241\",\"40\",\"1\",\"Testing\",\"Stims/Figures/144-J-10-3.bmp\",\"takaka\",\"Down\",\"40\",\"1\",\"18\",\"4\",\"P\",\"C\",\"18\"
\"\",\"\",\"approach-retreat\",\"167\",\"1164097\",\"0.0-167.0\",\"\",\"\",\"2-3\",\"4090\",\"39\",\"1\",\"Testing\",\"Stims/Figures/118-C-20-2.bmp\",\"ma:la:la\",\"Left\",\"39\",\"1\",\"19\",\"4\",\"S\",\"C\",\"19\"
\"\",\"\",\"approach-retreat\",\"168\",\"1169752\",\"0.0-168.0\",\"\",\"\",\"2-3\",\"4146\",\"38\",\"1\",\"Testing\",\"Stims/Figures/7-J-10-4.bmp\",\"ta:paka\",\"Up\",\"38\",\"1\",\"20\",\"4\",\"P\",\"C\",\"20\"
\"\",\"\",\"approach-retreat\",\"169\",\"1175325\",\"0.0-169.0\",\"\",\"\",\"2-3\",\"4061\",\"39\",\"1\",\"Testing\",\"Stims/Figures/102-J-10-4.bmp\",\"paka:ka\",\"Right\",\"39\",\"1\",\"21\",\"4\",\"P\",\"C\",\"21\"
\"\",\"\",\"approach-retreat\",\"170\",\"1181464\",\"0.0-170.0\",\"\",\"\",\"2-3\",\"4624\",\"37\",\"1\",\"Testing\",\"Stims/Figures/86-J-0-1.bmp\",\"taka:ta\",\"Left\",\"37\",\"1\",\"22\",\"4\",\"P\",\"C\",\"22\"
\"\",\"\",\"approach-retreat\",\"171\",\"1187778\",\"0.0-171.0\",\"\",\"\",\"2-3\",\"4803\",\"39\",\"1\",\"Testing\",\"Stims/Figures/94-C-20-2.bmp\",\"ma:ma:na\",\"Left\",\"39\",\"1\",\"23\",\"4\",\"S\",\"C\",\"23\"
\"\",\"\",\"approach-retreat\",\"172\",\"1193514\",\"0.0-172.0\",\"\",\"\",\"2-3\",\"4222\",\"37\",\"0\",\"Testing\",\"Stims/Figures/128-J-10-3.bmp\",\"papata\",\"Right\",\"39\",\"1\",\"24\",\"4\",\"P\",\"C\",\"24\"
\"\",\"\",\"approach-retreat\",\"173\",\"1199237\",\"0.0-173.0\",\"\",\"\",\"2-3\",\"4206\",\"40\",\"1\",\"Testing\",\"Stims/Figures/44-J-10-3.bmp\",\"tapa:ta\",\"Down\",\"40\",\"2\",\"1\",\"4\",\"P\",\"C\",\"25\"
\"\",\"\",\"approach-retreat\",\"174\",\"1204941\",\"0.0-174.0\",\"\",\"\",\"2-3\",\"4188\",\"40\",\"1\",\"Testing\",\"Stims/Figures/102-J-10-4.bmp\",\"paka:ka\",\"Down\",\"40\",\"2\",\"2\",\"4\",\"P\",\"C\",\"26\"
\"\",\"\",\"approach-retreat\",\"175\",\"1211623\",\"0.0-175.0\",\"\",\"\",\"2-3\",\"5170\",\"39\",\"1\",\"Testing\",\"Stims/Figures/128-J-10-3.bmp\",\"papata\",\"Right\",\"39\",\"2\",\"3\",\"4\",\"P\",\"C\",\"27\"
\"\",\"\",\"approach-retreat\",\"176\",\"1217529\",\"0.0-176.0\",\"\",\"\",\"2-3\",\"4389\",\"39\",\"1\",\"Testing\",\"Stims/Figures/44-C-30-3.bmp\",\"mamana\",\"Left\",\"39\",\"2\",\"4\",\"4\",\"S\",\"C\",\"28\"
\"\",\"\",\"approach-retreat\",\"177\",\"1223229\",\"0.0-177.0\",\"\",\"\",\"2-3\",\"4188\",\"39\",\"1\",\"Testing\",\"Stims/Figures/102-C-20-4.bmp\",\"ma:mala\",\"Left\",\"39\",\"2\",\"5\",\"4\",\"S\",\"C\",\"29\"
\"\",\"\",\"approach-retreat\",\"178\",\"1228787\",\"0.0-178.0\",\"\",\"\",\"2-3\",\"4046\",\"39\",\"1\",\"Testing\",\"Stims/Figures/118-C-20-2.bmp\",\"ma:la:la\",\"Left\",\"39\",\"2\",\"6\",\"4\",\"S\",\"C\",\"30\"
\"\",\"\",\"approach-retreat\",\"179\",\"1235560\",\"0.0-179.0\",\"\",\"\",\"2-3\",\"5260\",\"40\",\"1\",\"Testing\",\"Stims/Figures/86-C-30-1.bmp\",\"ma:ma:la\",\"Up\",\"40\",\"2\",\"7\",\"4\",\"S\",\"C\",\"31\"
\"\",\"\",\"approach-retreat\",\"180\",\"1241844\",\"0.0-180.0\",\"\",\"\",\"2-3\",\"4771\",\"38\",\"0\",\"Testing\",\"Stims/Figures/144-J-10-3.bmp\",\"takaka\",\"Down\",\"40\",\"2\",\"8\",\"4\",\"P\",\"C\",\"32\"
\"\",\"\",\"approach-retreat\",\"181\",\"1247795\",\"0.0-181.0\",\"\",\"\",\"2-3\",\"4442\",\"37\",\"1\",\"Testing\",\"Stims/Figures/7-C-20-4.bmp\",\"mama:la\",\"Right\",\"37\",\"2\",\"9\",\"4\",\"S\",\"C\",\"33\"
\"\",\"\",\"approach-retreat\",\"182\",\"1253534\",\"0.0-182.0\",\"\",\"\",\"2-3\",\"4229\",\"40\",\"1\",\"Testing\",\"Stims/Figures/87-C-20-4.bmp\",\"na:mala\",\"Up\",\"40\",\"2\",\"10\",\"4\",\"S\",\"C\",\"34\"
\"\",\"\",\"approach-retreat\",\"183\",\"1259161\",\"0.0-183.0\",\"\",\"\",\"2-3\",\"4115\",\"40\",\"1\",\"Testing\",\"Stims/Figures/71-C-30-1.bmp\",\"mama:na\",\"Up\",\"40\",\"2\",\"11\",\"4\",\"S\",\"C\",\"35\"
\"\",\"\",\"approach-retreat\",\"184\",\"1264953\",\"0.0-184.0\",\"\",\"\",\"2-3\",\"4283\",\"39\",\"1\",\"Testing\",\"Stims/Figures/85-C-20-2.bmp\",\"na:lala\",\"Left\",\"39\",\"2\",\"12\",\"4\",\"S\",\"C\",\"36\"
\"\",\"\",\"approach-retreat\",\"185\",\"1270700\",\"0.0-185.0\",\"\",\"\",\"2-3\",\"4231\",\"39\",\"0\",\"Testing\",\"Stims/Figures/94-J-0-2.bmp\",\"pa:pata\",\"Left\",\"37\",\"2\",\"13\",\"4\",\"P\",\"C\",\"37\"
\"\",\"\",\"approach-retreat\",\"186\",\"1276760\",\"0.0-186.0\",\"\",\"\",\"2-3\",\"4544\",\"38\",\"0\",\"Testing\",\"Stims/Figures/27-J-0-1.bmp\",\"tapaka\",\"Down\",\"40\",\"2\",\"14\",\"4\",\"P\",\"C\",\"38\"
\"\",\"\",\"approach-retreat\",\"187\",\"1282807\",\"0.0-187.0\",\"\",\"\",\"2-3\",\"4534\",\"39\",\"1\",\"Testing\",\"Stims/Figures/118-J-0-2.bmp\",\"ta:pa:ta\",\"Right\",\"39\",\"2\",\"15\",\"4\",\"P\",\"C\",\"39\"
\"\",\"\",\"approach-retreat\",\"188\",\"1288646\",\"0.0-188.0\",\"\",\"\",\"2-3\",\"4330\",\"38\",\"1\",\"Testing\",\"Stims/Figures/71-J-0-1.bmp\",\"tapa:ka\",\"Up\",\"38\",\"2\",\"16\",\"4\",\"P\",\"C\",\"40\"
\"\",\"\",\"approach-retreat\",\"189\",\"1294410\",\"0.0-189.0\",\"\",\"\",\"2-3\",\"4255\",\"37\",\"1\",\"Testing\",\"Stims/Figures/128-C-30-3.bmp\",\"namala\",\"Right\",\"37\",\"2\",\"17\",\"4\",\"S\",\"C\",\"41\"
\"\",\"\",\"approach-retreat\",\"190\",\"1300479\",\"0.0-190.0\",\"\",\"\",\"2-3\",\"4553\",\"39\",\"1\",\"Testing\",\"Stims/Figures/87-J-10-4.bmp\",\"papa:ka\",\"Right\",\"39\",\"2\",\"18\",\"4\",\"P\",\"C\",\"42\"
\"\",\"\",\"approach-retreat\",\"191\",\"1306233\",\"0.0-191.0\",\"\",\"\",\"2-3\",\"4243\",\"38\",\"1\",\"Testing\",\"Stims/Figures/94-C-20-2.bmp\",\"ma:ma:na\",\"Down\",\"38\",\"2\",\"19\",\"4\",\"S\",\"C\",\"43\"
\"\",\"\",\"approach-retreat\",\"192\",\"1311866\",\"0.0-192.0\",\"\",\"\",\"2-3\",\"4126\",\"40\",\"1\",\"Testing\",\"Stims/Figures/144-C-30-3.bmp\",\"nama:la\",\"Up\",\"40\",\"2\",\"20\",\"4\",\"S\",\"C\",\"44\"
\"\",\"\",\"approach-retreat\",\"193\",\"1317509\",\"0.0-193.0\",\"\",\"\",\"2-3\",\"4128\",\"37\",\"1\",\"Testing\",\"Stims/Figures/85-J-0-2.bmp\",\"ta:ka:ka\",\"Left\",\"37\",\"2\",\"21\",\"4\",\"P\",\"C\",\"45\"
\"\",\"\",\"approach-retreat\",\"194\",\"1323162\",\"0.0-194.0\",\"\",\"\",\"2-3\",\"4141\",\"38\",\"1\",\"Testing\",\"Stims/Figures/86-J-0-1.bmp\",\"taka:ta\",\"Up\",\"38\",\"2\",\"22\",\"4\",\"P\",\"C\",\"46\"
\"\",\"\",\"approach-retreat\",\"195\",\"1328701\",\"0.0-195.0\",\"\",\"\",\"2-3\",\"4027\",\"37\",\"1\",\"Testing\",\"Stims/Figures/27-C-30-1.bmp\",\"nalana\",\"Right\",\"37\",\"2\",\"23\",\"4\",\"S\",\"C\",\"47\"
\"\",\"\",\"approach-retreat\",\"196\",\"1335200\",\"0.0-196.0\",\"\",\"\",\"2-3\",\"4986\",\"40\",\"1\",\"Testing\",\"Stims/Figures/7-J-10-4.bmp\",\"ta:paka\",\"Down\",\"40\",\"2\",\"24\",\"4\",\"P\",\"C\",\"48\"
\"\",\"\",\"approach-retreat\",\"197\",\"1340890\",\"0.0-197.0\",\"\",\"\",\"2-3\",\"4178\",\"37\",\"1\",\"Testing\",\"Stims/Figures/102-C-20-4.bmp\",\"ma:mala\",\"Right\",\"37\",\"3\",\"1\",\"4\",\"S\",\"C\",\"49\"
\"\",\"\",\"approach-retreat\",\"198\",\"1346485\",\"0.0-198.0\",\"\",\"\",\"2-3\",\"4079\",\"37\",\"1\",\"Testing\",\"Stims/Figures/94-J-0-2.bmp\",\"pa:pata\",\"Left\",\"37\",\"3\",\"2\",\"4\",\"P\",\"C\",\"50\"
\"\",\"\",\"approach-retreat\",\"199\",\"1352581\",\"0.0-199.0\",\"\",\"\",\"2-3\",\"4584\",\"40\",\"1\",\"Testing\",\"Stims/Figures/86-C-30-1.bmp\",\"ma:ma:la\",\"Up\",\"40\",\"3\",\"3\",\"4\",\"S\",\"C\",\"51\"
\"\",\"\",\"approach-retreat\",\"200\",\"1358374\",\"0.0-200.0\",\"\",\"\",\"2-3\",\"4282\",\"39\",\"1\",\"Testing\",\"Stims/Figures/85-C-20-2.bmp\",\"na:lala\",\"Left\",\"39\",\"3\",\"4\",\"4\",\"S\",\"C\",\"52\"
\"\",\"\",\"approach-retreat\",\"201\",\"1364317\",\"0.0-201.0\",\"\",\"\",\"2-3\",\"4426\",\"37\",\"1\",\"Testing\",\"Stims/Figures/144-C-30-3.bmp\",\"nama:la\",\"Right\",\"37\",\"3\",\"5\",\"4\",\"S\",\"C\",\"53\"
\"\",\"\",\"approach-retreat\",\"202\",\"1370308\",\"0.0-202.0\",\"\",\"\",\"2-3\",\"4476\",\"37\",\"1\",\"Testing\",\"Stims/Figures/94-C-20-2.bmp\",\"ma:ma:na\",\"Right\",\"37\",\"3\",\"6\",\"4\",\"S\",\"C\",\"54\"
\"\",\"\",\"approach-retreat\",\"203\",\"1376110\",\"0.0-203.0\",\"\",\"\",\"2-3\",\"4286\",\"38\",\"1\",\"Testing\",\"Stims/Figures/27-C-30-1.bmp\",\"nalana\",\"Down\",\"38\",\"3\",\"7\",\"4\",\"S\",\"C\",\"55\"
\"\",\"\",\"approach-retreat\",\"204\",\"1381771\",\"0.0-204.0\",\"\",\"\",\"2-3\",\"4148\",\"39\",\"1\",\"Testing\",\"Stims/Figures/44-C-30-3.bmp\",\"mamana\",\"Left\",\"39\",\"3\",\"8\",\"4\",\"S\",\"C\",\"56\"
\"\",\"\",\"approach-retreat\",\"205\",\"1387866\",\"0.0-205.0\",\"\",\"\",\"2-3\",\"4582\",\"39\",\"1\",\"Testing\",\"Stims/Figures/144-J-10-3.bmp\",\"takaka\",\"Right\",\"39\",\"3\",\"9\",\"4\",\"P\",\"C\",\"57\"
\"\",\"\",\"approach-retreat\",\"206\",\"1393891\",\"0.0-206.0\",\"\",\"\",\"2-3\",\"4512\",\"39\",\"1\",\"Testing\",\"Stims/Figures/27-J-0-1.bmp\",\"tapaka\",\"Right\",\"39\",\"3\",\"10\",\"4\",\"P\",\"C\",\"58\"
\"\",\"\",\"approach-retreat\",\"207\",\"1399652\",\"0.0-207.0\",\"\",\"\",\"2-3\",\"4249\",\"39\",\"1\",\"Testing\",\"Stims/Figures/7-J-10-4.bmp\",\"ta:paka\",\"Right\",\"39\",\"3\",\"11\",\"4\",\"P\",\"C\",\"59\"
\"\",\"\",\"approach-retreat\",\"208\",\"1405369\",\"0.0-208.0\",\"\",\"\",\"2-3\",\"4202\",\"38\",\"1\",\"Testing\",\"Stims/Figures/87-J-10-4.bmp\",\"papa:ka\",\"Up\",\"38\",\"3\",\"12\",\"4\",\"P\",\"C\",\"60\"
\"\",\"\",\"approach-retreat\",\"209\",\"1411260\",\"0.0-209.0\",\"\",\"\",\"2-3\",\"4375\",\"37\",\"1\",\"Testing\",\"Stims/Figures/86-J-0-1.bmp\",\"taka:ta\",\"Left\",\"37\",\"3\",\"13\",\"4\",\"P\",\"C\",\"61\"
\"\",\"\",\"approach-retreat\",\"210\",\"1417761\",\"0.0-210.0\",\"\",\"\",\"2-3\",\"4986\",\"39\",\"1\",\"Testing\",\"Stims/Figures/118-C-20-2.bmp\",\"ma:la:la\",\"Left\",\"39\",\"3\",\"14\",\"4\",\"S\",\"C\",\"62\"
\"\",\"\",\"approach-retreat\",\"211\",\"1423622\",\"0.0-211.0\",\"\",\"\",\"2-3\",\"4351\",\"38\",\"1\",\"Testing\",\"Stims/Figures/87-C-20-4.bmp\",\"na:mala\",\"Down\",\"38\",\"3\",\"15\",\"4\",\"S\",\"C\",\"63\"
\"\",\"\",\"approach-retreat\",\"212\",\"1429580\",\"0.0-212.0\",\"\",\"\",\"2-3\",\"4447\",\"40\",\"1\",\"Testing\",\"Stims/Figures/118-J-0-2.bmp\",\"ta:pa:ta\",\"Down\",\"40\",\"3\",\"16\",\"4\",\"P\",\"C\",\"64\"
\"\",\"\",\"approach-retreat\",\"213\",\"1435997\",\"0.0-213.0\",\"\",\"\",\"2-3\",\"4903\",\"38\",\"0\",\"Testing\",\"Stims/Figures/102-J-10-4.bmp\",\"paka:ka\",\"Down\",\"40\",\"3\",\"17\",\"4\",\"P\",\"C\",\"65\"
\"\",\"\",\"approach-retreat\",\"214\",\"1441483\",\"0.0-214.0\",\"\",\"\",\"2-3\",\"3977\",\"38\",\"0\",\"Testing\",\"Stims/Figures/71-C-30-1.bmp\",\"mama:na\",\"Up\",\"40\",\"3\",\"18\",\"4\",\"S\",\"C\",\"66\"
\"\",\"\",\"approach-retreat\",\"215\",\"1447325\",\"0.0-215.0\",\"\",\"\",\"2-3\",\"4336\",\"38\",\"1\",\"Testing\",\"Stims/Figures/71-J-0-1.bmp\",\"tapa:ka\",\"Up\",\"38\",\"3\",\"19\",\"4\",\"P\",\"C\",\"67\"
\"\",\"\",\"approach-retreat\",\"216\",\"1452765\",\"0.0-216.0\",\"\",\"\",\"2-3\",\"3929\",\"39\",\"1\",\"Testing\",\"Stims/Figures/128-C-30-3.bmp\",\"namala\",\"Left\",\"39\",\"3\",\"20\",\"4\",\"S\",\"C\",\"68\"
\"\",\"\",\"approach-retreat\",\"217\",\"1458790\",\"0.0-217.0\",\"\",\"\",\"2-3\",\"4516\",\"38\",\"1\",\"Testing\",\"Stims/Figures/128-J-10-3.bmp\",\"papata\",\"Up\",\"38\",\"3\",\"21\",\"4\",\"P\",\"C\",\"69\"
\"\",\"\",\"approach-retreat\",\"218\",\"1464590\",\"0.0-218.0\",\"\",\"\",\"2-3\",\"4284\",\"38\",\"1\",\"Testing\",\"Stims/Figures/7-C-20-4.bmp\",\"mama:la\",\"Down\",\"38\",\"3\",\"22\",\"4\",\"S\",\"C\",\"70\"
\"\",\"\",\"approach-retreat\",\"219\",\"1470423\",\"0.0-219.0\",\"\",\"\",\"2-3\",\"4319\",\"40\",\"1\",\"Testing\",\"Stims/Figures/44-J-10-3.bmp\",\"tapa:ta\",\"Down\",\"40\",\"3\",\"23\",\"4\",\"P\",\"C\",\"71\"
\"\",\"\",\"approach-retreat\",\"220\",\"1476600\",\"0.0-220.0\",\"\",\"\",\"2-3\",\"4661\",\"38\",\"1\",\"Testing\",\"Stims/Figures/85-J-0-2.bmp\",\"ta:ka:ka\",\"Up\",\"38\",\"3\",\"24\",\"4\",\"P\",\"C\",\"72\"
\"\",\"\",\"approach-retreat\",\"221\",\"1482135\",\"0.0-221.0\",\"\",\"\",\"2-3\",\"4027\",\"40\",\"1\",\"Testing\",\"Stims/Figures/87-C-20-4.bmp\",\"na:mala\",\"Up\",\"40\",\"4\",\"1\",\"4\",\"S\",\"C\",\"73\"
\"\",\"\",\"approach-retreat\",\"222\",\"1488000\",\"0.0-222.0\",\"\",\"\",\"2-3\",\"4352\",\"37\",\"1\",\"Testing\",\"Stims/Figures/7-J-10-4.bmp\",\"ta:paka\",\"Left\",\"37\",\"4\",\"2\",\"4\",\"P\",\"C\",\"74\"
\"\",\"\",\"approach-retreat\",\"223\",\"1493536\",\"0.0-223.0\",\"\",\"\",\"2-3\",\"4024\",\"39\",\"1\",\"Testing\",\"Stims/Figures/144-J-10-3.bmp\",\"takaka\",\"Right\",\"39\",\"4\",\"3\",\"4\",\"P\",\"C\",\"75\"
\"\",\"\",\"approach-retreat\",\"224\",\"1499787\",\"0.0-224.0\",\"\",\"\",\"2-3\",\"4736\",\"40\",\"1\",\"Testing\",\"Stims/Figures/86-C-30-1.bmp\",\"ma:ma:la\",\"Up\",\"40\",\"4\",\"4\",\"4\",\"S\",\"C\",\"76\"
\"\",\"\",\"approach-retreat\",\"225\",\"1505407\",\"0.0-225.0\",\"\",\"\",\"2-3\",\"4108\",\"38\",\"0\",\"Testing\",\"Stims/Figures/102-J-10-4.bmp\",\"paka:ka\",\"Down\",\"40\",\"4\",\"5\",\"4\",\"P\",\"C\",\"77\"
\"\",\"\",\"approach-retreat\",\"226\",\"1511022\",\"0.0-226.0\",\"\",\"\",\"2-3\",\"4102\",\"38\",\"1\",\"Testing\",\"Stims/Figures/87-J-10-4.bmp\",\"papa:ka\",\"Up\",\"38\",\"4\",\"6\",\"4\",\"P\",\"C\",\"78\"
\"\",\"\",\"approach-retreat\",\"227\",\"1517127\",\"0.0-227.0\",\"\",\"\",\"2-3\",\"4595\",\"37\",\"1\",\"Testing\",\"Stims/Figures/85-C-20-2.bmp\",\"na:lala\",\"Right\",\"37\",\"4\",\"7\",\"4\",\"S\",\"C\",\"79\"
\"\",\"\",\"approach-retreat\",\"228\",\"1522835\",\"0.0-228.0\",\"\",\"\",\"2-3\",\"4195\",\"38\",\"1\",\"Testing\",\"Stims/Figures/71-J-0-1.bmp\",\"tapa:ka\",\"Up\",\"38\",\"4\",\"8\",\"4\",\"P\",\"C\",\"80\"
\"\",\"\",\"approach-retreat\",\"229\",\"1529080\",\"0.0-229.0\",\"\",\"\",\"2-3\",\"4731\",\"37\",\"1\",\"Testing\",\"Stims/Figures/71-C-30-1.bmp\",\"mama:na\",\"Right\",\"37\",\"4\",\"9\",\"4\",\"S\",\"C\",\"81\"
\"\",\"\",\"approach-retreat\",\"230\",\"1534828\",\"0.0-230.0\",\"\",\"\",\"2-3\",\"4234\",\"37\",\"1\",\"Testing\",\"Stims/Figures/94-J-0-2.bmp\",\"pa:pata\",\"Left\",\"37\",\"4\",\"10\",\"4\",\"P\",\"C\",\"82\"
\"\",\"\",\"approach-retreat\",\"231\",\"1540514\",\"0.0-231.0\",\"\",\"\",\"2-3\",\"4176\",\"39\",\"1\",\"Testing\",\"Stims/Figures/27-J-0-1.bmp\",\"tapaka\",\"Right\",\"39\",\"4\",\"11\",\"4\",\"P\",\"C\",\"83\"
\"\",\"\",\"approach-retreat\",\"232\",\"1546450\",\"0.0-232.0\",\"\",\"\",\"2-3\",\"4423\",\"39\",\"1\",\"Testing\",\"Stims/Figures/128-C-30-3.bmp\",\"namala\",\"Left\",\"39\",\"4\",\"12\",\"4\",\"S\",\"C\",\"84\"
\"\",\"\",\"approach-retreat\",\"233\",\"1552532\",\"0.0-233.0\",\"\",\"\",\"2-3\",\"4561\",\"39\",\"1\",\"Testing\",\"Stims/Figures/86-J-0-1.bmp\",\"taka:ta\",\"Right\",\"39\",\"4\",\"13\",\"4\",\"P\",\"C\",\"85\"
\"\",\"\",\"approach-retreat\",\"234\",\"1558433\",\"0.0-234.0\",\"\",\"\",\"2-3\",\"4394\",\"40\",\"1\",\"Testing\",\"Stims/Figures/7-C-20-4.bmp\",\"mama:la\",\"Up\",\"40\",\"4\",\"14\",\"4\",\"S\",\"C\",\"86\"
\"\",\"\",\"approach-retreat\",\"235\",\"1564362\",\"0.0-235.0\",\"\",\"\",\"2-3\",\"4410\",\"40\",\"0\",\"Testing\",\"Stims/Figures/44-C-30-3.bmp\",\"mamana\",\"Down\",\"38\",\"4\",\"15\",\"4\",\"S\",\"C\",\"87\"
\"\",\"\",\"approach-retreat\",\"236\",\"1570106\",\"0.0-236.0\",\"\",\"\",\"2-3\",\"4230\",\"37\",\"1\",\"Testing\",\"Stims/Figures/27-C-30-1.bmp\",\"nalana\",\"Right\",\"37\",\"4\",\"16\",\"4\",\"S\",\"C\",\"88\"
\"\",\"\",\"approach-retreat\",\"237\",\"1576241\",\"0.0-237.0\",\"\",\"\",\"2-3\",\"4622\",\"37\",\"1\",\"Testing\",\"Stims/Figures/44-J-10-3.bmp\",\"tapa:ta\",\"Left\",\"37\",\"4\",\"17\",\"4\",\"P\",\"C\",\"89\"
\"\",\"\",\"approach-retreat\",\"238\",\"1581954\",\"0.0-238.0\",\"\",\"\",\"2-3\",\"4201\",\"37\",\"1\",\"Testing\",\"Stims/Figures/118-J-0-2.bmp\",\"ta:pa:ta\",\"Left\",\"37\",\"4\",\"18\",\"4\",\"P\",\"C\",\"90\"
\"\",\"\",\"approach-retreat\",\"239\",\"1588192\",\"0.0-239.0\",\"\",\"\",\"2-3\",\"4726\",\"38\",\"1\",\"Testing\",\"Stims/Figures/94-C-20-2.bmp\",\"ma:ma:na\",\"Down\",\"38\",\"4\",\"19\",\"4\",\"S\",\"C\",\"91\"
\"\",\"\",\"approach-retreat\",\"240\",\"1593744\",\"0.0-240.0\",\"\",\"\",\"2-3\",\"4039\",\"39\",\"1\",\"Testing\",\"Stims/Figures/144-C-30-3.bmp\",\"nama:la\",\"Left\",\"39\",\"4\",\"20\",\"4\",\"S\",\"C\",\"92\"
\"\",\"\",\"approach-retreat\",\"241\",\"1600158\",\"0.0-241.0\",\"\",\"\",\"2-3\",\"4901\",\"40\",\"1\",\"Testing\",\"Stims/Figures/128-J-10-3.bmp\",\"papata\",\"Down\",\"40\",\"4\",\"21\",\"4\",\"P\",\"C\",\"93\"
\"\",\"\",\"approach-retreat\",\"242\",\"1606508\",\"0.0-242.0\",\"\",\"\",\"2-3\",\"4836\",\"40\",\"1\",\"Testing\",\"Stims/Figures/85-J-0-2.bmp\",\"ta:ka:ka\",\"Down\",\"40\",\"4\",\"22\",\"4\",\"P\",\"C\",\"94\"
\"\",\"\",\"approach-retreat\",\"243\",\"1612131\",\"0.0-243.0\",\"\",\"\",\"2-3\",\"4108\",\"40\",\"1\",\"Testing\",\"Stims/Figures/102-C-20-4.bmp\",\"ma:mala\",\"Up\",\"40\",\"4\",\"23\",\"4\",\"S\",\"C\",\"95\"
\"\",\"\",\"approach-retreat\",\"244\",\"1621195\",\"0.0-244.0\",\"\",\"\",\"2-3\",\"7552\",\"38\",\"1\",\"Testing\",\"Stims/Figures/118-C-20-2.bmp\",\"ma:la:la\",\"Down\",\"38\",\"4\",\"24\",\"4\",\"S\",\"C\",\"96\"
\"23156\",\"\",\"survey-text\",\"245\",\"1644362\",\"0.0-245.0\",\"\",\"{\"\"Q0\"\":\"\"PS170084\"\"}\",\"\",\"\",\"\",\"\",\"\",\"\",\"\",\"\",\"\",\"\",\"\",\"\",\"\",\"\",\"\"
