\"rt\",\"key_press\",\"trial_type\",\"trial_index\",\"time_elapsed\",\"internal_node_id\",\"view_history\",\"responses\",\"Id\",\"Rt\",\"ResKeyCode\",\"ResCorr\",\"TrialType2\",\"Image\",\"Label\",\"Location\",\"CorrectResponse\",\"Block\",\"BlockTrial\",\"Condition\",\"LabelType\",\"Subcondition\",\"trialNum\"
\"96820\",\"32\",\"text\",\"0\",\"96825\",\"0.0-0.0-0.0\",\"\",\"\",\"\",\"\",\"\",\"\",\"\",\"\",\"\",\"\",\"\",\"\",\"\",\"\",\"\",\"\",\"\"
\"69041\",\"\",\"instructions\",\"1\",\"165870\",\"0.0-1.0\",\"[{\"\"page_index\"\":0,\"\"viewing_time\"\":69040}]\",\"\",\"\",\"\",\"\",\"\",\"\",\"\",\"\",\"\",\"\",\"\",\"\",\"\",\"\",\"\",\"\"
\"32595\",\"\",\"survey-multi-choice\",\"2\",\"198508\",\"0.0-2.0\",\"\",\"{\"\"Q0\"\":\"\"Da\"\",\"\"Q1\"\":\"\"Ne\"\",\"\"Q2\"\":\"\"Da\"\",\"\"Q3\"\":\"\"Da\"\",\"\"Q4\"\":\"\"Ne\"\",\"\"Q5\"\":\"\"Da\"\"}\",\"\",\"\",\"\",\"\",\"\",\"\",\"\",\"\",\"\",\"\",\"\",\"\",\"\",\"\",\"\"
\"\",\"\",\"bio\",\"3\",\"205403\",\"0.0-3.0\",\"\",\"{\"\"age\"\":\"\"21\"\",\"\"gender\"\":\"\"f\"\",\"\"specify\"\":\"\"\"\"}\",\"\",\"\",\"\",\"\",\"\",\"\",\"\",\"\",\"\",\"\",\"\",\"\",\"\",\"\",\"\"
\"\",\"\",\"approach-retreat\",\"4\",\"213033\",\"0.0-4.0\",\"\",\"\",\"1-1\",\"6110\",\"40\",\"0\",\"Training\",\"Stims/Figures/128-J-10-3.bmp\",\"va:sha:va\",\"Down\",\"38\",\"1\",\"1\",\"6A\",\"C1\",\"J\",\"1\"
\"\",\"\",\"approach-retreat\",\"5\",\"220010\",\"0.0-5.0\",\"\",\"\",\"1-1\",\"5465\",\"37\",\"0\",\"Training\",\"Stims/Figures/44-J-10-3.bmp\",\"fashasha\",\"Left\",\"39\",\"1\",\"2\",\"6A\",\"C1\",\"J\",\"2\"
\"\",\"\",\"approach-retreat\",\"6\",\"225879\",\"0.0-6.0\",\"\",\"\",\"1-1\",\"4357\",\"38\",\"0\",\"Training\",\"Stims/Figures/7-C-20-4.bmp\",\"za:saza\",\"Down\",\"40\",\"1\",\"3\",\"6A\",\"C2\",\"J\",\"3\"
\"\",\"\",\"approach-retreat\",\"7\",\"231954\",\"0.0-7.0\",\"\",\"\",\"1-1\",\"4564\",\"37\",\"0\",\"Training\",\"Stims/Figures/57-C-30-1.bmp\",\"za:saha\",\"Right\",\"39\",\"1\",\"4\",\"6A\",\"C2\",\"J\",\"4\"
\"\",\"\",\"approach-retreat\",\"8\",\"238079\",\"0.0-8.0\",\"\",\"\",\"1-1\",\"4614\",\"37\",\"1\",\"Training\",\"Stims/Figures/44-C-30-3.bmp\",\"za:ha:ha\",\"Left\",\"37\",\"1\",\"5\",\"6A\",\"C2\",\"J\",\"5\"
\"\",\"\",\"approach-retreat\",\"9\",\"244191\",\"0.0-9.0\",\"\",\"\",\"1-1\",\"4601\",\"40\",\"1\",\"Training\",\"Stims/Figures/93-J-0-1.bmp\",\"vasha:sha\",\"Up\",\"40\",\"1\",\"6\",\"6A\",\"C1\",\"J\",\"6\"
\"\",\"\",\"approach-retreat\",\"10\",\"250371\",\"0.0-10.0\",\"\",\"\",\"1-1\",\"4668\",\"39\",\"1\",\"Training\",\"Stims/Figures/7-J-10-4.bmp\",\"va:fa:va\",\"Left\",\"39\",\"1\",\"7\",\"6A\",\"C1\",\"J\",\"7\"
\"\",\"\",\"approach-retreat\",\"11\",\"256198\",\"0.0-11.0\",\"\",\"\",\"1-1\",\"4315\",\"38\",\"1\",\"Training\",\"Stims/Figures/19-J-10-4.bmp\",\"vafa:sha\",\"Down\",\"38\",\"1\",\"8\",\"6A\",\"C1\",\"J\",\"8\"
\"\",\"\",\"approach-retreat\",\"12\",\"262129\",\"0.0-12.0\",\"\",\"\",\"1-1\",\"4420\",\"40\",\"1\",\"Training\",\"Stims/Figures/118-J-0-2.bmp\",\"va:fasha\",\"Up\",\"40\",\"1\",\"9\",\"6A\",\"C1\",\"J\",\"9\"
\"\",\"\",\"approach-retreat\",\"13\",\"268193\",\"0.0-13.0\",\"\",\"\",\"1-1\",\"4560\",\"37\",\"0\",\"Training\",\"Stims/Figures/19-C-20-4.bmp\",\"sasa:ha\",\"Right\",\"39\",\"1\",\"10\",\"6A\",\"C2\",\"J\",\"10\"
\"\",\"\",\"approach-retreat\",\"14\",\"274012\",\"0.0-14.0\",\"\",\"\",\"1-1\",\"4305\",\"39\",\"1\",\"Training\",\"Stims/Figures/128-C-30-3.bmp\",\"sa:sa:za\",\"Right\",\"39\",\"1\",\"11\",\"6A\",\"C2\",\"J\",\"11\"
\"\",\"\",\"approach-retreat\",\"15\",\"280204\",\"0.0-15.0\",\"\",\"\",\"1-1\",\"4680\",\"37\",\"1\",\"Training\",\"Stims/Figures/93-C-30-1.bmp\",\"za:ha:za\",\"Left\",\"37\",\"1\",\"12\",\"6A\",\"C2\",\"J\",\"12\"
\"\",\"\",\"approach-retreat\",\"16\",\"286675\",\"0.0-16.0\",\"\",\"\",\"1-1\",\"4962\",\"38\",\"1\",\"Training\",\"Stims/Figures/118-C-20-2.bmp\",\"zahaza\",\"Up\",\"38\",\"1\",\"13\",\"6A\",\"C2\",\"J\",\"13\"
\"\",\"\",\"approach-retreat\",\"17\",\"292455\",\"0.0-17.0\",\"\",\"\",\"1-1\",\"4268\",\"38\",\"1\",\"Training\",\"Stims/Figures/139-C-20-2.bmp\",\"sahaha\",\"Up\",\"38\",\"1\",\"14\",\"6A\",\"C2\",\"J\",\"14\"
\"\",\"\",\"approach-retreat\",\"18\",\"298739\",\"0.0-18.0\",\"\",\"\",\"1-1\",\"4775\",\"38\",\"1\",\"Training\",\"Stims/Figures/57-J-0-1.bmp\",\"fa:fa:va\",\"Down\",\"38\",\"1\",\"15\",\"6A\",\"C1\",\"J\",\"15\"
\"\",\"\",\"approach-retreat\",\"19\",\"304587\",\"0.0-19.0\",\"\",\"\",\"1-1\",\"4337\",\"37\",\"1\",\"Training\",\"Stims/Figures/139-J-0-2.bmp\",\"fafa:sha\",\"Right\",\"37\",\"1\",\"16\",\"6A\",\"C1\",\"J\",\"16\"
\"\",\"\",\"approach-retreat\",\"20\",\"310592\",\"0.0-20.0\",\"\",\"\",\"1-1\",\"4496\",\"39\",\"1\",\"Training\",\"Stims/Figures/118-J-0-2.bmp\",\"va:fasha\",\"Left\",\"39\",\"2\",\"1\",\"6A\",\"C1\",\"J\",\"17\"
\"\",\"\",\"approach-retreat\",\"21\",\"316332\",\"0.0-21.0\",\"\",\"\",\"1-1\",\"4228\",\"40\",\"0\",\"Training\",\"Stims/Figures/57-C-30-1.bmp\",\"za:saha\",\"Up\",\"38\",\"2\",\"2\",\"6A\",\"C2\",\"J\",\"18\"
\"\",\"\",\"approach-retreat\",\"22\",\"322171\",\"0.0-22.0\",\"\",\"\",\"1-1\",\"4326\",\"40\",\"1\",\"Training\",\"Stims/Figures/93-J-0-1.bmp\",\"vasha:sha\",\"Up\",\"40\",\"2\",\"3\",\"6A\",\"C1\",\"J\",\"19\"
\"\",\"\",\"approach-retreat\",\"23\",\"328645\",\"0.0-23.0\",\"\",\"\",\"1-1\",\"4962\",\"37\",\"1\",\"Training\",\"Stims/Figures/57-J-0-1.bmp\",\"fa:fa:va\",\"Right\",\"37\",\"2\",\"4\",\"6A\",\"C1\",\"J\",\"20\"
\"\",\"\",\"approach-retreat\",\"24\",\"334547\",\"0.0-24.0\",\"\",\"\",\"1-1\",\"4391\",\"37\",\"1\",\"Training\",\"Stims/Figures/93-C-30-1.bmp\",\"za:ha:za\",\"Left\",\"37\",\"2\",\"5\",\"6A\",\"C2\",\"J\",\"21\"
\"\",\"\",\"approach-retreat\",\"25\",\"341886\",\"0.0-25.0\",\"\",\"\",\"1-1\",\"5828\",\"37\",\"1\",\"Training\",\"Stims/Figures/139-J-0-2.bmp\",\"fafa:sha\",\"Right\",\"37\",\"2\",\"6\",\"6A\",\"C1\",\"J\",\"22\"
\"\",\"\",\"approach-retreat\",\"26\",\"347935\",\"0.0-26.0\",\"\",\"\",\"1-1\",\"4537\",\"38\",\"1\",\"Training\",\"Stims/Figures/44-C-30-3.bmp\",\"za:ha:ha\",\"Up\",\"38\",\"2\",\"7\",\"6A\",\"C2\",\"J\",\"23\"
\"\",\"\",\"approach-retreat\",\"27\",\"353897\",\"0.0-27.0\",\"\",\"\",\"1-1\",\"4450\",\"39\",\"1\",\"Training\",\"Stims/Figures/7-C-20-4.bmp\",\"za:saza\",\"Right\",\"39\",\"2\",\"8\",\"6A\",\"C2\",\"J\",\"24\"
\"\",\"\",\"approach-retreat\",\"28\",\"360448\",\"0.0-28.0\",\"\",\"\",\"1-1\",\"5040\",\"39\",\"1\",\"Training\",\"Stims/Figures/7-J-10-4.bmp\",\"va:fa:va\",\"Left\",\"39\",\"2\",\"9\",\"6A\",\"C1\",\"J\",\"25\"
\"\",\"\",\"approach-retreat\",\"29\",\"366431\",\"0.0-29.0\",\"\",\"\",\"1-1\",\"4471\",\"38\",\"1\",\"Training\",\"Stims/Figures/19-J-10-4.bmp\",\"vafa:sha\",\"Down\",\"38\",\"2\",\"10\",\"6A\",\"C1\",\"J\",\"26\"
\"\",\"\",\"approach-retreat\",\"30\",\"372532\",\"0.0-30.0\",\"\",\"\",\"1-1\",\"4591\",\"40\",\"1\",\"Training\",\"Stims/Figures/128-C-30-3.bmp\",\"sa:sa:za\",\"Down\",\"40\",\"2\",\"11\",\"6A\",\"C2\",\"J\",\"27\"
\"\",\"\",\"approach-retreat\",\"31\",\"379456\",\"0.0-31.0\",\"\",\"\",\"1-1\",\"5413\",\"37\",\"1\",\"Training\",\"Stims/Figures/19-C-20-4.bmp\",\"sasa:ha\",\"Left\",\"37\",\"2\",\"12\",\"6A\",\"C2\",\"J\",\"28\"
\"\",\"\",\"approach-retreat\",\"32\",\"385775\",\"0.0-32.0\",\"\",\"\",\"1-1\",\"4808\",\"40\",\"1\",\"Training\",\"Stims/Figures/128-J-10-3.bmp\",\"va:sha:va\",\"Up\",\"40\",\"2\",\"13\",\"6A\",\"C1\",\"J\",\"29\"
\"\",\"\",\"approach-retreat\",\"33\",\"392308\",\"0.0-33.0\",\"\",\"\",\"1-1\",\"5022\",\"40\",\"1\",\"Training\",\"Stims/Figures/118-C-20-2.bmp\",\"zahaza\",\"Down\",\"40\",\"2\",\"14\",\"6A\",\"C2\",\"J\",\"30\"
\"\",\"\",\"approach-retreat\",\"34\",\"397991\",\"0.0-34.0\",\"\",\"\",\"1-1\",\"4179\",\"38\",\"1\",\"Training\",\"Stims/Figures/44-J-10-3.bmp\",\"fashasha\",\"Down\",\"38\",\"2\",\"15\",\"6A\",\"C1\",\"J\",\"31\"
\"\",\"\",\"approach-retreat\",\"35\",\"404293\",\"0.0-35.0\",\"\",\"\",\"1-1\",\"4791\",\"39\",\"1\",\"Training\",\"Stims/Figures/139-C-20-2.bmp\",\"sahaha\",\"Right\",\"39\",\"2\",\"16\",\"6A\",\"C2\",\"J\",\"32\"
\"\",\"\",\"approach-retreat\",\"36\",\"410039\",\"0.0-36.0\",\"\",\"\",\"1-1\",\"4234\",\"38\",\"1\",\"Training\",\"Stims/Figures/57-C-30-1.bmp\",\"za:saha\",\"Up\",\"38\",\"3\",\"1\",\"6A\",\"C2\",\"J\",\"33\"
\"\",\"\",\"approach-retreat\",\"37\",\"416042\",\"0.0-37.0\",\"\",\"\",\"1-1\",\"4491\",\"37\",\"1\",\"Training\",\"Stims/Figures/139-C-20-2.bmp\",\"sahaha\",\"Left\",\"37\",\"3\",\"2\",\"6A\",\"C2\",\"J\",\"34\"
\"\",\"\",\"approach-retreat\",\"38\",\"422159\",\"0.0-38.0\",\"\",\"\",\"1-1\",\"4605\",\"37\",\"1\",\"Training\",\"Stims/Figures/57-J-0-1.bmp\",\"fa:fa:va\",\"Right\",\"37\",\"3\",\"3\",\"6A\",\"C1\",\"J\",\"35\"
\"\",\"\",\"approach-retreat\",\"39\",\"428641\",\"0.0-39.0\",\"\",\"\",\"1-1\",\"4967\",\"38\",\"1\",\"Training\",\"Stims/Figures/93-J-0-1.bmp\",\"vasha:sha\",\"Down\",\"38\",\"3\",\"4\",\"6A\",\"C1\",\"J\",\"36\"
\"\",\"\",\"approach-retreat\",\"40\",\"434424\",\"0.0-40.0\",\"\",\"\",\"1-1\",\"4277\",\"40\",\"1\",\"Training\",\"Stims/Figures/139-J-0-2.bmp\",\"fafa:sha\",\"Up\",\"40\",\"3\",\"5\",\"6A\",\"C1\",\"J\",\"37\"
\"\",\"\",\"approach-retreat\",\"41\",\"440629\",\"0.0-41.0\",\"\",\"\",\"1-1\",\"4701\",\"38\",\"1\",\"Training\",\"Stims/Figures/128-C-30-3.bmp\",\"sa:sa:za\",\"Up\",\"38\",\"3\",\"6\",\"6A\",\"C2\",\"J\",\"38\"
\"\",\"\",\"approach-retreat\",\"42\",\"448890\",\"0.0-42.0\",\"\",\"\",\"1-1\",\"6750\",\"38\",\"1\",\"Training\",\"Stims/Figures/7-J-10-4.bmp\",\"va:fa:va\",\"Down\",\"38\",\"3\",\"7\",\"6A\",\"C1\",\"J\",\"39\"
\"\",\"\",\"approach-retreat\",\"43\",\"455099\",\"0.0-43.0\",\"\",\"\",\"1-1\",\"4704\",\"39\",\"1\",\"Training\",\"Stims/Figures/19-C-20-4.bmp\",\"sasa:ha\",\"Right\",\"39\",\"3\",\"8\",\"6A\",\"C2\",\"J\",\"40\"
\"\",\"\",\"approach-retreat\",\"44\",\"461207\",\"0.0-44.0\",\"\",\"\",\"1-1\",\"4598\",\"37\",\"1\",\"Training\",\"Stims/Figures/93-C-30-1.bmp\",\"za:ha:za\",\"Left\",\"37\",\"3\",\"9\",\"6A\",\"C2\",\"J\",\"41\"
\"\",\"\",\"approach-retreat\",\"45\",\"467022\",\"0.0-45.0\",\"\",\"\",\"1-1\",\"4302\",\"38\",\"1\",\"Training\",\"Stims/Figures/7-C-20-4.bmp\",\"za:saza\",\"Up\",\"38\",\"3\",\"10\",\"6A\",\"C2\",\"J\",\"42\"
\"\",\"\",\"approach-retreat\",\"46\",\"473210\",\"0.0-46.0\",\"\",\"\",\"1-1\",\"4678\",\"39\",\"1\",\"Training\",\"Stims/Figures/118-C-20-2.bmp\",\"zahaza\",\"Right\",\"39\",\"3\",\"11\",\"6A\",\"C2\",\"J\",\"43\"
\"\",\"\",\"approach-retreat\",\"47\",\"479474\",\"0.0-47.0\",\"\",\"\",\"1-1\",\"4754\",\"37\",\"1\",\"Training\",\"Stims/Figures/118-J-0-2.bmp\",\"va:fasha\",\"Right\",\"37\",\"3\",\"12\",\"6A\",\"C1\",\"J\",\"44\"
\"\",\"\",\"approach-retreat\",\"48\",\"485185\",\"0.0-48.0\",\"\",\"\",\"1-1\",\"4206\",\"38\",\"1\",\"Training\",\"Stims/Figures/128-J-10-3.bmp\",\"va:sha:va\",\"Down\",\"38\",\"3\",\"13\",\"6A\",\"C1\",\"J\",\"45\"
\"\",\"\",\"approach-retreat\",\"49\",\"491104\",\"0.0-49.0\",\"\",\"\",\"1-1\",\"4408\",\"37\",\"1\",\"Training\",\"Stims/Figures/44-C-30-3.bmp\",\"za:ha:ha\",\"Left\",\"37\",\"3\",\"14\",\"6A\",\"C2\",\"J\",\"46\"
\"\",\"\",\"approach-retreat\",\"50\",\"496873\",\"0.0-50.0\",\"\",\"\",\"1-1\",\"4263\",\"39\",\"1\",\"Training\",\"Stims/Figures/19-J-10-4.bmp\",\"vafa:sha\",\"Left\",\"39\",\"3\",\"15\",\"6A\",\"C1\",\"J\",\"47\"
\"\",\"\",\"approach-retreat\",\"51\",\"502692\",\"0.0-51.0\",\"\",\"\",\"1-1\",\"4316\",\"38\",\"1\",\"Training\",\"Stims/Figures/44-J-10-3.bmp\",\"fashasha\",\"Down\",\"38\",\"3\",\"16\",\"6A\",\"C1\",\"J\",\"48\"
\"\",\"\",\"approach-retreat\",\"52\",\"508591\",\"0.0-52.0\",\"\",\"\",\"1-1\",\"4395\",\"37\",\"1\",\"Training\",\"Stims/Figures/93-C-30-1.bmp\",\"za:ha:za\",\"Left\",\"37\",\"4\",\"1\",\"6A\",\"C2\",\"J\",\"49\"
\"\",\"\",\"approach-retreat\",\"53\",\"514317\",\"0.0-53.0\",\"\",\"\",\"1-1\",\"4220\",\"40\",\"1\",\"Training\",\"Stims/Figures/139-J-0-2.bmp\",\"fafa:sha\",\"Up\",\"40\",\"4\",\"2\",\"6A\",\"C1\",\"J\",\"50\"
\"\",\"\",\"approach-retreat\",\"54\",\"520785\",\"0.0-54.0\",\"\",\"\",\"1-1\",\"4964\",\"37\",\"1\",\"Training\",\"Stims/Figures/128-J-10-3.bmp\",\"va:sha:va\",\"Right\",\"37\",\"4\",\"3\",\"6A\",\"C1\",\"J\",\"51\"
\"\",\"\",\"approach-retreat\",\"55\",\"526732\",\"0.0-55.0\",\"\",\"\",\"1-1\",\"4434\",\"38\",\"1\",\"Training\",\"Stims/Figures/139-C-20-2.bmp\",\"sahaha\",\"Up\",\"38\",\"4\",\"4\",\"6A\",\"C2\",\"J\",\"52\"
\"\",\"\",\"approach-retreat\",\"56\",\"534164\",\"0.0-56.0\",\"\",\"\",\"1-1\",\"5921\",\"40\",\"1\",\"Training\",\"Stims/Figures/128-C-30-3.bmp\",\"sa:sa:za\",\"Down\",\"40\",\"4\",\"5\",\"6A\",\"C2\",\"J\",\"53\"
\"\",\"\",\"approach-retreat\",\"57\",\"540246\",\"0.0-57.0\",\"\",\"\",\"1-1\",\"4569\",\"40\",\"1\",\"Training\",\"Stims/Figures/19-C-20-4.bmp\",\"sasa:ha\",\"Down\",\"40\",\"4\",\"6\",\"6A\",\"C2\",\"J\",\"54\"
\"\",\"\",\"approach-retreat\",\"58\",\"547313\",\"0.0-58.0\",\"\",\"\",\"1-1\",\"5556\",\"39\",\"1\",\"Training\",\"Stims/Figures/7-C-20-4.bmp\",\"za:saza\",\"Right\",\"39\",\"4\",\"7\",\"6A\",\"C2\",\"J\",\"55\"
\"\",\"\",\"approach-retreat\",\"59\",\"553926\",\"0.0-59.0\",\"\",\"\",\"1-1\",\"5104\",\"40\",\"1\",\"Training\",\"Stims/Figures/44-C-30-3.bmp\",\"za:ha:ha\",\"Down\",\"40\",\"4\",\"8\",\"6A\",\"C2\",\"J\",\"56\"
\"\",\"\",\"approach-retreat\",\"60\",\"560136\",\"0.0-60.0\",\"\",\"\",\"1-1\",\"4699\",\"37\",\"1\",\"Training\",\"Stims/Figures/7-J-10-4.bmp\",\"va:fa:va\",\"Right\",\"37\",\"4\",\"9\",\"6A\",\"C1\",\"J\",\"57\"
\"\",\"\",\"approach-retreat\",\"61\",\"565894\",\"0.0-61.0\",\"\",\"\",\"1-1\",\"4248\",\"40\",\"1\",\"Training\",\"Stims/Figures/57-J-0-1.bmp\",\"fa:fa:va\",\"Up\",\"40\",\"4\",\"10\",\"6A\",\"C1\",\"J\",\"58\"
\"\",\"\",\"approach-retreat\",\"62\",\"571670\",\"0.0-62.0\",\"\",\"\",\"1-1\",\"4267\",\"38\",\"1\",\"Training\",\"Stims/Figures/19-J-10-4.bmp\",\"vafa:sha\",\"Down\",\"38\",\"4\",\"11\",\"6A\",\"C1\",\"J\",\"59\"
\"\",\"\",\"approach-retreat\",\"63\",\"577916\",\"0.0-63.0\",\"\",\"\",\"1-1\",\"4734\",\"40\",\"1\",\"Training\",\"Stims/Figures/118-J-0-2.bmp\",\"va:fasha\",\"Up\",\"40\",\"4\",\"12\",\"6A\",\"C1\",\"J\",\"60\"
\"\",\"\",\"approach-retreat\",\"64\",\"583890\",\"0.0-64.0\",\"\",\"\",\"1-1\",\"4464\",\"37\",\"1\",\"Training\",\"Stims/Figures/57-C-30-1.bmp\",\"za:saha\",\"Left\",\"37\",\"4\",\"13\",\"6A\",\"C2\",\"J\",\"61\"
\"\",\"\",\"approach-retreat\",\"65\",\"589915\",\"0.0-65.0\",\"\",\"\",\"1-1\",\"4514\",\"37\",\"1\",\"Training\",\"Stims/Figures/118-C-20-2.bmp\",\"zahaza\",\"Left\",\"37\",\"4\",\"14\",\"6A\",\"C2\",\"J\",\"62\"
\"\",\"\",\"approach-retreat\",\"66\",\"595833\",\"0.0-66.0\",\"\",\"\",\"1-1\",\"4406\",\"37\",\"1\",\"Training\",\"Stims/Figures/44-J-10-3.bmp\",\"fashasha\",\"Right\",\"37\",\"4\",\"15\",\"6A\",\"C1\",\"J\",\"63\"
\"\",\"\",\"approach-retreat\",\"67\",\"601792\",\"0.0-67.0\",\"\",\"\",\"1-1\",\"4449\",\"39\",\"1\",\"Training\",\"Stims/Figures/93-J-0-1.bmp\",\"vasha:sha\",\"Left\",\"39\",\"4\",\"16\",\"6A\",\"C1\",\"J\",\"64\"
\"\",\"\",\"approach-retreat\",\"68\",\"607488\",\"0.0-68.0\",\"\",\"\",\"1-1\",\"4183\",\"39\",\"1\",\"Training\",\"Stims/Figures/19-C-20-4.bmp\",\"sasa:ha\",\"Right\",\"39\",\"5\",\"1\",\"6A\",\"C2\",\"J\",\"65\"
\"\",\"\",\"approach-retreat\",\"69\",\"613608\",\"0.0-69.0\",\"\",\"\",\"1-1\",\"4609\",\"40\",\"1\",\"Training\",\"Stims/Figures/44-J-10-3.bmp\",\"fashasha\",\"Up\",\"40\",\"5\",\"2\",\"6A\",\"C1\",\"J\",\"66\"
\"\",\"\",\"approach-retreat\",\"70\",\"620170\",\"0.0-70.0\",\"\",\"\",\"1-1\",\"5038\",\"39\",\"1\",\"Training\",\"Stims/Figures/139-J-0-2.bmp\",\"fafa:sha\",\"Left\",\"39\",\"5\",\"3\",\"6A\",\"C1\",\"J\",\"67\"
\"\",\"\",\"approach-retreat\",\"71\",\"626847\",\"0.0-71.0\",\"\",\"\",\"1-1\",\"5165\",\"40\",\"1\",\"Training\",\"Stims/Figures/57-J-0-1.bmp\",\"fa:fa:va\",\"Up\",\"40\",\"5\",\"4\",\"6A\",\"C1\",\"J\",\"68\"
\"\",\"\",\"approach-retreat\",\"72\",\"632655\",\"0.0-72.0\",\"\",\"\",\"1-1\",\"4294\",\"37\",\"1\",\"Training\",\"Stims/Figures/128-C-30-3.bmp\",\"sa:sa:za\",\"Left\",\"37\",\"5\",\"5\",\"6A\",\"C2\",\"J\",\"69\"
\"\",\"\",\"approach-retreat\",\"73\",\"638438\",\"0.0-73.0\",\"\",\"\",\"1-1\",\"4273\",\"38\",\"1\",\"Training\",\"Stims/Figures/118-J-0-2.bmp\",\"va:fasha\",\"Down\",\"38\",\"5\",\"6\",\"6A\",\"C1\",\"J\",\"70\"
\"\",\"\",\"approach-retreat\",\"74\",\"644444\",\"0.0-74.0\",\"\",\"\",\"1-1\",\"4495\",\"38\",\"1\",\"Training\",\"Stims/Figures/44-C-30-3.bmp\",\"za:ha:ha\",\"Up\",\"38\",\"5\",\"7\",\"6A\",\"C2\",\"J\",\"71\"
\"\",\"\",\"approach-retreat\",\"75\",\"651112\",\"0.0-75.0\",\"\",\"\",\"1-1\",\"5157\",\"38\",\"1\",\"Training\",\"Stims/Figures/128-J-10-3.bmp\",\"va:sha:va\",\"Down\",\"38\",\"5\",\"8\",\"6A\",\"C1\",\"J\",\"72\"
\"\",\"\",\"approach-retreat\",\"76\",\"656792\",\"0.0-76.0\",\"\",\"\",\"1-1\",\"4169\",\"37\",\"1\",\"Training\",\"Stims/Figures/19-J-10-4.bmp\",\"vafa:sha\",\"Right\",\"37\",\"5\",\"9\",\"6A\",\"C1\",\"J\",\"73\"
\"\",\"\",\"approach-retreat\",\"77\",\"662554\",\"0.0-77.0\",\"\",\"\",\"1-1\",\"4252\",\"39\",\"1\",\"Training\",\"Stims/Figures/7-J-10-4.bmp\",\"va:fa:va\",\"Left\",\"39\",\"5\",\"10\",\"6A\",\"C1\",\"J\",\"74\"
\"\",\"\",\"approach-retreat\",\"78\",\"668225\",\"0.0-78.0\",\"\",\"\",\"1-1\",\"4160\",\"38\",\"1\",\"Training\",\"Stims/Figures/93-J-0-1.bmp\",\"vasha:sha\",\"Down\",\"38\",\"5\",\"11\",\"6A\",\"C1\",\"J\",\"75\"
\"\",\"\",\"approach-retreat\",\"79\",\"674824\",\"0.0-79.0\",\"\",\"\",\"1-1\",\"5088\",\"37\",\"1\",\"Training\",\"Stims/Figures/7-C-20-4.bmp\",\"za:saza\",\"Left\",\"37\",\"5\",\"12\",\"6A\",\"C2\",\"J\",\"76\"
\"\",\"\",\"approach-retreat\",\"80\",\"680566\",\"0.0-80.0\",\"\",\"\",\"1-1\",\"4227\",\"39\",\"1\",\"Training\",\"Stims/Figures/57-C-30-1.bmp\",\"za:saha\",\"Right\",\"39\",\"5\",\"13\",\"6A\",\"C2\",\"J\",\"77\"
\"\",\"\",\"approach-retreat\",\"81\",\"686987\",\"0.0-81.0\",\"\",\"\",\"1-1\",\"4910\",\"39\",\"1\",\"Training\",\"Stims/Figures/118-C-20-2.bmp\",\"zahaza\",\"Right\",\"39\",\"5\",\"14\",\"6A\",\"C2\",\"J\",\"78\"
\"\",\"\",\"approach-retreat\",\"82\",\"692681\",\"0.0-82.0\",\"\",\"\",\"1-1\",\"4180\",\"38\",\"1\",\"Training\",\"Stims/Figures/93-C-30-1.bmp\",\"za:ha:za\",\"Up\",\"38\",\"5\",\"15\",\"6A\",\"C2\",\"J\",\"79\"
\"\",\"\",\"approach-retreat\",\"83\",\"698596\",\"0.0-83.0\",\"\",\"\",\"1-1\",\"4403\",\"40\",\"1\",\"Training\",\"Stims/Figures/139-C-20-2.bmp\",\"sahaha\",\"Down\",\"40\",\"5\",\"16\",\"6A\",\"C2\",\"J\",\"80\"
\"\",\"\",\"approach-retreat\",\"84\",\"704297\",\"0.0-84.0\",\"\",\"\",\"1-1\",\"4190\",\"38\",\"1\",\"Training\",\"Stims/Figures/128-J-10-3.bmp\",\"va:sha:va\",\"Down\",\"38\",\"6\",\"1\",\"6A\",\"C1\",\"J\",\"81\"
\"\",\"\",\"approach-retreat\",\"85\",\"710640\",\"0.0-85.0\",\"\",\"\",\"1-1\",\"4837\",\"40\",\"1\",\"Training\",\"Stims/Figures/118-C-20-2.bmp\",\"zahaza\",\"Down\",\"40\",\"6\",\"2\",\"6A\",\"C2\",\"J\",\"82\"
\"\",\"\",\"approach-retreat\",\"86\",\"717334\",\"0.0-86.0\",\"\",\"\",\"1-1\",\"5181\",\"37\",\"1\",\"Training\",\"Stims/Figures/44-C-30-3.bmp\",\"za:ha:ha\",\"Left\",\"37\",\"6\",\"3\",\"6A\",\"C2\",\"J\",\"83\"
\"\",\"\",\"approach-retreat\",\"87\",\"722987\",\"0.0-87.0\",\"\",\"\",\"1-1\",\"4146\",\"40\",\"1\",\"Training\",\"Stims/Figures/93-J-0-1.bmp\",\"vasha:sha\",\"Up\",\"40\",\"6\",\"4\",\"6A\",\"C1\",\"J\",\"84\"
\"\",\"\",\"approach-retreat\",\"88\",\"728790\",\"0.0-88.0\",\"\",\"\",\"1-1\",\"4293\",\"37\",\"1\",\"Training\",\"Stims/Figures/7-J-10-4.bmp\",\"va:fa:va\",\"Right\",\"37\",\"6\",\"5\",\"6A\",\"C1\",\"J\",\"85\"
\"\",\"\",\"approach-retreat\",\"89\",\"734414\",\"0.0-89.0\",\"\",\"\",\"1-1\",\"4119\",\"40\",\"1\",\"Training\",\"Stims/Figures/139-J-0-2.bmp\",\"fafa:sha\",\"Up\",\"40\",\"6\",\"6\",\"6A\",\"C1\",\"J\",\"86\"
\"\",\"\",\"approach-retreat\",\"90\",\"740288\",\"0.0-90.0\",\"\",\"\",\"1-1\",\"4370\",\"37\",\"1\",\"Training\",\"Stims/Figures/19-J-10-4.bmp\",\"vafa:sha\",\"Right\",\"37\",\"6\",\"7\",\"6A\",\"C1\",\"J\",\"87\"
\"\",\"\",\"approach-retreat\",\"91\",\"746205\",\"0.0-91.0\",\"\",\"\",\"1-1\",\"4407\",\"38\",\"1\",\"Training\",\"Stims/Figures/57-J-0-1.bmp\",\"fa:fa:va\",\"Down\",\"38\",\"6\",\"8\",\"6A\",\"C1\",\"J\",\"88\"
\"\",\"\",\"approach-retreat\",\"92\",\"751840\",\"0.0-92.0\",\"\",\"\",\"1-1\",\"4123\",\"40\",\"1\",\"Training\",\"Stims/Figures/44-J-10-3.bmp\",\"fashasha\",\"Up\",\"40\",\"6\",\"9\",\"6A\",\"C1\",\"J\",\"89\"
\"\",\"\",\"approach-retreat\",\"93\",\"757828\",\"0.0-93.0\",\"\",\"\",\"1-1\",\"4470\",\"39\",\"1\",\"Training\",\"Stims/Figures/139-C-20-2.bmp\",\"sahaha\",\"Right\",\"39\",\"6\",\"10\",\"6A\",\"C2\",\"J\",\"90\"
\"\",\"\",\"approach-retreat\",\"94\",\"763620\",\"0.0-94.0\",\"\",\"\",\"1-1\",\"4282\",\"37\",\"1\",\"Training\",\"Stims/Figures/128-C-30-3.bmp\",\"sa:sa:za\",\"Left\",\"37\",\"6\",\"11\",\"6A\",\"C2\",\"J\",\"91\"
\"\",\"\",\"approach-retreat\",\"95\",\"769499\",\"0.0-95.0\",\"\",\"\",\"1-1\",\"4368\",\"38\",\"1\",\"Training\",\"Stims/Figures/93-C-30-1.bmp\",\"za:ha:za\",\"Up\",\"38\",\"6\",\"12\",\"6A\",\"C2\",\"J\",\"92\"
\"\",\"\",\"approach-retreat\",\"96\",\"780811\",\"0.0-96.0\",\"\",\"\",\"1-1\",\"9802\",\"37\",\"1\",\"Training\",\"Stims/Figures/19-C-20-4.bmp\",\"sasa:ha\",\"Left\",\"37\",\"6\",\"13\",\"6A\",\"C2\",\"J\",\"93\"
\"\",\"\",\"approach-retreat\",\"97\",\"786714\",\"0.0-97.0\",\"\",\"\",\"1-1\",\"4391\",\"40\",\"1\",\"Training\",\"Stims/Figures/7-C-20-4.bmp\",\"za:saza\",\"Down\",\"40\",\"6\",\"14\",\"6A\",\"C2\",\"J\",\"94\"
\"\",\"\",\"approach-retreat\",\"98\",\"792511\",\"0.0-98.0\",\"\",\"\",\"1-1\",\"4285\",\"37\",\"1\",\"Training\",\"Stims/Figures/57-C-30-1.bmp\",\"za:saha\",\"Left\",\"37\",\"6\",\"15\",\"6A\",\"C2\",\"J\",\"95\"
\"\",\"\",\"approach-retreat\",\"99\",\"798707\",\"0.0-99.0\",\"\",\"\",\"1-1\",\"4685\",\"37\",\"1\",\"Training\",\"Stims/Figures/118-J-0-2.bmp\",\"va:fasha\",\"Right\",\"37\",\"6\",\"16\",\"6A\",\"C1\",\"J\",\"96\"
\"\",\"\",\"approach-retreat\",\"100\",\"805013\",\"0.0-100.0\",\"\",\"\",\"1-1\",\"4795\",\"38\",\"1\",\"Training\",\"Stims/Figures/7-J-10-4.bmp\",\"va:fa:va\",\"Down\",\"38\",\"7\",\"1\",\"6A\",\"C1\",\"J\",\"97\"
\"\",\"\",\"approach-retreat\",\"101\",\"811796\",\"0.0-101.0\",\"\",\"\",\"1-1\",\"5273\",\"38\",\"1\",\"Training\",\"Stims/Figures/19-J-10-4.bmp\",\"vafa:sha\",\"Down\",\"38\",\"7\",\"2\",\"6A\",\"C1\",\"J\",\"98\"
\"\",\"\",\"approach-retreat\",\"102\",\"817917\",\"0.0-102.0\",\"\",\"\",\"1-1\",\"4610\",\"39\",\"1\",\"Training\",\"Stims/Figures/93-J-0-1.bmp\",\"vasha:sha\",\"Left\",\"39\",\"7\",\"3\",\"6A\",\"C1\",\"J\",\"99\"
\"\",\"\",\"approach-retreat\",\"103\",\"824253\",\"0.0-103.0\",\"\",\"\",\"1-1\",\"4824\",\"38\",\"1\",\"Training\",\"Stims/Figures/44-C-30-3.bmp\",\"za:ha:ha\",\"Up\",\"38\",\"7\",\"4\",\"6A\",\"C2\",\"J\",\"100\"
\"\",\"\",\"approach-retreat\",\"104\",\"831240\",\"0.0-104.0\",\"\",\"\",\"1-1\",\"5475\",\"39\",\"1\",\"Training\",\"Stims/Figures/128-J-10-3.bmp\",\"va:sha:va\",\"Left\",\"39\",\"7\",\"5\",\"6A\",\"C1\",\"J\",\"101\"
\"\",\"\",\"approach-retreat\",\"105\",\"837045\",\"0.0-105.0\",\"\",\"\",\"1-1\",\"4294\",\"39\",\"1\",\"Training\",\"Stims/Figures/19-C-20-4.bmp\",\"sasa:ha\",\"Right\",\"39\",\"7\",\"6\",\"6A\",\"C2\",\"J\",\"102\"
\"\",\"\",\"approach-retreat\",\"106\",\"843625\",\"0.0-106.0\",\"\",\"\",\"1-1\",\"5064\",\"39\",\"1\",\"Training\",\"Stims/Figures/128-C-30-3.bmp\",\"sa:sa:za\",\"Right\",\"39\",\"7\",\"7\",\"6A\",\"C2\",\"J\",\"103\"
\"\",\"\",\"approach-retreat\",\"107\",\"849680\",\"0.0-107.0\",\"\",\"\",\"1-1\",\"4544\",\"39\",\"1\",\"Training\",\"Stims/Figures/57-C-30-1.bmp\",\"za:saha\",\"Right\",\"39\",\"7\",\"8\",\"6A\",\"C2\",\"J\",\"104\"
\"\",\"\",\"approach-retreat\",\"108\",\"855401\",\"0.0-108.0\",\"\",\"\",\"1-1\",\"4210\",\"37\",\"1\",\"Training\",\"Stims/Figures/93-C-30-1.bmp\",\"za:ha:za\",\"Left\",\"37\",\"7\",\"9\",\"6A\",\"C2\",\"J\",\"105\"
\"\",\"\",\"approach-retreat\",\"109\",\"860990\",\"0.0-109.0\",\"\",\"\",\"1-1\",\"4078\",\"40\",\"1\",\"Training\",\"Stims/Figures/57-J-0-1.bmp\",\"fa:fa:va\",\"Up\",\"40\",\"7\",\"10\",\"6A\",\"C1\",\"J\",\"106\"
\"\",\"\",\"approach-retreat\",\"110\",\"866835\",\"0.0-110.0\",\"\",\"\",\"1-1\",\"4334\",\"38\",\"1\",\"Training\",\"Stims/Figures/118-J-0-2.bmp\",\"va:fasha\",\"Down\",\"38\",\"7\",\"11\",\"6A\",\"C1\",\"J\",\"107\"
\"\",\"\",\"approach-retreat\",\"111\",\"872827\",\"0.0-111.0\",\"\",\"\",\"1-1\",\"4477\",\"37\",\"1\",\"Training\",\"Stims/Figures/7-C-20-4.bmp\",\"za:saza\",\"Left\",\"37\",\"7\",\"12\",\"6A\",\"C2\",\"J\",\"108\"
\"\",\"\",\"approach-retreat\",\"112\",\"879101\",\"0.0-112.0\",\"\",\"\",\"1-1\",\"4765\",\"38\",\"1\",\"Training\",\"Stims/Figures/139-C-20-2.bmp\",\"sahaha\",\"Up\",\"38\",\"7\",\"13\",\"6A\",\"C2\",\"J\",\"109\"
\"\",\"\",\"approach-retreat\",\"113\",\"884941\",\"0.0-113.0\",\"\",\"\",\"1-1\",\"4328\",\"37\",\"1\",\"Training\",\"Stims/Figures/139-J-0-2.bmp\",\"fafa:sha\",\"Right\",\"37\",\"7\",\"14\",\"6A\",\"C1\",\"J\",\"110\"
\"\",\"\",\"approach-retreat\",\"114\",\"891121\",\"0.0-114.0\",\"\",\"\",\"1-1\",\"4670\",\"40\",\"1\",\"Training\",\"Stims/Figures/118-C-20-2.bmp\",\"zahaza\",\"Down\",\"40\",\"7\",\"15\",\"6A\",\"C2\",\"J\",\"111\"
\"\",\"\",\"approach-retreat\",\"115\",\"896851\",\"0.0-115.0\",\"\",\"\",\"1-1\",\"4218\",\"40\",\"1\",\"Training\",\"Stims/Figures/44-J-10-3.bmp\",\"fashasha\",\"Up\",\"40\",\"7\",\"16\",\"6A\",\"C1\",\"J\",\"112\"
\"\",\"\",\"approach-retreat\",\"116\",\"902919\",\"0.0-116.0\",\"\",\"\",\"1-1\",\"4558\",\"37\",\"1\",\"Training\",\"Stims/Figures/93-C-30-1.bmp\",\"za:ha:za\",\"Left\",\"37\",\"8\",\"1\",\"6A\",\"C2\",\"J\",\"113\"
\"\",\"\",\"approach-retreat\",\"117\",\"908722\",\"0.0-117.0\",\"\",\"\",\"1-1\",\"4291\",\"38\",\"1\",\"Training\",\"Stims/Figures/19-J-10-4.bmp\",\"vafa:sha\",\"Down\",\"38\",\"8\",\"2\",\"6A\",\"C1\",\"J\",\"114\"
\"\",\"\",\"approach-retreat\",\"118\",\"914590\",\"0.0-118.0\",\"\",\"\",\"1-1\",\"4359\",\"37\",\"1\",\"Training\",\"Stims/Figures/57-C-30-1.bmp\",\"za:saha\",\"Left\",\"37\",\"8\",\"3\",\"6A\",\"C2\",\"J\",\"115\"
\"\",\"\",\"approach-retreat\",\"119\",\"920333\",\"0.0-119.0\",\"\",\"\",\"1-1\",\"4239\",\"39\",\"1\",\"Training\",\"Stims/Figures/118-J-0-2.bmp\",\"va:fasha\",\"Left\",\"39\",\"8\",\"4\",\"6A\",\"C1\",\"J\",\"116\"
\"\",\"\",\"approach-retreat\",\"120\",\"926182\",\"0.0-120.0\",\"\",\"\",\"1-1\",\"4337\",\"40\",\"1\",\"Training\",\"Stims/Figures/44-J-10-3.bmp\",\"fashasha\",\"Up\",\"40\",\"8\",\"5\",\"6A\",\"C1\",\"J\",\"117\"
\"\",\"\",\"approach-retreat\",\"121\",\"932458\",\"0.0-121.0\",\"\",\"\",\"1-1\",\"4762\",\"38\",\"1\",\"Training\",\"Stims/Figures/19-C-20-4.bmp\",\"sasa:ha\",\"Up\",\"38\",\"8\",\"6\",\"6A\",\"C2\",\"J\",\"118\"
\"\",\"\",\"approach-retreat\",\"122\",\"938152\",\"0.0-122.0\",\"\",\"\",\"1-1\",\"4189\",\"37\",\"1\",\"Training\",\"Stims/Figures/57-J-0-1.bmp\",\"fa:fa:va\",\"Right\",\"37\",\"8\",\"7\",\"6A\",\"C1\",\"J\",\"119\"
\"\",\"\",\"approach-retreat\",\"123\",\"944064\",\"0.0-123.0\",\"\",\"\",\"1-1\",\"4399\",\"38\",\"1\",\"Training\",\"Stims/Figures/118-C-20-2.bmp\",\"zahaza\",\"Up\",\"38\",\"8\",\"8\",\"6A\",\"C2\",\"J\",\"120\"
\"\",\"\",\"approach-retreat\",\"124\",\"949807\",\"0.0-124.0\",\"\",\"\",\"1-1\",\"4232\",\"38\",\"1\",\"Training\",\"Stims/Figures/7-J-10-4.bmp\",\"va:fa:va\",\"Down\",\"38\",\"8\",\"9\",\"6A\",\"C1\",\"J\",\"121\"
\"\",\"\",\"approach-retreat\",\"125\",\"955488\",\"0.0-125.0\",\"\",\"\",\"1-1\",\"4171\",\"39\",\"1\",\"Training\",\"Stims/Figures/44-C-30-3.bmp\",\"za:ha:ha\",\"Right\",\"39\",\"8\",\"10\",\"6A\",\"C2\",\"J\",\"122\"
\"\",\"\",\"approach-retreat\",\"126\",\"961871\",\"0.0-126.0\",\"\",\"\",\"1-1\",\"4871\",\"39\",\"1\",\"Training\",\"Stims/Figures/128-C-30-3.bmp\",\"sa:sa:za\",\"Right\",\"39\",\"8\",\"11\",\"6A\",\"C2\",\"J\",\"123\"
\"\",\"\",\"approach-retreat\",\"127\",\"968121\",\"0.0-127.0\",\"\",\"\",\"1-1\",\"4739\",\"39\",\"1\",\"Training\",\"Stims/Figures/7-C-20-4.bmp\",\"za:saza\",\"Right\",\"39\",\"8\",\"12\",\"6A\",\"C2\",\"J\",\"124\"
\"\",\"\",\"approach-retreat\",\"128\",\"974017\",\"0.0-128.0\",\"\",\"\",\"1-1\",\"4384\",\"38\",\"1\",\"Training\",\"Stims/Figures/139-J-0-2.bmp\",\"fafa:sha\",\"Down\",\"38\",\"8\",\"13\",\"6A\",\"C1\",\"J\",\"125\"
\"\",\"\",\"approach-retreat\",\"129\",\"979719\",\"0.0-129.0\",\"\",\"\",\"1-1\",\"4191\",\"40\",\"1\",\"Training\",\"Stims/Figures/128-J-10-3.bmp\",\"va:sha:va\",\"Up\",\"40\",\"8\",\"14\",\"6A\",\"C1\",\"J\",\"126\"
\"\",\"\",\"approach-retreat\",\"130\",\"985435\",\"0.0-130.0\",\"\",\"\",\"1-1\",\"4204\",\"37\",\"1\",\"Training\",\"Stims/Figures/139-C-20-2.bmp\",\"sahaha\",\"Left\",\"37\",\"8\",\"15\",\"6A\",\"C2\",\"J\",\"127\"
\"\",\"\",\"approach-retreat\",\"131\",\"991138\",\"0.0-131.0\",\"\",\"\",\"1-1\",\"4192\",\"38\",\"1\",\"Training\",\"Stims/Figures/93-J-0-1.bmp\",\"vasha:sha\",\"Down\",\"38\",\"8\",\"16\",\"6A\",\"C1\",\"J\",\"128\"
\"\",\"\",\"approach-retreat\",\"132\",\"996816\",\"0.0-132.0\",\"\",\"\",\"1-1\",\"4167\",\"37\",\"1\",\"Training\",\"Stims/Figures/93-C-30-1.bmp\",\"za:ha:za\",\"Left\",\"37\",\"9\",\"1\",\"6A\",\"C2\",\"J\",\"129\"
\"\",\"\",\"approach-retreat\",\"133\",\"1002491\",\"0.0-133.0\",\"\",\"\",\"1-1\",\"4165\",\"39\",\"1\",\"Training\",\"Stims/Figures/118-C-20-2.bmp\",\"zahaza\",\"Right\",\"39\",\"9\",\"2\",\"6A\",\"C2\",\"J\",\"130\"
\"\",\"\",\"approach-retreat\",\"134\",\"1008876\",\"0.0-134.0\",\"\",\"\",\"1-1\",\"4874\",\"37\",\"1\",\"Training\",\"Stims/Figures/57-J-0-1.bmp\",\"fa:fa:va\",\"Right\",\"37\",\"9\",\"3\",\"6A\",\"C1\",\"J\",\"131\"
\"\",\"\",\"approach-retreat\",\"135\",\"1014982\",\"0.0-135.0\",\"\",\"\",\"1-1\",\"4597\",\"38\",\"1\",\"Training\",\"Stims/Figures/57-C-30-1.bmp\",\"za:saha\",\"Up\",\"38\",\"9\",\"4\",\"6A\",\"C2\",\"J\",\"132\"
\"\",\"\",\"approach-retreat\",\"136\",\"1020757\",\"0.0-136.0\",\"\",\"\",\"1-1\",\"4263\",\"38\",\"1\",\"Training\",\"Stims/Figures/128-C-30-3.bmp\",\"sa:sa:za\",\"Up\",\"38\",\"9\",\"5\",\"6A\",\"C2\",\"J\",\"133\"
\"\",\"\",\"approach-retreat\",\"137\",\"1027100\",\"0.0-137.0\",\"\",\"\",\"1-1\",\"4832\",\"39\",\"1\",\"Training\",\"Stims/Figures/139-J-0-2.bmp\",\"fafa:sha\",\"Left\",\"39\",\"9\",\"6\",\"6A\",\"C1\",\"J\",\"134\"
\"\",\"\",\"approach-retreat\",\"138\",\"1032879\",\"0.0-138.0\",\"\",\"\",\"1-1\",\"4268\",\"38\",\"1\",\"Training\",\"Stims/Figures/118-J-0-2.bmp\",\"va:fasha\",\"Down\",\"38\",\"9\",\"7\",\"6A\",\"C1\",\"J\",\"135\"
\"\",\"\",\"approach-retreat\",\"139\",\"1039327\",\"0.0-139.0\",\"\",\"\",\"1-1\",\"4937\",\"38\",\"1\",\"Training\",\"Stims/Figures/44-C-30-3.bmp\",\"za:ha:ha\",\"Up\",\"38\",\"9\",\"8\",\"6A\",\"C2\",\"J\",\"136\"
\"\",\"\",\"approach-retreat\",\"140\",\"1045713\",\"0.0-140.0\",\"\",\"\",\"1-1\",\"4877\",\"38\",\"1\",\"Training\",\"Stims/Figures/7-C-20-4.bmp\",\"za:saza\",\"Up\",\"38\",\"9\",\"9\",\"6A\",\"C2\",\"J\",\"137\"
\"\",\"\",\"approach-retreat\",\"141\",\"1051428\",\"0.0-141.0\",\"\",\"\",\"1-1\",\"4211\",\"38\",\"1\",\"Training\",\"Stims/Figures/19-J-10-4.bmp\",\"vafa:sha\",\"Down\",\"38\",\"9\",\"10\",\"6A\",\"C1\",\"J\",\"138\"
\"\",\"\",\"approach-retreat\",\"142\",\"1057569\",\"0.0-142.0\",\"\",\"\",\"1-1\",\"4634\",\"39\",\"1\",\"Training\",\"Stims/Figures/19-C-20-4.bmp\",\"sasa:ha\",\"Right\",\"39\",\"9\",\"11\",\"6A\",\"C2\",\"J\",\"139\"
\"\",\"\",\"approach-retreat\",\"143\",\"1063597\",\"0.0-143.0\",\"\",\"\",\"1-1\",\"4516\",\"39\",\"1\",\"Training\",\"Stims/Figures/44-J-10-3.bmp\",\"fashasha\",\"Left\",\"39\",\"9\",\"12\",\"6A\",\"C1\",\"J\",\"140\"
\"\",\"\",\"approach-retreat\",\"144\",\"1069365\",\"0.0-144.0\",\"\",\"\",\"1-1\",\"4257\",\"39\",\"1\",\"Training\",\"Stims/Figures/93-J-0-1.bmp\",\"vasha:sha\",\"Left\",\"39\",\"9\",\"13\",\"6A\",\"C1\",\"J\",\"141\"
\"\",\"\",\"approach-retreat\",\"145\",\"1075216\",\"0.0-145.0\",\"\",\"\",\"1-1\",\"4340\",\"38\",\"1\",\"Training\",\"Stims/Figures/128-J-10-3.bmp\",\"va:sha:va\",\"Down\",\"38\",\"9\",\"14\",\"6A\",\"C1\",\"J\",\"142\"
\"\",\"\",\"approach-retreat\",\"146\",\"1080820\",\"0.0-146.0\",\"\",\"\",\"1-1\",\"4094\",\"38\",\"1\",\"Training\",\"Stims/Figures/7-J-10-4.bmp\",\"va:fa:va\",\"Down\",\"38\",\"9\",\"15\",\"6A\",\"C1\",\"J\",\"143\"
\"\",\"\",\"approach-retreat\",\"147\",\"1086438\",\"0.0-147.0\",\"\",\"\",\"1-1\",\"4105\",\"39\",\"1\",\"Training\",\"Stims/Figures/139-C-20-2.bmp\",\"sahaha\",\"Right\",\"39\",\"9\",\"16\",\"6A\",\"C2\",\"J\",\"144\"
\"26231\",\"\",\"instructions\",\"148\",\"1112670\",\"0.0-148.0\",\"[{\"\"page_index\"\":0,\"\"viewing_time\"\":26231}]\",\"\",\"\",\"\",\"\",\"\",\"\",\"\",\"\",\"\",\"\",\"\",\"\",\"\",\"\",\"\",\"\"
\"\",\"\",\"approach-retreat\",\"149\",\"1122967\",\"0.0-149.0\",\"\",\"\",\"1-1\",\"8788\",\"40\",\"1\",\"Testing\",\"Stims/Figures/94-C-20-2.bmp\",\"zaha:za\",\"Down\",\"40\",\"1\",\"1\",\"6A\",\"C2\",\"J\",\"1\"
\"\",\"\",\"approach-retreat\",\"150\",\"1129384\",\"0.0-150.0\",\"\",\"\",\"1-1\",\"4908\",\"39\",\"1\",\"Testing\",\"Stims/Figures/57-C-30-1.bmp\",\"za:saha\",\"Right\",\"39\",\"1\",\"2\",\"6A\",\"C2\",\"J\",\"2\"
\"\",\"\",\"approach-retreat\",\"151\",\"1135124\",\"0.0-151.0\",\"\",\"\",\"1-1\",\"4233\",\"37\",\"1\",\"Testing\",\"Stims/Figures/139-J-0-2.bmp\",\"fafa:sha\",\"Right\",\"37\",\"1\",\"3\",\"6A\",\"C1\",\"J\",\"3\"
\"\",\"\",\"approach-retreat\",\"152\",\"1140924\",\"0.0-152.0\",\"\",\"\",\"1-1\",\"4291\",\"40\",\"1\",\"Testing\",\"Stims/Figures/57-J-0-1.bmp\",\"fa:fa:va\",\"Up\",\"40\",\"1\",\"4\",\"6A\",\"C1\",\"J\",\"4\"
\"\",\"\",\"approach-retreat\",\"153\",\"1146595\",\"0.0-153.0\",\"\",\"\",\"1-1\",\"4163\",\"37\",\"1\",\"Testing\",\"Stims/Figures/44-J-10-3.bmp\",\"fashasha\",\"Right\",\"37\",\"1\",\"5\",\"6A\",\"C1\",\"J\",\"5\"
\"\",\"\",\"approach-retreat\",\"154\",\"1154768\",\"0.0-154.0\",\"\",\"\",\"1-1\",\"6668\",\"39\",\"0\",\"Testing\",\"Stims/Figures/102-J-10-4.bmp\",\"va:shava\",\"Right\",\"37\",\"1\",\"6\",\"6A\",\"C1\",\"J\",\"6\"
\"\",\"\",\"approach-retreat\",\"155\",\"1161169\",\"0.0-155.0\",\"\",\"\",\"1-1\",\"4892\",\"39\",\"1\",\"Testing\",\"Stims/Figures/7-C-20-4.bmp\",\"za:saza\",\"Right\",\"39\",\"1\",\"7\",\"6A\",\"C2\",\"J\",\"7\"
\"\",\"\",\"approach-retreat\",\"156\",\"1166916\",\"0.0-156.0\",\"\",\"\",\"1-1\",\"4239\",\"40\",\"1\",\"Testing\",\"Stims/Figures/111-C-30-3.bmp\",\"zasa:za\",\"Down\",\"40\",\"1\",\"8\",\"6A\",\"C2\",\"J\",\"8\"
\"\",\"\",\"approach-retreat\",\"157\",\"1172680\",\"0.0-157.0\",\"\",\"\",\"1-1\",\"4256\",\"37\",\"1\",\"Testing\",\"Stims/Figures/27-C-30-1.bmp\",\"sa:ha:ha\",\"Left\",\"37\",\"1\",\"9\",\"6A\",\"C2\",\"J\",\"9\"
\"\",\"\",\"approach-retreat\",\"158\",\"1178608\",\"0.0-158.0\",\"\",\"\",\"1-1\",\"4420\",\"37\",\"1\",\"Testing\",\"Stims/Figures/102-C-20-4.bmp\",\"sasaza\",\"Left\",\"37\",\"1\",\"10\",\"6A\",\"C2\",\"J\",\"10\"
\"\",\"\",\"approach-retreat\",\"159\",\"1184752\",\"0.0-159.0\",\"\",\"\",\"1-1\",\"4637\",\"37\",\"1\",\"Testing\",\"Stims/Figures/128-C-30-3.bmp\",\"sa:sa:za\",\"Left\",\"37\",\"1\",\"11\",\"6A\",\"C2\",\"J\",\"11\"
\"\",\"\",\"approach-retreat\",\"160\",\"1190637\",\"0.0-160.0\",\"\",\"\",\"1-1\",\"4362\",\"40\",\"1\",\"Testing\",\"Stims/Figures/94-J-0-2.bmp\",\"fa:sha:sha\",\"Up\",\"40\",\"1\",\"12\",\"6A\",\"C1\",\"J\",\"12\"
\"\",\"\",\"approach-retreat\",\"161\",\"1196472\",\"0.0-161.0\",\"\",\"\",\"1-1\",\"4328\",\"38\",\"1\",\"Testing\",\"Stims/Figures/128-J-10-3.bmp\",\"va:sha:va\",\"Down\",\"38\",\"1\",\"13\",\"6A\",\"C1\",\"J\",\"13\"
\"\",\"\",\"approach-retreat\",\"162\",\"1202253\",\"0.0-162.0\",\"\",\"\",\"1-1\",\"4272\",\"37\",\"1\",\"Testing\",\"Stims/Figures/93-C-30-1.bmp\",\"za:ha:za\",\"Left\",\"37\",\"1\",\"14\",\"6A\",\"C2\",\"J\",\"14\"
\"\",\"\",\"approach-retreat\",\"163\",\"1208021\",\"0.0-163.0\",\"\",\"\",\"1-1\",\"4258\",\"40\",\"1\",\"Testing\",\"Stims/Figures/27-J-0-1.bmp\",\"fa:fasha\",\"Up\",\"40\",\"1\",\"15\",\"6A\",\"C1\",\"J\",\"15\"
\"\",\"\",\"approach-retreat\",\"164\",\"1213841\",\"0.0-164.0\",\"\",\"\",\"1-1\",\"4313\",\"37\",\"1\",\"Testing\",\"Stims/Figures/139-C-20-2.bmp\",\"sahaha\",\"Left\",\"37\",\"1\",\"16\",\"6A\",\"C2\",\"J\",\"16\"
\"\",\"\",\"approach-retreat\",\"165\",\"1219681\",\"0.0-165.0\",\"\",\"\",\"1-1\",\"4328\",\"38\",\"1\",\"Testing\",\"Stims/Figures/19-C-20-4.bmp\",\"sasa:ha\",\"Up\",\"38\",\"1\",\"17\",\"6A\",\"C2\",\"J\",\"17\"
\"\",\"\",\"approach-retreat\",\"166\",\"1225849\",\"0.0-166.0\",\"\",\"\",\"1-1\",\"4658\",\"38\",\"1\",\"Testing\",\"Stims/Figures/93-J-0-1.bmp\",\"vasha:sha\",\"Down\",\"38\",\"1\",\"18\",\"6A\",\"C1\",\"J\",\"18\"
\"\",\"\",\"approach-retreat\",\"167\",\"1233072\",\"0.0-167.0\",\"\",\"\",\"1-1\",\"5703\",\"38\",\"1\",\"Testing\",\"Stims/Figures/44-C-30-3.bmp\",\"za:ha:ha\",\"Up\",\"38\",\"1\",\"19\",\"6A\",\"C2\",\"J\",\"19\"
\"\",\"\",\"approach-retreat\",\"168\",\"1239103\",\"0.0-168.0\",\"\",\"\",\"1-1\",\"4522\",\"39\",\"0\",\"Testing\",\"Stims/Figures/118-J-0-2.bmp\",\"va:fasha\",\"Right\",\"37\",\"1\",\"20\",\"6A\",\"C1\",\"J\",\"20\"
\"\",\"\",\"approach-retreat\",\"169\",\"1247430\",\"0.0-169.0\",\"\",\"\",\"1-1\",\"6818\",\"40\",\"0\",\"Testing\",\"Stims/Figures/111-J-10-3.bmp\",\"fafasha\",\"Down\",\"38\",\"1\",\"21\",\"6A\",\"C1\",\"J\",\"21\"
\"\",\"\",\"approach-retreat\",\"170\",\"1255762\",\"0.0-170.0\",\"\",\"\",\"1-1\",\"6827\",\"38\",\"0\",\"Testing\",\"Stims/Figures/19-J-10-4.bmp\",\"vafa:sha\",\"Up\",\"40\",\"1\",\"22\",\"6A\",\"C1\",\"J\",\"22\"
\"\",\"\",\"approach-retreat\",\"171\",\"1267371\",\"0.0-171.0\",\"\",\"\",\"1-1\",\"10100\",\"38\",\"1\",\"Testing\",\"Stims/Figures/7-J-10-4.bmp\",\"va:fa:va\",\"Down\",\"38\",\"1\",\"23\",\"6A\",\"C1\",\"J\",\"23\"
\"\",\"\",\"approach-retreat\",\"172\",\"1273268\",\"0.0-172.0\",\"\",\"\",\"1-1\",\"4388\",\"37\",\"1\",\"Testing\",\"Stims/Figures/118-C-20-2.bmp\",\"zahaza\",\"Left\",\"37\",\"1\",\"24\",\"6A\",\"C2\",\"J\",\"24\"
\"\",\"\",\"approach-retreat\",\"173\",\"1279000\",\"0.0-173.0\",\"\",\"\",\"1-1\",\"4224\",\"39\",\"1\",\"Testing\",\"Stims/Figures/27-J-0-1.bmp\",\"fa:fasha\",\"Left\",\"39\",\"2\",\"1\",\"6A\",\"C1\",\"J\",\"25\"
\"\",\"\",\"approach-retreat\",\"174\",\"1284731\",\"0.0-174.0\",\"\",\"\",\"1-1\",\"4220\",\"40\",\"1\",\"Testing\",\"Stims/Figures/57-J-0-1.bmp\",\"fa:fa:va\",\"Up\",\"40\",\"2\",\"2\",\"6A\",\"C1\",\"J\",\"26\"
\"\",\"\",\"approach-retreat\",\"175\",\"1290362\",\"0.0-175.0\",\"\",\"\",\"1-1\",\"4122\",\"39\",\"1\",\"Testing\",\"Stims/Figures/139-C-20-2.bmp\",\"sahaha\",\"Right\",\"39\",\"2\",\"3\",\"6A\",\"C2\",\"J\",\"27\"
\"\",\"\",\"approach-retreat\",\"176\",\"1299275\",\"0.0-176.0\",\"\",\"\",\"1-1\",\"7405\",\"37\",\"0\",\"Testing\",\"Stims/Figures/102-J-10-4.bmp\",\"va:shava\",\"Left\",\"39\",\"2\",\"4\",\"6A\",\"C1\",\"J\",\"28\"
\"\",\"\",\"approach-retreat\",\"177\",\"1307058\",\"0.0-177.0\",\"\",\"\",\"1-1\",\"6274\",\"39\",\"0\",\"Testing\",\"Stims/Figures/19-J-10-4.bmp\",\"vafa:sha\",\"Right\",\"37\",\"2\",\"5\",\"6A\",\"C1\",\"J\",\"29\"
\"\",\"\",\"approach-retreat\",\"178\",\"1315976\",\"0.0-178.0\",\"\",\"\",\"1-1\",\"7413\",\"37\",\"1\",\"Testing\",\"Stims/Figures/111-J-10-3.bmp\",\"fafasha\",\"Right\",\"37\",\"2\",\"6\",\"6A\",\"C1\",\"J\",\"30\"
\"\",\"\",\"approach-retreat\",\"179\",\"1321866\",\"0.0-179.0\",\"\",\"\",\"1-1\",\"4387\",\"38\",\"1\",\"Testing\",\"Stims/Figures/94-J-0-2.bmp\",\"fa:sha:sha\",\"Down\",\"38\",\"2\",\"7\",\"6A\",\"C1\",\"J\",\"31\"
\"\",\"\",\"approach-retreat\",\"180\",\"1327937\",\"0.0-180.0\",\"\",\"\",\"1-1\",\"4562\",\"38\",\"1\",\"Testing\",\"Stims/Figures/111-C-30-3.bmp\",\"zasa:za\",\"Up\",\"38\",\"2\",\"8\",\"6A\",\"C2\",\"J\",\"32\"
\"\",\"\",\"approach-retreat\",\"181\",\"1333569\",\"0.0-181.0\",\"\",\"\",\"1-1\",\"4122\",\"37\",\"1\",\"Testing\",\"Stims/Figures/93-J-0-1.bmp\",\"vasha:sha\",\"Right\",\"37\",\"2\",\"9\",\"6A\",\"C1\",\"J\",\"33\"
\"\",\"\",\"approach-retreat\",\"182\",\"1339280\",\"0.0-182.0\",\"\",\"\",\"1-1\",\"4206\",\"40\",\"1\",\"Testing\",\"Stims/Figures/19-C-20-4.bmp\",\"sasa:ha\",\"Down\",\"40\",\"2\",\"10\",\"6A\",\"C2\",\"J\",\"34\"
\"\",\"\",\"approach-retreat\",\"183\",\"1345029\",\"0.0-183.0\",\"\",\"\",\"1-1\",\"4241\",\"40\",\"0\",\"Testing\",\"Stims/Figures/128-J-10-3.bmp\",\"va:sha:va\",\"Down\",\"38\",\"2\",\"11\",\"6A\",\"C1\",\"J\",\"35\"
\"\",\"\",\"approach-retreat\",\"184\",\"1350995\",\"0.0-184.0\",\"\",\"\",\"1-1\",\"4457\",\"37\",\"1\",\"Testing\",\"Stims/Figures/118-C-20-2.bmp\",\"zahaza\",\"Left\",\"37\",\"2\",\"12\",\"6A\",\"C2\",\"J\",\"36\"
\"\",\"\",\"approach-retreat\",\"185\",\"1356806\",\"0.0-185.0\",\"\",\"\",\"1-1\",\"4302\",\"40\",\"1\",\"Testing\",\"Stims/Figures/102-C-20-4.bmp\",\"sasaza\",\"Down\",\"40\",\"2\",\"13\",\"6A\",\"C2\",\"J\",\"37\"
\"\",\"\",\"approach-retreat\",\"186\",\"1362417\",\"0.0-186.0\",\"\",\"\",\"1-1\",\"4106\",\"40\",\"1\",\"Testing\",\"Stims/Figures/7-C-20-4.bmp\",\"za:saza\",\"Down\",\"40\",\"2\",\"14\",\"6A\",\"C2\",\"J\",\"38\"
\"\",\"\",\"approach-retreat\",\"187\",\"1369318\",\"0.0-187.0\",\"\",\"\",\"1-1\",\"5392\",\"38\",\"1\",\"Testing\",\"Stims/Figures/128-C-30-3.bmp\",\"sa:sa:za\",\"Up\",\"38\",\"2\",\"15\",\"6A\",\"C2\",\"J\",\"39\"
\"\",\"\",\"approach-retreat\",\"188\",\"1378093\",\"0.0-188.0\",\"\",\"\",\"1-1\",\"7267\",\"39\",\"1\",\"Testing\",\"Stims/Figures/44-C-30-3.bmp\",\"za:ha:ha\",\"Right\",\"39\",\"2\",\"16\",\"6A\",\"C2\",\"J\",\"40\"
\"\",\"\",\"approach-retreat\",\"189\",\"1384111\",\"0.0-189.0\",\"\",\"\",\"1-1\",\"4509\",\"39\",\"1\",\"Testing\",\"Stims/Figures/44-J-10-3.bmp\",\"fashasha\",\"Left\",\"39\",\"2\",\"17\",\"6A\",\"C1\",\"J\",\"41\"
\"\",\"\",\"approach-retreat\",\"190\",\"1393976\",\"0.0-190.0\",\"\",\"\",\"1-1\",\"8356\",\"39\",\"1\",\"Testing\",\"Stims/Figures/27-C-30-1.bmp\",\"sa:ha:ha\",\"Right\",\"39\",\"2\",\"18\",\"6A\",\"C2\",\"J\",\"42\"
\"\",\"\",\"approach-retreat\",\"191\",\"1399820\",\"0.0-191.0\",\"\",\"\",\"1-1\",\"4335\",\"40\",\"1\",\"Testing\",\"Stims/Figures/94-C-20-2.bmp\",\"zaha:za\",\"Down\",\"40\",\"2\",\"19\",\"6A\",\"C2\",\"J\",\"43\"
\"\",\"\",\"approach-retreat\",\"192\",\"1408733\",\"0.0-192.0\",\"\",\"\",\"1-1\",\"7404\",\"37\",\"0\",\"Testing\",\"Stims/Figures/7-J-10-4.bmp\",\"va:fa:va\",\"Left\",\"39\",\"2\",\"20\",\"6A\",\"C1\",\"J\",\"44\"
\"\",\"\",\"approach-retreat\",\"193\",\"1414551\",\"0.0-193.0\",\"\",\"\",\"1-1\",\"4315\",\"38\",\"1\",\"Testing\",\"Stims/Figures/57-C-30-1.bmp\",\"za:saha\",\"Up\",\"38\",\"2\",\"21\",\"6A\",\"C2\",\"J\",\"45\"
\"\",\"\",\"approach-retreat\",\"194\",\"1420259\",\"0.0-194.0\",\"\",\"\",\"1-1\",\"4200\",\"38\",\"1\",\"Testing\",\"Stims/Figures/93-C-30-1.bmp\",\"za:ha:za\",\"Up\",\"38\",\"2\",\"22\",\"6A\",\"C2\",\"J\",\"46\"
\"\",\"\",\"approach-retreat\",\"195\",\"1425873\",\"0.0-195.0\",\"\",\"\",\"1-1\",\"4106\",\"40\",\"1\",\"Testing\",\"Stims/Figures/118-J-0-2.bmp\",\"va:fasha\",\"Up\",\"40\",\"2\",\"23\",\"6A\",\"C1\",\"J\",\"47\"
\"\",\"\",\"approach-retreat\",\"196\",\"1431566\",\"0.0-196.0\",\"\",\"\",\"1-1\",\"4185\",\"39\",\"1\",\"Testing\",\"Stims/Figures/139-J-0-2.bmp\",\"fafa:sha\",\"Left\",\"39\",\"2\",\"24\",\"6A\",\"C1\",\"J\",\"48\"
\"\",\"\",\"approach-retreat\",\"197\",\"1437298\",\"0.0-197.0\",\"\",\"\",\"1-1\",\"4222\",\"40\",\"1\",\"Testing\",\"Stims/Figures/102-J-10-4.bmp\",\"va:shava\",\"Up\",\"40\",\"3\",\"1\",\"6A\",\"C1\",\"J\",\"49\"
\"\",\"\",\"approach-retreat\",\"198\",\"1443207\",\"0.0-198.0\",\"\",\"\",\"1-1\",\"4401\",\"40\",\"1\",\"Testing\",\"Stims/Figures/7-C-20-4.bmp\",\"za:saza\",\"Down\",\"40\",\"3\",\"2\",\"6A\",\"C2\",\"J\",\"50\"
\"\",\"\",\"approach-retreat\",\"199\",\"1448861\",\"0.0-199.0\",\"\",\"\",\"1-1\",\"4145\",\"40\",\"1\",\"Testing\",\"Stims/Figures/93-C-30-1.bmp\",\"za:ha:za\",\"Down\",\"40\",\"3\",\"3\",\"6A\",\"C2\",\"J\",\"51\"
\"\",\"\",\"approach-retreat\",\"200\",\"1455256\",\"0.0-200.0\",\"\",\"\",\"1-1\",\"4885\",\"38\",\"1\",\"Testing\",\"Stims/Figures/19-J-10-4.bmp\",\"vafa:sha\",\"Down\",\"38\",\"3\",\"4\",\"6A\",\"C1\",\"J\",\"52\"
\"\",\"\",\"approach-retreat\",\"201\",\"1460938\",\"0.0-201.0\",\"\",\"\",\"1-1\",\"4173\",\"38\",\"1\",\"Testing\",\"Stims/Figures/94-J-0-2.bmp\",\"fa:sha:sha\",\"Down\",\"38\",\"3\",\"5\",\"6A\",\"C1\",\"J\",\"53\"
\"\",\"\",\"approach-retreat\",\"202\",\"1466752\",\"0.0-202.0\",\"\",\"\",\"1-1\",\"4306\",\"40\",\"1\",\"Testing\",\"Stims/Figures/93-J-0-1.bmp\",\"vasha:sha\",\"Up\",\"40\",\"3\",\"6\",\"6A\",\"C1\",\"J\",\"54\"
\"\",\"\",\"approach-retreat\",\"203\",\"1472484\",\"0.0-203.0\",\"\",\"\",\"1-1\",\"4224\",\"39\",\"1\",\"Testing\",\"Stims/Figures/118-J-0-2.bmp\",\"va:fasha\",\"Left\",\"39\",\"3\",\"7\",\"6A\",\"C1\",\"J\",\"55\"
\"\",\"\",\"approach-retreat\",\"204\",\"1478979\",\"0.0-204.0\",\"\",\"\",\"1-1\",\"4987\",\"39\",\"1\",\"Testing\",\"Stims/Figures/118-C-20-2.bmp\",\"zahaza\",\"Right\",\"39\",\"3\",\"8\",\"6A\",\"C2\",\"J\",\"56\"
\"\",\"\",\"approach-retreat\",\"205\",\"1485383\",\"0.0-205.0\",\"\",\"\",\"1-1\",\"4895\",\"40\",\"1\",\"Testing\",\"Stims/Figures/27-J-0-1.bmp\",\"fa:fasha\",\"Up\",\"40\",\"3\",\"9\",\"6A\",\"C1\",\"J\",\"57\"
\"\",\"\",\"approach-retreat\",\"206\",\"1492116\",\"0.0-206.0\",\"\",\"\",\"1-1\",\"5224\",\"37\",\"1\",\"Testing\",\"Stims/Figures/139-C-20-2.bmp\",\"sahaha\",\"Left\",\"37\",\"3\",\"10\",\"6A\",\"C2\",\"J\",\"58\"
\"\",\"\",\"approach-retreat\",\"207\",\"1497852\",\"0.0-207.0\",\"\",\"\",\"1-1\",\"4227\",\"39\",\"1\",\"Testing\",\"Stims/Figures/57-J-0-1.bmp\",\"fa:fa:va\",\"Left\",\"39\",\"3\",\"11\",\"6A\",\"C1\",\"J\",\"59\"
\"\",\"\",\"approach-retreat\",\"208\",\"1503605\",\"0.0-208.0\",\"\",\"\",\"1-1\",\"4243\",\"37\",\"1\",\"Testing\",\"Stims/Figures/57-C-30-1.bmp\",\"za:saha\",\"Left\",\"37\",\"3\",\"12\",\"6A\",\"C2\",\"J\",\"60\"
\"\",\"\",\"approach-retreat\",\"209\",\"1511139\",\"0.0-209.0\",\"\",\"\",\"1-1\",\"6025\",\"40\",\"1\",\"Testing\",\"Stims/Figures/102-C-20-4.bmp\",\"sasaza\",\"Down\",\"40\",\"3\",\"13\",\"6A\",\"C2\",\"J\",\"61\"
\"\",\"\",\"approach-retreat\",\"210\",\"1516871\",\"0.0-210.0\",\"\",\"\",\"1-1\",\"4224\",\"40\",\"1\",\"Testing\",\"Stims/Figures/44-C-30-3.bmp\",\"za:ha:ha\",\"Down\",\"40\",\"3\",\"14\",\"6A\",\"C2\",\"J\",\"62\"
\"\",\"\",\"approach-retreat\",\"211\",\"1522653\",\"0.0-211.0\",\"\",\"\",\"1-1\",\"4265\",\"38\",\"1\",\"Testing\",\"Stims/Figures/128-C-30-3.bmp\",\"sa:sa:za\",\"Up\",\"38\",\"3\",\"15\",\"6A\",\"C2\",\"J\",\"63\"
\"\",\"\",\"approach-retreat\",\"212\",\"1528379\",\"0.0-212.0\",\"\",\"\",\"1-1\",\"4218\",\"37\",\"1\",\"Testing\",\"Stims/Figures/94-C-20-2.bmp\",\"zaha:za\",\"Left\",\"37\",\"3\",\"16\",\"6A\",\"C2\",\"J\",\"64\"
\"\",\"\",\"approach-retreat\",\"213\",\"1535777\",\"0.0-213.0\",\"\",\"\",\"1-1\",\"5889\",\"39\",\"0\",\"Testing\",\"Stims/Figures/111-J-10-3.bmp\",\"fafasha\",\"Right\",\"37\",\"3\",\"17\",\"6A\",\"C1\",\"J\",\"65\"
\"\",\"\",\"approach-retreat\",\"214\",\"1541402\",\"0.0-214.0\",\"\",\"\",\"1-1\",\"4117\",\"37\",\"1\",\"Testing\",\"Stims/Figures/44-J-10-3.bmp\",\"fashasha\",\"Right\",\"37\",\"3\",\"18\",\"6A\",\"C1\",\"J\",\"66\"
\"\",\"\",\"approach-retreat\",\"215\",\"1547599\",\"0.0-215.0\",\"\",\"\",\"1-1\",\"4687\",\"39\",\"1\",\"Testing\",\"Stims/Figures/111-C-30-3.bmp\",\"zasa:za\",\"Right\",\"39\",\"3\",\"19\",\"6A\",\"C2\",\"J\",\"67\"
\"\",\"\",\"approach-retreat\",\"216\",\"1558653\",\"0.0-216.0\",\"\",\"\",\"1-1\",\"9545\",\"40\",\"1\",\"Testing\",\"Stims/Figures/7-J-10-4.bmp\",\"va:fa:va\",\"Up\",\"40\",\"3\",\"20\",\"6A\",\"C1\",\"J\",\"68\"
\"\",\"\",\"approach-retreat\",\"217\",\"1566469\",\"0.0-217.0\",\"\",\"\",\"1-1\",\"6307\",\"37\",\"1\",\"Testing\",\"Stims/Figures/128-J-10-3.bmp\",\"va:sha:va\",\"Right\",\"37\",\"3\",\"21\",\"6A\",\"C1\",\"J\",\"69\"
\"\",\"\",\"approach-retreat\",\"218\",\"1572293\",\"0.0-218.0\",\"\",\"\",\"1-1\",\"4314\",\"38\",\"1\",\"Testing\",\"Stims/Figures/27-C-30-1.bmp\",\"sa:ha:ha\",\"Up\",\"38\",\"3\",\"22\",\"6A\",\"C2\",\"J\",\"70\"
\"\",\"\",\"approach-retreat\",\"219\",\"1577956\",\"0.0-219.0\",\"\",\"\",\"1-1\",\"4153\",\"39\",\"1\",\"Testing\",\"Stims/Figures/19-C-20-4.bmp\",\"sasa:ha\",\"Right\",\"39\",\"3\",\"23\",\"6A\",\"C2\",\"J\",\"71\"
\"\",\"\",\"approach-retreat\",\"220\",\"1583823\",\"0.0-220.0\",\"\",\"\",\"1-1\",\"4358\",\"39\",\"1\",\"Testing\",\"Stims/Figures/139-J-0-2.bmp\",\"fafa:sha\",\"Left\",\"39\",\"3\",\"24\",\"6A\",\"C1\",\"J\",\"72\"
\"\",\"\",\"approach-retreat\",\"221\",\"1590537\",\"0.0-221.0\",\"\",\"\",\"1-1\",\"5206\",\"39\",\"1\",\"Testing\",\"Stims/Figures/118-J-0-2.bmp\",\"va:fasha\",\"Left\",\"39\",\"4\",\"1\",\"6A\",\"C1\",\"J\",\"73\"
\"\",\"\",\"approach-retreat\",\"222\",\"1596283\",\"0.0-222.0\",\"\",\"\",\"1-1\",\"4237\",\"40\",\"1\",\"Testing\",\"Stims/Figures/19-J-10-4.bmp\",\"vafa:sha\",\"Up\",\"40\",\"4\",\"2\",\"6A\",\"C1\",\"J\",\"74\"
\"\",\"\",\"approach-retreat\",\"223\",\"1602156\",\"0.0-223.0\",\"\",\"\",\"1-1\",\"4364\",\"38\",\"1\",\"Testing\",\"Stims/Figures/44-J-10-3.bmp\",\"fashasha\",\"Down\",\"38\",\"4\",\"3\",\"6A\",\"C1\",\"J\",\"75\"
\"\",\"\",\"approach-retreat\",\"224\",\"1607961\",\"0.0-224.0\",\"\",\"\",\"1-1\",\"4297\",\"40\",\"1\",\"Testing\",\"Stims/Figures/93-J-0-1.bmp\",\"vasha:sha\",\"Up\",\"40\",\"4\",\"4\",\"6A\",\"C1\",\"J\",\"76\"
\"\",\"\",\"approach-retreat\",\"225\",\"1613635\",\"0.0-225.0\",\"\",\"\",\"1-1\",\"4164\",\"40\",\"1\",\"Testing\",\"Stims/Figures/94-J-0-2.bmp\",\"fa:sha:sha\",\"Up\",\"40\",\"4\",\"5\",\"6A\",\"C1\",\"J\",\"77\"
\"\",\"\",\"approach-retreat\",\"226\",\"1619337\",\"0.0-226.0\",\"\",\"\",\"1-1\",\"4195\",\"37\",\"1\",\"Testing\",\"Stims/Figures/27-J-0-1.bmp\",\"fa:fasha\",\"Right\",\"37\",\"4\",\"6\",\"6A\",\"C1\",\"J\",\"78\"
\"\",\"\",\"approach-retreat\",\"227\",\"1625034\",\"0.0-227.0\",\"\",\"\",\"1-1\",\"4187\",\"37\",\"1\",\"Testing\",\"Stims/Figures/57-C-30-1.bmp\",\"za:saha\",\"Left\",\"37\",\"4\",\"7\",\"6A\",\"C2\",\"J\",\"79\"
\"\",\"\",\"approach-retreat\",\"228\",\"1634002\",\"0.0-228.0\",\"\",\"\",\"1-1\",\"7460\",\"40\",\"0\",\"Testing\",\"Stims/Figures/7-J-10-4.bmp\",\"va:fa:va\",\"Down\",\"38\",\"4\",\"8\",\"6A\",\"C1\",\"J\",\"80\"
\"\",\"\",\"approach-retreat\",\"229\",\"1641277\",\"0.0-229.0\",\"\",\"\",\"1-1\",\"5765\",\"39\",\"1\",\"Testing\",\"Stims/Figures/139-C-20-2.bmp\",\"sahaha\",\"Right\",\"39\",\"4\",\"9\",\"6A\",\"C2\",\"J\",\"81\"
\"\",\"\",\"approach-retreat\",\"230\",\"1646983\",\"0.0-230.0\",\"\",\"\",\"1-1\",\"4196\",\"37\",\"1\",\"Testing\",\"Stims/Figures/93-C-30-1.bmp\",\"za:ha:za\",\"Left\",\"37\",\"4\",\"10\",\"6A\",\"C2\",\"J\",\"82\"
\"\",\"\",\"approach-retreat\",\"231\",\"1652818\",\"0.0-231.0\",\"\",\"\",\"1-1\",\"4325\",\"40\",\"1\",\"Testing\",\"Stims/Figures/19-C-20-4.bmp\",\"sasa:ha\",\"Down\",\"40\",\"4\",\"11\",\"6A\",\"C2\",\"J\",\"83\"
\"\",\"\",\"approach-retreat\",\"232\",\"1659087\",\"0.0-232.0\",\"\",\"\",\"1-1\",\"4761\",\"37\",\"1\",\"Testing\",\"Stims/Figures/57-J-0-1.bmp\",\"fa:fa:va\",\"Right\",\"37\",\"4\",\"12\",\"6A\",\"C1\",\"J\",\"84\"
\"\",\"\",\"approach-retreat\",\"233\",\"1664837\",\"0.0-233.0\",\"\",\"\",\"1-1\",\"4241\",\"38\",\"1\",\"Testing\",\"Stims/Figures/102-C-20-4.bmp\",\"sasaza\",\"Up\",\"38\",\"4\",\"13\",\"6A\",\"C2\",\"J\",\"85\"
\"\",\"\",\"approach-retreat\",\"234\",\"1670565\",\"0.0-234.0\",\"\",\"\",\"1-1\",\"4224\",\"38\",\"1\",\"Testing\",\"Stims/Figures/94-C-20-2.bmp\",\"zaha:za\",\"Up\",\"38\",\"4\",\"14\",\"6A\",\"C2\",\"J\",\"86\"
\"\",\"\",\"approach-retreat\",\"235\",\"1680281\",\"0.0-235.0\",\"\",\"\",\"1-1\",\"8207\",\"37\",\"0\",\"Testing\",\"Stims/Figures/128-J-10-3.bmp\",\"va:sha:va\",\"Left\",\"39\",\"4\",\"15\",\"6A\",\"C1\",\"J\",\"87\"
\"\",\"\",\"approach-retreat\",\"236\",\"1686011\",\"0.0-236.0\",\"\",\"\",\"1-1\",\"4226\",\"39\",\"1\",\"Testing\",\"Stims/Figures/7-C-20-4.bmp\",\"za:saza\",\"Right\",\"39\",\"4\",\"16\",\"6A\",\"C2\",\"J\",\"88\"
\"\",\"\",\"approach-retreat\",\"237\",\"1691791\",\"0.0-237.0\",\"\",\"\",\"1-1\",\"4271\",\"40\",\"1\",\"Testing\",\"Stims/Figures/44-C-30-3.bmp\",\"za:ha:ha\",\"Down\",\"40\",\"4\",\"17\",\"6A\",\"C2\",\"J\",\"89\"
\"\",\"\",\"approach-retreat\",\"238\",\"1697840\",\"0.0-238.0\",\"\",\"\",\"1-1\",\"4541\",\"37\",\"1\",\"Testing\",\"Stims/Figures/128-C-30-3.bmp\",\"sa:sa:za\",\"Left\",\"37\",\"4\",\"18\",\"6A\",\"C2\",\"J\",\"90\"
\"\",\"\",\"approach-retreat\",\"239\",\"1704126\",\"0.0-239.0\",\"\",\"\",\"1-1\",\"4776\",\"39\",\"1\",\"Testing\",\"Stims/Figures/111-C-30-3.bmp\",\"zasa:za\",\"Right\",\"39\",\"4\",\"19\",\"6A\",\"C2\",\"J\",\"91\"
\"\",\"\",\"approach-retreat\",\"240\",\"1709870\",\"0.0-240.0\",\"\",\"\",\"1-1\",\"4235\",\"40\",\"1\",\"Testing\",\"Stims/Figures/27-C-30-1.bmp\",\"sa:ha:ha\",\"Down\",\"40\",\"4\",\"20\",\"6A\",\"C2\",\"J\",\"92\"
\"\",\"\",\"approach-retreat\",\"241\",\"1715843\",\"0.0-241.0\",\"\",\"\",\"1-1\",\"4465\",\"38\",\"1\",\"Testing\",\"Stims/Figures/102-J-10-4.bmp\",\"va:shava\",\"Down\",\"38\",\"4\",\"21\",\"6A\",\"C1\",\"J\",\"93\"
\"\",\"\",\"approach-retreat\",\"242\",\"1721583\",\"0.0-242.0\",\"\",\"\",\"1-1\",\"4229\",\"39\",\"0\",\"Testing\",\"Stims/Figures/118-C-20-2.bmp\",\"zahaza\",\"Left\",\"37\",\"4\",\"22\",\"6A\",\"C2\",\"J\",\"94\"
\"\",\"\",\"approach-retreat\",\"243\",\"1727241\",\"0.0-243.0\",\"\",\"\",\"1-1\",\"4150\",\"40\",\"1\",\"Testing\",\"Stims/Figures/139-J-0-2.bmp\",\"fafa:sha\",\"Up\",\"40\",\"4\",\"23\",\"6A\",\"C1\",\"J\",\"95\"
\"\",\"\",\"approach-retreat\",\"244\",\"1733259\",\"0.0-244.0\",\"\",\"\",\"1-1\",\"4509\",\"37\",\"1\",\"Testing\",\"Stims/Figures/111-J-10-3.bmp\",\"fafasha\",\"Right\",\"37\",\"4\",\"24\",\"6A\",\"C1\",\"J\",\"96\"
\"22532\",\"\",\"survey-text\",\"245\",\"1755799\",\"0.0-245.0\",\"\",\"{\"\"Q0\"\":\"\"PS160008\"\"}\",\"\",\"\",\"\",\"\",\"\",\"\",\"\",\"\",\"\",\"\",\"\",\"\",\"\",\"\",\"\"
