\"rt\",\"key_press\",\"trial_type\",\"trial_index\",\"time_elapsed\",\"internal_node_id\",\"view_history\",\"responses\",\"Id\",\"Rt\",\"ResKeyCode\",\"ResCorr\",\"TrialType2\",\"Image\",\"Label\",\"Location\",\"CorrectResponse\",\"Block\",\"BlockTrial\",\"Condition\",\"LabelType\",\"Subcondition\",\"trialNum\"
\"39882\",\"32\",\"text\",\"0\",\"39891\",\"0.0-0.0-0.0\",\"\",\"\",\"\",\"\",\"\",\"\",\"\",\"\",\"\",\"\",\"\",\"\",\"\",\"\",\"\",\"\",\"\"
\"82325\",\"\",\"instructions\",\"1\",\"122218\",\"0.0-1.0\",\"[{\"\"page_index\"\":0,\"\"viewing_time\"\":82324}]\",\"\",\"\",\"\",\"\",\"\",\"\",\"\",\"\",\"\",\"\",\"\",\"\",\"\",\"\",\"\",\"\"
\"22627\",\"\",\"survey-multi-choice\",\"2\",\"144883\",\"0.0-2.0\",\"\",\"{\"\"Q0\"\":\"\"Da\"\",\"\"Q1\"\":\"\"Da\"\",\"\"Q2\"\":\"\"Da\"\",\"\"Q3\"\":\"\"Da\"\",\"\"Q4\"\":\"\"Da\"\",\"\"Q5\"\":\"\"Da\"\"}\",\"\",\"\",\"\",\"\",\"\",\"\",\"\",\"\",\"\",\"\",\"\",\"\",\"\",\"\",\"\"
\"\",\"\",\"bio\",\"3\",\"152541\",\"0.0-3.0\",\"\",\"{\"\"age\"\":\"\"19\"\",\"\"gender\"\":\"\"f\"\",\"\"specify\"\":\"\"\"\"}\",\"\",\"\",\"\",\"\",\"\",\"\",\"\",\"\",\"\",\"\",\"\",\"\",\"\",\"\",\"\"
\"\",\"\",\"approach-retreat\",\"4\",\"160594\",\"0.0-4.0\",\"\",\"\",\"3-2\",\"6546\",\"37\",\"1\",\"Training\",\"Stims/Figures/84-J-0-2.bmp\",\"pa:pata\",\"Right\",\"37\",\"1\",\"1\",\"9\",\"P\",\"J\",\"1\"
\"\",\"\",\"approach-retreat\",\"5\",\"167062\",\"0.0-5.0\",\"\",\"\",\"3-2\",\"4959\",\"38\",\"1\",\"Training\",\"Stims/Figures/144-J-10-3.bmp\",\"sasaza\",\"Down\",\"38\",\"1\",\"2\",\"9\",\"C2\",\"J\",\"2\"
\"\",\"\",\"approach-retreat\",\"6\",\"173049\",\"0.0-6.0\",\"\",\"\",\"3-2\",\"4479\",\"38\",\"1\",\"Training\",\"Stims/Figures/139-J-0-2.bmp\",\"sasa:ha\",\"Down\",\"38\",\"1\",\"3\",\"9\",\"C2\",\"J\",\"3\"
\"\",\"\",\"approach-retreat\",\"7\",\"178821\",\"0.0-7.0\",\"\",\"\",\"3-2\",\"4264\",\"39\",\"1\",\"Training\",\"Stims/Figures/27-J-0-1.bmp\",\"vafa:sha\",\"Left\",\"39\",\"1\",\"4\",\"9\",\"C1\",\"J\",\"4\"
\"\",\"\",\"approach-retreat\",\"8\",\"184679\",\"0.0-8.0\",\"\",\"\",\"3-2\",\"4349\",\"39\",\"0\",\"Training\",\"Stims/Figures/7-C-20-4.bmp\",\"mamala\",\"Left\",\"37\",\"1\",\"5\",\"9\",\"S\",\"J\",\"5\"
\"\",\"\",\"approach-retreat\",\"9\",\"190734\",\"0.0-9.0\",\"\",\"\",\"3-2\",\"4546\",\"38\",\"1\",\"Training\",\"Stims/Figures/139-C-20-2.bmp\",\"ma:la:na\",\"Up\",\"38\",\"1\",\"6\",\"9\",\"S\",\"J\",\"6\"
\"\",\"\",\"approach-retreat\",\"10\",\"196683\",\"0.0-10.0\",\"\",\"\",\"3-2\",\"4439\",\"39\",\"0\",\"Training\",\"Stims/Figures/144-C-30-3.bmp\",\"fa:sha:va\",\"Left\",\"37\",\"1\",\"7\",\"9\",\"C1\",\"J\",\"7\"
\"\",\"\",\"approach-retreat\",\"11\",\"202826\",\"0.0-11.0\",\"\",\"\",\"3-2\",\"4635\",\"39\",\"0\",\"Training\",\"Stims/Figures/128-J-10-3.bmp\",\"va:sha:va\",\"Right\",\"37\",\"1\",\"8\",\"9\",\"C1\",\"J\",\"8\"
\"\",\"\",\"approach-retreat\",\"12\",\"208744\",\"0.0-12.0\",\"\",\"\",\"3-2\",\"4407\",\"39\",\"1\",\"Training\",\"Stims/Figures/86-J-0-1.bmp\",\"paka:ka\",\"Left\",\"39\",\"1\",\"9\",\"9\",\"P\",\"J\",\"9\"
\"\",\"\",\"approach-retreat\",\"13\",\"214503\",\"0.0-13.0\",\"\",\"\",\"3-2\",\"4250\",\"40\",\"0\",\"Training\",\"Stims/Figures/74-C-20-4.bmp\",\"za:haza\",\"Up\",\"38\",\"1\",\"10\",\"9\",\"C2\",\"J\",\"10\"
\"\",\"\",\"approach-retreat\",\"14\",\"220341\",\"0.0-14.0\",\"\",\"\",\"3-2\",\"4330\",\"37\",\"0\",\"Training\",\"Stims/Figures/128-C-30-3.bmp\",\"mamana\",\"Right\",\"39\",\"1\",\"11\",\"9\",\"S\",\"J\",\"11\"
\"\",\"\",\"approach-retreat\",\"15\",\"226182\",\"0.0-15.0\",\"\",\"\",\"3-2\",\"4334\",\"38\",\"1\",\"Training\",\"Stims/Figures/86-C-30-1.bmp\",\"pa:pa:ka\",\"Up\",\"38\",\"1\",\"12\",\"9\",\"P\",\"J\",\"12\"
\"\",\"\",\"approach-retreat\",\"16\",\"231855\",\"0.0-16.0\",\"\",\"\",\"3-2\",\"4164\",\"37\",\"1\",\"Training\",\"Stims/Figures/7-J-10-4.bmp\",\"na:lala\",\"Right\",\"37\",\"1\",\"13\",\"9\",\"S\",\"J\",\"13\"
\"\",\"\",\"approach-retreat\",\"17\",\"237561\",\"0.0-17.0\",\"\",\"\",\"3-2\",\"4198\",\"38\",\"0\",\"Training\",\"Stims/Figures/84-C-20-2.bmp\",\"pakata\",\"Down\",\"40\",\"1\",\"14\",\"9\",\"P\",\"J\",\"14\"
\"\",\"\",\"approach-retreat\",\"18\",\"243309\",\"0.0-18.0\",\"\",\"\",\"3-2\",\"4238\",\"40\",\"0\",\"Training\",\"Stims/Figures/27-C-30-1.bmp\",\"ma:mana\",\"Up\",\"38\",\"1\",\"15\",\"9\",\"S\",\"J\",\"15\"
\"\",\"\",\"approach-retreat\",\"19\",\"249484\",\"0.0-19.0\",\"\",\"\",\"3-2\",\"4668\",\"40\",\"0\",\"Training\",\"Stims/Figures/74-J-10-4.bmp\",\"ma:lana\",\"Down\",\"38\",\"1\",\"16\",\"9\",\"S\",\"J\",\"16\"
\"\",\"\",\"approach-retreat\",\"20\",\"255051\",\"0.0-20.0\",\"\",\"\",\"3-2\",\"4059\",\"37\",\"0\",\"Training\",\"Stims/Figures/128-C-30-3.bmp\",\"mamana\",\"Right\",\"39\",\"2\",\"1\",\"9\",\"S\",\"J\",\"17\"
\"\",\"\",\"approach-retreat\",\"21\",\"260729\",\"0.0-21.0\",\"\",\"\",\"3-2\",\"4170\",\"39\",\"0\",\"Training\",\"Stims/Figures/139-C-20-2.bmp\",\"ma:la:na\",\"Left\",\"37\",\"2\",\"2\",\"9\",\"S\",\"J\",\"18\"
\"\",\"\",\"approach-retreat\",\"22\",\"266523\",\"0.0-22.0\",\"\",\"\",\"3-2\",\"4285\",\"37\",\"0\",\"Training\",\"Stims/Figures/128-J-10-3.bmp\",\"va:sha:va\",\"Left\",\"39\",\"2\",\"3\",\"9\",\"C1\",\"J\",\"19\"
\"\",\"\",\"approach-retreat\",\"23\",\"272034\",\"0.0-23.0\",\"\",\"\",\"3-2\",\"4004\",\"38\",\"1\",\"Training\",\"Stims/Figures/84-J-0-2.bmp\",\"pa:pata\",\"Down\",\"38\",\"2\",\"4\",\"9\",\"P\",\"J\",\"20\"
\"\",\"\",\"approach-retreat\",\"24\",\"277686\",\"0.0-24.0\",\"\",\"\",\"3-2\",\"4144\",\"40\",\"0\",\"Training\",\"Stims/Figures/86-C-30-1.bmp\",\"pa:pa:ka\",\"Up\",\"38\",\"2\",\"5\",\"9\",\"P\",\"J\",\"21\"
\"\",\"\",\"approach-retreat\",\"25\",\"283322\",\"0.0-25.0\",\"\",\"\",\"3-2\",\"4128\",\"40\",\"1\",\"Training\",\"Stims/Figures/86-J-0-1.bmp\",\"paka:ka\",\"Up\",\"40\",\"2\",\"6\",\"9\",\"P\",\"J\",\"22\"
\"\",\"\",\"approach-retreat\",\"26\",\"288951\",\"0.0-26.0\",\"\",\"\",\"3-2\",\"4121\",\"39\",\"0\",\"Training\",\"Stims/Figures/74-C-20-4.bmp\",\"za:haza\",\"Left\",\"37\",\"2\",\"7\",\"9\",\"C2\",\"J\",\"23\"
\"\",\"\",\"approach-retreat\",\"27\",\"294730\",\"0.0-27.0\",\"\",\"\",\"3-2\",\"4270\",\"38\",\"1\",\"Training\",\"Stims/Figures/139-J-0-2.bmp\",\"sasa:ha\",\"Down\",\"38\",\"2\",\"8\",\"9\",\"C2\",\"J\",\"24\"
\"\",\"\",\"approach-retreat\",\"28\",\"300511\",\"0.0-28.0\",\"\",\"\",\"3-2\",\"4271\",\"37\",\"0\",\"Training\",\"Stims/Figures/27-C-30-1.bmp\",\"ma:mana\",\"Right\",\"39\",\"2\",\"9\",\"9\",\"S\",\"J\",\"25\"
\"\",\"\",\"approach-retreat\",\"29\",\"306121\",\"0.0-29.0\",\"\",\"\",\"3-2\",\"4103\",\"38\",\"1\",\"Training\",\"Stims/Figures/144-J-10-3.bmp\",\"sasaza\",\"Down\",\"38\",\"2\",\"10\",\"9\",\"C2\",\"J\",\"26\"
\"\",\"\",\"approach-retreat\",\"30\",\"311766\",\"0.0-30.0\",\"\",\"\",\"3-2\",\"4136\",\"39\",\"1\",\"Training\",\"Stims/Figures/74-J-10-4.bmp\",\"ma:lana\",\"Left\",\"39\",\"2\",\"11\",\"9\",\"S\",\"J\",\"27\"
\"\",\"\",\"approach-retreat\",\"31\",\"317427\",\"0.0-31.0\",\"\",\"\",\"3-2\",\"4154\",\"38\",\"0\",\"Training\",\"Stims/Figures/84-C-20-2.bmp\",\"pakata\",\"Down\",\"40\",\"2\",\"12\",\"9\",\"P\",\"J\",\"28\"
\"\",\"\",\"approach-retreat\",\"32\",\"323244\",\"0.0-32.0\",\"\",\"\",\"3-2\",\"4309\",\"40\",\"0\",\"Training\",\"Stims/Figures/144-C-30-3.bmp\",\"fa:sha:va\",\"Up\",\"38\",\"2\",\"13\",\"9\",\"C1\",\"J\",\"29\"
\"\",\"\",\"approach-retreat\",\"33\",\"328846\",\"0.0-33.0\",\"\",\"\",\"3-2\",\"4092\",\"37\",\"1\",\"Training\",\"Stims/Figures/7-J-10-4.bmp\",\"na:lala\",\"Right\",\"37\",\"2\",\"14\",\"9\",\"S\",\"J\",\"30\"
\"\",\"\",\"approach-retreat\",\"34\",\"334697\",\"0.0-34.0\",\"\",\"\",\"3-2\",\"4343\",\"40\",\"0\",\"Training\",\"Stims/Figures/7-C-20-4.bmp\",\"mamala\",\"Up\",\"38\",\"2\",\"15\",\"9\",\"S\",\"J\",\"31\"
\"\",\"\",\"approach-retreat\",\"35\",\"340355\",\"0.0-35.0\",\"\",\"\",\"3-2\",\"4150\",\"37\",\"1\",\"Training\",\"Stims/Figures/27-J-0-1.bmp\",\"vafa:sha\",\"Right\",\"37\",\"2\",\"16\",\"9\",\"C1\",\"J\",\"32\"
\"\",\"\",\"approach-retreat\",\"36\",\"346815\",\"0.0-36.0\",\"\",\"\",\"3-2\",\"4951\",\"38\",\"1\",\"Training\",\"Stims/Figures/74-C-20-4.bmp\",\"za:haza\",\"Up\",\"38\",\"3\",\"1\",\"9\",\"C2\",\"J\",\"33\"
\"\",\"\",\"approach-retreat\",\"37\",\"352675\",\"0.0-37.0\",\"\",\"\",\"3-2\",\"4352\",\"39\",\"0\",\"Training\",\"Stims/Figures/74-J-10-4.bmp\",\"ma:lana\",\"Right\",\"37\",\"3\",\"2\",\"9\",\"S\",\"J\",\"34\"
\"\",\"\",\"approach-retreat\",\"38\",\"358944\",\"0.0-38.0\",\"\",\"\",\"3-2\",\"4762\",\"40\",\"1\",\"Training\",\"Stims/Figures/7-C-20-4.bmp\",\"mamala\",\"Down\",\"40\",\"3\",\"3\",\"9\",\"S\",\"J\",\"35\"
\"\",\"\",\"approach-retreat\",\"39\",\"364812\",\"0.0-39.0\",\"\",\"\",\"3-2\",\"4357\",\"38\",\"1\",\"Training\",\"Stims/Figures/128-J-10-3.bmp\",\"va:sha:va\",\"Down\",\"38\",\"3\",\"4\",\"9\",\"C1\",\"J\",\"36\"
\"\",\"\",\"approach-retreat\",\"40\",\"370684\",\"0.0-40.0\",\"\",\"\",\"3-2\",\"4363\",\"37\",\"0\",\"Training\",\"Stims/Figures/128-C-30-3.bmp\",\"mamana\",\"Right\",\"39\",\"3\",\"5\",\"9\",\"S\",\"J\",\"37\"
\"\",\"\",\"approach-retreat\",\"41\",\"376422\",\"0.0-41.0\",\"\",\"\",\"3-2\",\"4229\",\"39\",\"0\",\"Training\",\"Stims/Figures/7-J-10-4.bmp\",\"na:lala\",\"Right\",\"37\",\"3\",\"6\",\"9\",\"S\",\"J\",\"38\"
\"\",\"\",\"approach-retreat\",\"42\",\"381944\",\"0.0-42.0\",\"\",\"\",\"3-2\",\"4015\",\"39\",\"1\",\"Training\",\"Stims/Figures/84-J-0-2.bmp\",\"pa:pata\",\"Left\",\"39\",\"3\",\"7\",\"9\",\"P\",\"J\",\"39\"
\"\",\"\",\"approach-retreat\",\"43\",\"387608\",\"0.0-43.0\",\"\",\"\",\"3-2\",\"4155\",\"40\",\"1\",\"Training\",\"Stims/Figures/139-J-0-2.bmp\",\"sasa:ha\",\"Up\",\"40\",\"3\",\"8\",\"9\",\"C2\",\"J\",\"40\"
\"\",\"\",\"approach-retreat\",\"44\",\"393332\",\"0.0-44.0\",\"\",\"\",\"3-2\",\"4215\",\"39\",\"0\",\"Training\",\"Stims/Figures/144-C-30-3.bmp\",\"fa:sha:va\",\"Left\",\"37\",\"3\",\"9\",\"9\",\"C1\",\"J\",\"41\"
\"\",\"\",\"approach-retreat\",\"45\",\"398968\",\"0.0-45.0\",\"\",\"\",\"3-2\",\"4130\",\"38\",\"1\",\"Training\",\"Stims/Figures/27-J-0-1.bmp\",\"vafa:sha\",\"Down\",\"38\",\"3\",\"10\",\"9\",\"C1\",\"J\",\"42\"
\"\",\"\",\"approach-retreat\",\"46\",\"404754\",\"0.0-46.0\",\"\",\"\",\"3-2\",\"4277\",\"40\",\"0\",\"Training\",\"Stims/Figures/139-C-20-2.bmp\",\"ma:la:na\",\"Up\",\"38\",\"3\",\"11\",\"9\",\"S\",\"J\",\"43\"
\"\",\"\",\"approach-retreat\",\"47\",\"410716\",\"0.0-47.0\",\"\",\"\",\"3-2\",\"4455\",\"37\",\"1\",\"Training\",\"Stims/Figures/86-J-0-1.bmp\",\"paka:ka\",\"Right\",\"37\",\"3\",\"12\",\"9\",\"P\",\"J\",\"44\"
\"\",\"\",\"approach-retreat\",\"48\",\"416363\",\"0.0-48.0\",\"\",\"\",\"3-2\",\"4140\",\"38\",\"0\",\"Training\",\"Stims/Figures/84-C-20-2.bmp\",\"pakata\",\"Down\",\"40\",\"3\",\"13\",\"9\",\"P\",\"J\",\"45\"
\"\",\"\",\"approach-retreat\",\"49\",\"422031\",\"0.0-49.0\",\"\",\"\",\"3-2\",\"4159\",\"39\",\"0\",\"Training\",\"Stims/Figures/86-C-30-1.bmp\",\"pa:pa:ka\",\"Left\",\"37\",\"3\",\"14\",\"9\",\"P\",\"J\",\"46\"
\"\",\"\",\"approach-retreat\",\"50\",\"427915\",\"0.0-50.0\",\"\",\"\",\"3-2\",\"4376\",\"40\",\"0\",\"Training\",\"Stims/Figures/27-C-30-1.bmp\",\"ma:mana\",\"Up\",\"38\",\"3\",\"15\",\"9\",\"S\",\"J\",\"47\"
\"\",\"\",\"approach-retreat\",\"51\",\"433320\",\"0.0-51.0\",\"\",\"\",\"3-2\",\"3899\",\"37\",\"0\",\"Training\",\"Stims/Figures/144-J-10-3.bmp\",\"sasaza\",\"Left\",\"39\",\"3\",\"16\",\"9\",\"C2\",\"J\",\"48\"
\"\",\"\",\"approach-retreat\",\"52\",\"438833\",\"0.0-52.0\",\"\",\"\",\"3-2\",\"4004\",\"37\",\"1\",\"Training\",\"Stims/Figures/84-J-0-2.bmp\",\"pa:pata\",\"Right\",\"37\",\"4\",\"1\",\"9\",\"P\",\"J\",\"49\"
\"\",\"\",\"approach-retreat\",\"53\",\"444458\",\"0.0-53.0\",\"\",\"\",\"3-2\",\"4117\",\"40\",\"1\",\"Training\",\"Stims/Figures/27-J-0-1.bmp\",\"vafa:sha\",\"Up\",\"40\",\"4\",\"2\",\"9\",\"C1\",\"J\",\"50\"
\"\",\"\",\"approach-retreat\",\"54\",\"450135\",\"0.0-54.0\",\"\",\"\",\"3-2\",\"4169\",\"39\",\"1\",\"Training\",\"Stims/Figures/139-C-20-2.bmp\",\"ma:la:na\",\"Right\",\"39\",\"4\",\"3\",\"9\",\"S\",\"J\",\"51\"
\"\",\"\",\"approach-retreat\",\"55\",\"456000\",\"0.0-55.0\",\"\",\"\",\"3-2\",\"4357\",\"40\",\"1\",\"Training\",\"Stims/Figures/7-C-20-4.bmp\",\"mamala\",\"Down\",\"40\",\"4\",\"4\",\"9\",\"S\",\"J\",\"52\"
\"\",\"\",\"approach-retreat\",\"56\",\"462163\",\"0.0-56.0\",\"\",\"\",\"3-2\",\"4654\",\"40\",\"0\",\"Training\",\"Stims/Figures/86-C-30-1.bmp\",\"pa:pa:ka\",\"Up\",\"38\",\"4\",\"5\",\"9\",\"P\",\"J\",\"53\"
\"\",\"\",\"approach-retreat\",\"57\",\"467933\",\"0.0-57.0\",\"\",\"\",\"3-2\",\"4263\",\"40\",\"0\",\"Training\",\"Stims/Figures/86-J-0-1.bmp\",\"paka:ka\",\"Down\",\"38\",\"4\",\"6\",\"9\",\"P\",\"J\",\"54\"
\"\",\"\",\"approach-retreat\",\"58\",\"474394\",\"0.0-58.0\",\"\",\"\",\"3-2\",\"4952\",\"37\",\"0\",\"Training\",\"Stims/Figures/128-J-10-3.bmp\",\"va:sha:va\",\"Left\",\"39\",\"4\",\"7\",\"9\",\"C1\",\"J\",\"55\"
\"\",\"\",\"approach-retreat\",\"59\",\"480356\",\"0.0-59.0\",\"\",\"\",\"3-2\",\"4456\",\"37\",\"1\",\"Training\",\"Stims/Figures/7-J-10-4.bmp\",\"na:lala\",\"Right\",\"37\",\"4\",\"8\",\"9\",\"S\",\"J\",\"56\"
\"\",\"\",\"approach-retreat\",\"60\",\"486308\",\"0.0-60.0\",\"\",\"\",\"3-2\",\"4443\",\"39\",\"0\",\"Training\",\"Stims/Figures/144-C-30-3.bmp\",\"fa:sha:va\",\"Left\",\"37\",\"4\",\"9\",\"9\",\"C1\",\"J\",\"57\"
\"\",\"\",\"approach-retreat\",\"61\",\"491950\",\"0.0-61.0\",\"\",\"\",\"3-2\",\"4134\",\"40\",\"0\",\"Training\",\"Stims/Figures/27-C-30-1.bmp\",\"ma:mana\",\"Up\",\"38\",\"4\",\"10\",\"9\",\"S\",\"J\",\"58\"
\"\",\"\",\"approach-retreat\",\"62\",\"497492\",\"0.0-62.0\",\"\",\"\",\"3-2\",\"4032\",\"40\",\"0\",\"Training\",\"Stims/Figures/84-C-20-2.bmp\",\"pakata\",\"Up\",\"38\",\"4\",\"11\",\"9\",\"P\",\"J\",\"59\"
\"\",\"\",\"approach-retreat\",\"63\",\"503170\",\"0.0-63.0\",\"\",\"\",\"3-2\",\"4169\",\"38\",\"0\",\"Training\",\"Stims/Figures/128-C-30-3.bmp\",\"mamana\",\"Down\",\"40\",\"4\",\"12\",\"9\",\"S\",\"J\",\"60\"
\"\",\"\",\"approach-retreat\",\"64\",\"508900\",\"0.0-64.0\",\"\",\"\",\"3-2\",\"4223\",\"37\",\"1\",\"Training\",\"Stims/Figures/144-J-10-3.bmp\",\"sasaza\",\"Right\",\"37\",\"4\",\"13\",\"9\",\"C2\",\"J\",\"61\"
\"\",\"\",\"approach-retreat\",\"65\",\"514593\",\"0.0-65.0\",\"\",\"\",\"3-2\",\"4183\",\"38\",\"1\",\"Training\",\"Stims/Figures/139-J-0-2.bmp\",\"sasa:ha\",\"Down\",\"38\",\"4\",\"14\",\"9\",\"C2\",\"J\",\"62\"
\"\",\"\",\"approach-retreat\",\"66\",\"520198\",\"0.0-66.0\",\"\",\"\",\"3-2\",\"4098\",\"39\",\"1\",\"Training\",\"Stims/Figures/74-J-10-4.bmp\",\"ma:lana\",\"Left\",\"39\",\"4\",\"15\",\"9\",\"S\",\"J\",\"63\"
\"\",\"\",\"approach-retreat\",\"67\",\"525727\",\"0.0-67.0\",\"\",\"\",\"3-2\",\"4019\",\"39\",\"0\",\"Training\",\"Stims/Figures/74-C-20-4.bmp\",\"za:haza\",\"Left\",\"37\",\"4\",\"16\",\"9\",\"C2\",\"J\",\"64\"
\"\",\"\",\"approach-retreat\",\"68\",\"531472\",\"0.0-68.0\",\"\",\"\",\"3-2\",\"4237\",\"38\",\"0\",\"Training\",\"Stims/Figures/144-J-10-3.bmp\",\"sasaza\",\"Up\",\"40\",\"5\",\"1\",\"9\",\"C2\",\"J\",\"65\"
\"\",\"\",\"approach-retreat\",\"69\",\"537204\",\"0.0-69.0\",\"\",\"\",\"3-2\",\"4224\",\"37\",\"0\",\"Training\",\"Stims/Figures/139-C-20-2.bmp\",\"ma:la:na\",\"Right\",\"39\",\"5\",\"2\",\"9\",\"S\",\"J\",\"66\"
\"\",\"\",\"approach-retreat\",\"70\",\"542726\",\"0.0-70.0\",\"\",\"\",\"3-2\",\"4013\",\"39\",\"0\",\"Training\",\"Stims/Figures/86-C-30-1.bmp\",\"pa:pa:ka\",\"Left\",\"37\",\"5\",\"3\",\"9\",\"P\",\"J\",\"67\"
\"\",\"\",\"approach-retreat\",\"71\",\"548270\",\"0.0-71.0\",\"\",\"\",\"3-2\",\"4036\",\"37\",\"1\",\"Training\",\"Stims/Figures/84-C-20-2.bmp\",\"pakata\",\"Left\",\"37\",\"5\",\"4\",\"9\",\"P\",\"J\",\"68\"
\"\",\"\",\"approach-retreat\",\"72\",\"553934\",\"0.0-72.0\",\"\",\"\",\"3-2\",\"4155\",\"38\",\"1\",\"Training\",\"Stims/Figures/86-J-0-1.bmp\",\"paka:ka\",\"Down\",\"38\",\"5\",\"5\",\"9\",\"P\",\"J\",\"69\"
\"\",\"\",\"approach-retreat\",\"73\",\"559609\",\"0.0-73.0\",\"\",\"\",\"3-2\",\"4167\",\"37\",\"1\",\"Training\",\"Stims/Figures/139-J-0-2.bmp\",\"sasa:ha\",\"Right\",\"37\",\"5\",\"6\",\"9\",\"C2\",\"J\",\"70\"
\"\",\"\",\"approach-retreat\",\"74\",\"565143\",\"0.0-74.0\",\"\",\"\",\"3-2\",\"4026\",\"39\",\"1\",\"Training\",\"Stims/Figures/7-J-10-4.bmp\",\"na:lala\",\"Left\",\"39\",\"5\",\"7\",\"9\",\"S\",\"J\",\"71\"
\"\",\"\",\"approach-retreat\",\"75\",\"570836\",\"0.0-75.0\",\"\",\"\",\"3-2\",\"4184\",\"40\",\"0\",\"Training\",\"Stims/Figures/144-C-30-3.bmp\",\"fa:sha:va\",\"Up\",\"38\",\"5\",\"8\",\"9\",\"C1\",\"J\",\"72\"
\"\",\"\",\"approach-retreat\",\"76\",\"576554\",\"0.0-76.0\",\"\",\"\",\"3-2\",\"4208\",\"38\",\"0\",\"Training\",\"Stims/Figures/74-C-20-4.bmp\",\"za:haza\",\"Down\",\"40\",\"5\",\"9\",\"9\",\"C2\",\"J\",\"73\"
\"\",\"\",\"approach-retreat\",\"77\",\"582328\",\"0.0-77.0\",\"\",\"\",\"3-2\",\"4265\",\"40\",\"0\",\"Training\",\"Stims/Figures/128-C-30-3.bmp\",\"mamana\",\"Up\",\"38\",\"5\",\"10\",\"9\",\"S\",\"J\",\"74\"
\"\",\"\",\"approach-retreat\",\"78\",\"587994\",\"0.0-78.0\",\"\",\"\",\"3-2\",\"4159\",\"37\",\"1\",\"Training\",\"Stims/Figures/27-J-0-1.bmp\",\"vafa:sha\",\"Right\",\"37\",\"5\",\"11\",\"9\",\"C1\",\"J\",\"75\"
\"\",\"\",\"approach-retreat\",\"79\",\"593677\",\"0.0-79.0\",\"\",\"\",\"3-2\",\"4177\",\"40\",\"1\",\"Training\",\"Stims/Figures/84-J-0-2.bmp\",\"pa:pata\",\"Up\",\"40\",\"5\",\"12\",\"9\",\"P\",\"J\",\"76\"
\"\",\"\",\"approach-retreat\",\"80\",\"599419\",\"0.0-80.0\",\"\",\"\",\"3-2\",\"4232\",\"37\",\"1\",\"Training\",\"Stims/Figures/74-J-10-4.bmp\",\"ma:lana\",\"Right\",\"37\",\"5\",\"13\",\"9\",\"S\",\"J\",\"77\"
\"\",\"\",\"approach-retreat\",\"81\",\"605046\",\"0.0-81.0\",\"\",\"\",\"3-2\",\"4120\",\"38\",\"1\",\"Training\",\"Stims/Figures/128-J-10-3.bmp\",\"va:sha:va\",\"Down\",\"38\",\"5\",\"14\",\"9\",\"C1\",\"J\",\"78\"
\"\",\"\",\"approach-retreat\",\"82\",\"610658\",\"0.0-82.0\",\"\",\"\",\"3-2\",\"4104\",\"39\",\"0\",\"Training\",\"Stims/Figures/27-C-30-1.bmp\",\"ma:mana\",\"Left\",\"37\",\"5\",\"15\",\"9\",\"S\",\"J\",\"79\"
\"\",\"\",\"approach-retreat\",\"83\",\"616134\",\"0.0-83.0\",\"\",\"\",\"3-2\",\"3967\",\"38\",\"0\",\"Training\",\"Stims/Figures/7-C-20-4.bmp\",\"mamala\",\"Down\",\"40\",\"5\",\"16\",\"9\",\"S\",\"J\",\"80\"
\"\",\"\",\"approach-retreat\",\"84\",\"621628\",\"0.0-84.0\",\"\",\"\",\"3-2\",\"3987\",\"37\",\"1\",\"Training\",\"Stims/Figures/144-J-10-3.bmp\",\"sasaza\",\"Right\",\"37\",\"6\",\"1\",\"9\",\"C2\",\"J\",\"81\"
\"\",\"\",\"approach-retreat\",\"85\",\"627091\",\"0.0-85.0\",\"\",\"\",\"3-2\",\"3954\",\"37\",\"0\",\"Training\",\"Stims/Figures/128-C-30-3.bmp\",\"mamana\",\"Right\",\"39\",\"6\",\"2\",\"9\",\"S\",\"J\",\"82\"
\"\",\"\",\"approach-retreat\",\"86\",\"632621\",\"0.0-86.0\",\"\",\"\",\"3-2\",\"4023\",\"39\",\"0\",\"Training\",\"Stims/Figures/7-C-20-4.bmp\",\"mamala\",\"Left\",\"37\",\"6\",\"3\",\"9\",\"S\",\"J\",\"83\"
\"\",\"\",\"approach-retreat\",\"87\",\"637984\",\"0.0-87.0\",\"\",\"\",\"3-2\",\"3855\",\"37\",\"0\",\"Training\",\"Stims/Figures/7-J-10-4.bmp\",\"na:lala\",\"Left\",\"39\",\"6\",\"4\",\"9\",\"S\",\"J\",\"84\"
\"\",\"\",\"approach-retreat\",\"88\",\"643507\",\"0.0-88.0\",\"\",\"\",\"3-2\",\"4015\",\"37\",\"0\",\"Training\",\"Stims/Figures/27-C-30-1.bmp\",\"ma:mana\",\"Right\",\"39\",\"6\",\"5\",\"9\",\"S\",\"J\",\"85\"
\"\",\"\",\"approach-retreat\",\"89\",\"649091\",\"0.0-89.0\",\"\",\"\",\"3-2\",\"4077\",\"39\",\"0\",\"Training\",\"Stims/Figures/86-C-30-1.bmp\",\"pa:pa:ka\",\"Left\",\"37\",\"6\",\"6\",\"9\",\"P\",\"J\",\"86\"
\"\",\"\",\"approach-retreat\",\"90\",\"654806\",\"0.0-90.0\",\"\",\"\",\"3-2\",\"4208\",\"38\",\"1\",\"Training\",\"Stims/Figures/139-J-0-2.bmp\",\"sasa:ha\",\"Down\",\"38\",\"6\",\"7\",\"9\",\"C2\",\"J\",\"87\"
\"\",\"\",\"approach-retreat\",\"91\",\"660505\",\"0.0-91.0\",\"\",\"\",\"3-2\",\"4191\",\"38\",\"0\",\"Training\",\"Stims/Figures/74-C-20-4.bmp\",\"za:haza\",\"Down\",\"40\",\"6\",\"8\",\"9\",\"C2\",\"J\",\"88\"
\"\",\"\",\"approach-retreat\",\"92\",\"666104\",\"0.0-92.0\",\"\",\"\",\"3-2\",\"4091\",\"38\",\"0\",\"Training\",\"Stims/Figures/144-C-30-3.bmp\",\"fa:sha:va\",\"Down\",\"40\",\"6\",\"9\",\"9\",\"C1\",\"J\",\"89\"
\"\",\"\",\"approach-retreat\",\"93\",\"672063\",\"0.0-93.0\",\"\",\"\",\"3-2\",\"4451\",\"40\",\"0\",\"Training\",\"Stims/Figures/84-J-0-2.bmp\",\"pa:pata\",\"Down\",\"38\",\"6\",\"10\",\"9\",\"P\",\"J\",\"90\"
\"\",\"\",\"approach-retreat\",\"94\",\"677707\",\"0.0-94.0\",\"\",\"\",\"3-2\",\"4134\",\"37\",\"1\",\"Training\",\"Stims/Figures/27-J-0-1.bmp\",\"vafa:sha\",\"Right\",\"37\",\"6\",\"11\",\"9\",\"C1\",\"J\",\"91\"
\"\",\"\",\"approach-retreat\",\"95\",\"683301\",\"0.0-95.0\",\"\",\"\",\"3-2\",\"4087\",\"40\",\"1\",\"Training\",\"Stims/Figures/74-J-10-4.bmp\",\"ma:lana\",\"Up\",\"40\",\"6\",\"12\",\"9\",\"S\",\"J\",\"92\"
\"\",\"\",\"approach-retreat\",\"96\",\"688944\",\"0.0-96.0\",\"\",\"\",\"3-2\",\"4135\",\"39\",\"1\",\"Training\",\"Stims/Figures/86-J-0-1.bmp\",\"paka:ka\",\"Left\",\"39\",\"6\",\"13\",\"9\",\"P\",\"J\",\"93\"
\"\",\"\",\"approach-retreat\",\"97\",\"694830\",\"0.0-97.0\",\"\",\"\",\"3-2\",\"4379\",\"40\",\"0\",\"Training\",\"Stims/Figures/139-C-20-2.bmp\",\"ma:la:na\",\"Up\",\"38\",\"6\",\"14\",\"9\",\"S\",\"J\",\"94\"
\"\",\"\",\"approach-retreat\",\"98\",\"700422\",\"0.0-98.0\",\"\",\"\",\"3-2\",\"4084\",\"40\",\"1\",\"Training\",\"Stims/Figures/128-J-10-3.bmp\",\"va:sha:va\",\"Up\",\"40\",\"6\",\"15\",\"9\",\"C1\",\"J\",\"95\"
\"\",\"\",\"approach-retreat\",\"99\",\"706235\",\"0.0-99.0\",\"\",\"\",\"3-2\",\"4306\",\"38\",\"1\",\"Training\",\"Stims/Figures/84-C-20-2.bmp\",\"pakata\",\"Up\",\"38\",\"6\",\"16\",\"9\",\"P\",\"J\",\"96\"
\"\",\"\",\"approach-retreat\",\"100\",\"711896\",\"0.0-100.0\",\"\",\"\",\"3-2\",\"4154\",\"40\",\"1\",\"Training\",\"Stims/Figures/139-J-0-2.bmp\",\"sasa:ha\",\"Up\",\"40\",\"7\",\"1\",\"9\",\"C2\",\"J\",\"97\"
\"\",\"\",\"approach-retreat\",\"101\",\"717600\",\"0.0-101.0\",\"\",\"\",\"3-2\",\"4193\",\"37\",\"0\",\"Training\",\"Stims/Figures/27-C-30-1.bmp\",\"ma:mana\",\"Right\",\"39\",\"7\",\"2\",\"9\",\"S\",\"J\",\"98\"
\"\",\"\",\"approach-retreat\",\"102\",\"723161\",\"0.0-102.0\",\"\",\"\",\"3-2\",\"4052\",\"39\",\"1\",\"Training\",\"Stims/Figures/74-J-10-4.bmp\",\"ma:lana\",\"Left\",\"39\",\"7\",\"3\",\"9\",\"S\",\"J\",\"99\"
\"\",\"\",\"approach-retreat\",\"103\",\"729629\",\"0.0-103.0\",\"\",\"\",\"3-2\",\"4961\",\"37\",\"1\",\"Training\",\"Stims/Figures/7-C-20-4.bmp\",\"mamala\",\"Left\",\"37\",\"7\",\"4\",\"9\",\"S\",\"J\",\"100\"
\"\",\"\",\"approach-retreat\",\"104\",\"735379\",\"0.0-104.0\",\"\",\"\",\"3-2\",\"4243\",\"39\",\"0\",\"Training\",\"Stims/Figures/27-J-0-1.bmp\",\"vafa:sha\",\"Right\",\"37\",\"7\",\"5\",\"9\",\"C1\",\"J\",\"101\"
\"\",\"\",\"approach-retreat\",\"105\",\"741111\",\"0.0-105.0\",\"\",\"\",\"3-2\",\"4225\",\"40\",\"0\",\"Training\",\"Stims/Figures/86-C-30-1.bmp\",\"pa:pa:ka\",\"Up\",\"38\",\"7\",\"6\",\"9\",\"P\",\"J\",\"102\"
\"\",\"\",\"approach-retreat\",\"106\",\"747048\",\"0.0-106.0\",\"\",\"\",\"3-2\",\"4429\",\"39\",\"1\",\"Training\",\"Stims/Figures/128-J-10-3.bmp\",\"va:sha:va\",\"Left\",\"39\",\"7\",\"7\",\"9\",\"C1\",\"J\",\"103\"
\"\",\"\",\"approach-retreat\",\"107\",\"752794\",\"0.0-107.0\",\"\",\"\",\"3-2\",\"4239\",\"40\",\"0\",\"Training\",\"Stims/Figures/128-C-30-3.bmp\",\"mamana\",\"Up\",\"38\",\"7\",\"8\",\"9\",\"S\",\"J\",\"104\"
\"\",\"\",\"approach-retreat\",\"108\",\"758802\",\"0.0-108.0\",\"\",\"\",\"3-2\",\"4500\",\"39\",\"0\",\"Training\",\"Stims/Figures/144-J-10-3.bmp\",\"sasaza\",\"Right\",\"37\",\"7\",\"9\",\"9\",\"C2\",\"J\",\"105\"
\"\",\"\",\"approach-retreat\",\"109\",\"764697\",\"0.0-109.0\",\"\",\"\",\"3-2\",\"4387\",\"38\",\"0\",\"Training\",\"Stims/Figures/74-C-20-4.bmp\",\"za:haza\",\"Down\",\"40\",\"7\",\"10\",\"9\",\"C2\",\"J\",\"106\"
\"\",\"\",\"approach-retreat\",\"110\",\"770457\",\"0.0-110.0\",\"\",\"\",\"3-2\",\"4252\",\"40\",\"0\",\"Training\",\"Stims/Figures/86-J-0-1.bmp\",\"paka:ka\",\"Down\",\"38\",\"7\",\"11\",\"9\",\"P\",\"J\",\"107\"
\"\",\"\",\"approach-retreat\",\"111\",\"776155\",\"0.0-111.0\",\"\",\"\",\"3-2\",\"4190\",\"40\",\"0\",\"Training\",\"Stims/Figures/84-C-20-2.bmp\",\"pakata\",\"Up\",\"38\",\"7\",\"12\",\"9\",\"P\",\"J\",\"108\"
\"\",\"\",\"approach-retreat\",\"112\",\"781449\",\"0.0-112.0\",\"\",\"\",\"3-2\",\"3786\",\"37\",\"0\",\"Training\",\"Stims/Figures/84-J-0-2.bmp\",\"pa:pata\",\"Left\",\"39\",\"7\",\"13\",\"9\",\"P\",\"J\",\"109\"
\"\",\"\",\"approach-retreat\",\"113\",\"787124\",\"0.0-113.0\",\"\",\"\",\"3-2\",\"4168\",\"40\",\"0\",\"Training\",\"Stims/Figures/7-J-10-4.bmp\",\"na:lala\",\"Down\",\"38\",\"7\",\"14\",\"9\",\"S\",\"J\",\"110\"
\"\",\"\",\"approach-retreat\",\"114\",\"792713\",\"0.0-114.0\",\"\",\"\",\"3-2\",\"4081\",\"37\",\"0\",\"Training\",\"Stims/Figures/144-C-30-3.bmp\",\"fa:sha:va\",\"Right\",\"39\",\"7\",\"15\",\"9\",\"C1\",\"J\",\"111\"
\"\",\"\",\"approach-retreat\",\"115\",\"798294\",\"0.0-115.0\",\"\",\"\",\"3-2\",\"4074\",\"38\",\"0\",\"Training\",\"Stims/Figures/139-C-20-2.bmp\",\"ma:la:na\",\"Down\",\"40\",\"7\",\"16\",\"9\",\"S\",\"J\",\"112\"
\"\",\"\",\"approach-retreat\",\"116\",\"803836\",\"0.0-116.0\",\"\",\"\",\"3-2\",\"4034\",\"38\",\"1\",\"Training\",\"Stims/Figures/128-J-10-3.bmp\",\"va:sha:va\",\"Down\",\"38\",\"8\",\"1\",\"9\",\"C1\",\"J\",\"113\"
\"\",\"\",\"approach-retreat\",\"117\",\"809473\",\"0.0-117.0\",\"\",\"\",\"3-2\",\"4130\",\"37\",\"1\",\"Training\",\"Stims/Figures/27-J-0-1.bmp\",\"vafa:sha\",\"Right\",\"37\",\"8\",\"2\",\"9\",\"C1\",\"J\",\"114\"
\"\",\"\",\"approach-retreat\",\"118\",\"814996\",\"0.0-118.0\",\"\",\"\",\"3-2\",\"4015\",\"37\",\"1\",\"Training\",\"Stims/Figures/144-J-10-3.bmp\",\"sasaza\",\"Right\",\"37\",\"8\",\"3\",\"9\",\"C2\",\"J\",\"115\"
\"\",\"\",\"approach-retreat\",\"119\",\"820665\",\"0.0-119.0\",\"\",\"\",\"3-2\",\"4160\",\"39\",\"0\",\"Training\",\"Stims/Figures/7-C-20-4.bmp\",\"mamala\",\"Left\",\"37\",\"8\",\"4\",\"9\",\"S\",\"J\",\"116\"
\"\",\"\",\"approach-retreat\",\"120\",\"826199\",\"0.0-120.0\",\"\",\"\",\"3-2\",\"4026\",\"40\",\"0\",\"Training\",\"Stims/Figures/27-C-30-1.bmp\",\"ma:mana\",\"Up\",\"38\",\"8\",\"5\",\"9\",\"S\",\"J\",\"117\"
\"\",\"\",\"approach-retreat\",\"121\",\"831683\",\"0.0-121.0\",\"\",\"\",\"3-2\",\"3976\",\"37\",\"1\",\"Training\",\"Stims/Figures/84-J-0-2.bmp\",\"pa:pata\",\"Right\",\"37\",\"8\",\"6\",\"9\",\"P\",\"J\",\"118\"
\"\",\"\",\"approach-retreat\",\"122\",\"837319\",\"0.0-122.0\",\"\",\"\",\"3-2\",\"4127\",\"40\",\"0\",\"Training\",\"Stims/Figures/84-C-20-2.bmp\",\"pakata\",\"Up\",\"38\",\"8\",\"7\",\"9\",\"P\",\"J\",\"119\"
\"\",\"\",\"approach-retreat\",\"123\",\"842911\",\"0.0-123.0\",\"\",\"\",\"3-2\",\"4083\",\"38\",\"1\",\"Training\",\"Stims/Figures/139-J-0-2.bmp\",\"sasa:ha\",\"Down\",\"38\",\"8\",\"8\",\"9\",\"C2\",\"J\",\"120\"
\"\",\"\",\"approach-retreat\",\"124\",\"848427\",\"0.0-124.0\",\"\",\"\",\"3-2\",\"4008\",\"38\",\"0\",\"Training\",\"Stims/Figures/144-C-30-3.bmp\",\"fa:sha:va\",\"Down\",\"40\",\"8\",\"9\",\"9\",\"C1\",\"J\",\"121\"
\"\",\"\",\"approach-retreat\",\"125\",\"854120\",\"0.0-125.0\",\"\",\"\",\"3-2\",\"4186\",\"39\",\"0\",\"Training\",\"Stims/Figures/128-C-30-3.bmp\",\"mamana\",\"Left\",\"37\",\"8\",\"10\",\"9\",\"S\",\"J\",\"122\"
\"\",\"\",\"approach-retreat\",\"126\",\"859766\",\"0.0-126.0\",\"\",\"\",\"3-2\",\"4137\",\"40\",\"1\",\"Training\",\"Stims/Figures/7-J-10-4.bmp\",\"na:lala\",\"Up\",\"40\",\"8\",\"11\",\"9\",\"S\",\"J\",\"123\"
\"\",\"\",\"approach-retreat\",\"127\",\"865280\",\"0.0-127.0\",\"\",\"\",\"3-2\",\"4007\",\"38\",\"1\",\"Training\",\"Stims/Figures/86-J-0-1.bmp\",\"paka:ka\",\"Down\",\"38\",\"8\",\"12\",\"9\",\"P\",\"J\",\"124\"
\"\",\"\",\"approach-retreat\",\"128\",\"870880\",\"0.0-128.0\",\"\",\"\",\"3-2\",\"4091\",\"40\",\"0\",\"Training\",\"Stims/Figures/74-C-20-4.bmp\",\"za:haza\",\"Up\",\"38\",\"8\",\"13\",\"9\",\"C2\",\"J\",\"125\"
\"\",\"\",\"approach-retreat\",\"129\",\"876578\",\"0.0-129.0\",\"\",\"\",\"3-2\",\"4190\",\"37\",\"1\",\"Training\",\"Stims/Figures/74-J-10-4.bmp\",\"ma:lana\",\"Right\",\"37\",\"8\",\"14\",\"9\",\"S\",\"J\",\"126\"
\"\",\"\",\"approach-retreat\",\"130\",\"882320\",\"0.0-130.0\",\"\",\"\",\"3-2\",\"4234\",\"39\",\"0\",\"Training\",\"Stims/Figures/86-C-30-1.bmp\",\"pa:pa:ka\",\"Left\",\"37\",\"8\",\"15\",\"9\",\"P\",\"J\",\"127\"
\"\",\"\",\"approach-retreat\",\"131\",\"887908\",\"0.0-131.0\",\"\",\"\",\"3-2\",\"4080\",\"39\",\"0\",\"Training\",\"Stims/Figures/139-C-20-2.bmp\",\"ma:la:na\",\"Left\",\"37\",\"8\",\"16\",\"9\",\"S\",\"J\",\"128\"
\"\",\"\",\"approach-retreat\",\"132\",\"893469\",\"0.0-132.0\",\"\",\"\",\"3-2\",\"4055\",\"38\",\"0\",\"Training\",\"Stims/Figures/86-C-30-1.bmp\",\"pa:pa:ka\",\"Down\",\"40\",\"9\",\"1\",\"9\",\"P\",\"J\",\"129\"
\"\",\"\",\"approach-retreat\",\"133\",\"899074\",\"0.0-133.0\",\"\",\"\",\"3-2\",\"4096\",\"38\",\"1\",\"Training\",\"Stims/Figures/7-J-10-4.bmp\",\"na:lala\",\"Down\",\"38\",\"9\",\"2\",\"9\",\"S\",\"J\",\"130\"
\"\",\"\",\"approach-retreat\",\"134\",\"904809\",\"0.0-134.0\",\"\",\"\",\"3-2\",\"4225\",\"40\",\"0\",\"Training\",\"Stims/Figures/74-C-20-4.bmp\",\"za:haza\",\"Up\",\"38\",\"9\",\"3\",\"9\",\"C2\",\"J\",\"131\"
\"\",\"\",\"approach-retreat\",\"135\",\"910369\",\"0.0-135.0\",\"\",\"\",\"3-2\",\"4052\",\"38\",\"1\",\"Training\",\"Stims/Figures/144-J-10-3.bmp\",\"sasaza\",\"Down\",\"38\",\"9\",\"4\",\"9\",\"C2\",\"J\",\"132\"
\"\",\"\",\"approach-retreat\",\"136\",\"916096\",\"0.0-136.0\",\"\",\"\",\"3-2\",\"4216\",\"40\",\"0\",\"Training\",\"Stims/Figures/139-C-20-2.bmp\",\"ma:la:na\",\"Up\",\"38\",\"9\",\"5\",\"9\",\"S\",\"J\",\"133\"
\"\",\"\",\"approach-retreat\",\"137\",\"921847\",\"0.0-137.0\",\"\",\"\",\"3-2\",\"4243\",\"37\",\"0\",\"Training\",\"Stims/Figures/128-C-30-3.bmp\",\"mamana\",\"Right\",\"39\",\"9\",\"6\",\"9\",\"S\",\"J\",\"134\"
\"\",\"\",\"approach-retreat\",\"138\",\"927604\",\"0.0-138.0\",\"\",\"\",\"3-2\",\"4249\",\"40\",\"1\",\"Training\",\"Stims/Figures/128-J-10-3.bmp\",\"va:sha:va\",\"Up\",\"40\",\"9\",\"7\",\"9\",\"C1\",\"J\",\"135\"
\"\",\"\",\"approach-retreat\",\"139\",\"933345\",\"0.0-139.0\",\"\",\"\",\"3-2\",\"4234\",\"37\",\"0\",\"Training\",\"Stims/Figures/7-C-20-4.bmp\",\"mamala\",\"Right\",\"39\",\"9\",\"8\",\"9\",\"S\",\"J\",\"136\"
\"\",\"\",\"approach-retreat\",\"140\",\"938934\",\"0.0-140.0\",\"\",\"\",\"3-2\",\"4081\",\"39\",\"0\",\"Training\",\"Stims/Figures/144-C-30-3.bmp\",\"fa:sha:va\",\"Left\",\"37\",\"9\",\"9\",\"9\",\"C1\",\"J\",\"137\"
\"\",\"\",\"approach-retreat\",\"141\",\"944551\",\"0.0-141.0\",\"\",\"\",\"3-2\",\"4107\",\"39\",\"1\",\"Training\",\"Stims/Figures/86-J-0-1.bmp\",\"paka:ka\",\"Left\",\"39\",\"9\",\"10\",\"9\",\"P\",\"J\",\"138\"
\"\",\"\",\"approach-retreat\",\"142\",\"950222\",\"0.0-142.0\",\"\",\"\",\"3-2\",\"4165\",\"37\",\"1\",\"Training\",\"Stims/Figures/27-J-0-1.bmp\",\"vafa:sha\",\"Right\",\"37\",\"9\",\"11\",\"9\",\"C1\",\"J\",\"139\"
\"\",\"\",\"approach-retreat\",\"143\",\"955768\",\"0.0-143.0\",\"\",\"\",\"3-2\",\"4038\",\"39\",\"1\",\"Training\",\"Stims/Figures/84-J-0-2.bmp\",\"pa:pata\",\"Left\",\"39\",\"9\",\"12\",\"9\",\"P\",\"J\",\"140\"
\"\",\"\",\"approach-retreat\",\"144\",\"961355\",\"0.0-144.0\",\"\",\"\",\"3-2\",\"4078\",\"40\",\"1\",\"Training\",\"Stims/Figures/74-J-10-4.bmp\",\"ma:lana\",\"Up\",\"40\",\"9\",\"13\",\"9\",\"S\",\"J\",\"141\"
\"\",\"\",\"approach-retreat\",\"145\",\"966900\",\"0.0-145.0\",\"\",\"\",\"3-2\",\"4036\",\"39\",\"0\",\"Training\",\"Stims/Figures/84-C-20-2.bmp\",\"pakata\",\"Left\",\"37\",\"9\",\"14\",\"9\",\"P\",\"J\",\"142\"
\"\",\"\",\"approach-retreat\",\"146\",\"972502\",\"0.0-146.0\",\"\",\"\",\"3-2\",\"4094\",\"38\",\"0\",\"Training\",\"Stims/Figures/27-C-30-1.bmp\",\"ma:mana\",\"Down\",\"40\",\"9\",\"15\",\"9\",\"S\",\"J\",\"143\"
\"\",\"\",\"approach-retreat\",\"147\",\"978051\",\"0.0-147.0\",\"\",\"\",\"3-2\",\"4040\",\"37\",\"1\",\"Training\",\"Stims/Figures/139-J-0-2.bmp\",\"sasa:ha\",\"Right\",\"37\",\"9\",\"16\",\"9\",\"C2\",\"J\",\"144\"
\"18376\",\"\",\"instructions\",\"148\",\"996427\",\"0.0-148.0\",\"[{\"\"page_index\"\":0,\"\"viewing_time\"\":18376}]\",\"\",\"\",\"\",\"\",\"\",\"\",\"\",\"\",\"\",\"\",\"\",\"\",\"\",\"\",\"\",\"\"
\"\",\"\",\"approach-retreat\",\"149\",\"1003174\",\"0.0-149.0\",\"\",\"\",\"3-2\",\"5243\",\"39\",\"0\",\"Testing\",\"Stims/Figures/128-J-10-3.bmp\",\"va:sha:va\",\"Right\",\"37\",\"1\",\"1\",\"9\",\"C1\",\"J\",\"1\"
\"\",\"\",\"approach-retreat\",\"150\",\"1009215\",\"0.0-150.0\",\"\",\"\",\"3-2\",\"4534\",\"39\",\"1\",\"Testing\",\"Stims/Figures/27-J-0-1.bmp\",\"vafa:sha\",\"Left\",\"39\",\"1\",\"2\",\"9\",\"C1\",\"J\",\"2\"
\"\",\"\",\"approach-retreat\",\"151\",\"1015231\",\"0.0-151.0\",\"\",\"\",\"3-2\",\"4509\",\"40\",\"0\",\"Testing\",\"Stims/Figures/74-C-20-4.bmp\",\"za:haza\",\"Up\",\"38\",\"1\",\"3\",\"9\",\"C2\",\"J\",\"3\"
\"\",\"\",\"approach-retreat\",\"152\",\"1021010\",\"0.0-152.0\",\"\",\"\",\"3-2\",\"4273\",\"38\",\"1\",\"Testing\",\"Stims/Figures/139-C-20-2.bmp\",\"ma:la:na\",\"Up\",\"38\",\"1\",\"4\",\"9\",\"S\",\"J\",\"4\"
\"\",\"\",\"approach-retreat\",\"153\",\"1026718\",\"0.0-153.0\",\"\",\"\",\"3-2\",\"4198\",\"39\",\"0\",\"Testing\",\"Stims/Figures/128-C-30-3.bmp\",\"mamana\",\"Left\",\"37\",\"1\",\"5\",\"9\",\"S\",\"J\",\"5\"
\"\",\"\",\"approach-retreat\",\"154\",\"1032788\",\"0.0-154.0\",\"\",\"\",\"3-2\",\"4564\",\"40\",\"0\",\"Testing\",\"Stims/Figures/84-C-20-2.bmp\",\"pakata\",\"Up\",\"38\",\"1\",\"6\",\"9\",\"P\",\"J\",\"6\"
\"\",\"\",\"approach-retreat\",\"155\",\"1038496\",\"0.0-155.0\",\"\",\"\",\"3-2\",\"4202\",\"38\",\"1\",\"Testing\",\"Stims/Figures/57-C-30-1.bmp\",\"ta:ka:ka\",\"Up\",\"38\",\"1\",\"7\",\"9\",\"P\",\"J\",\"7\"
\"\",\"\",\"approach-retreat\",\"156\",\"1044130\",\"0.0-156.0\",\"\",\"\",\"3-2\",\"4127\",\"37\",\"1\",\"Testing\",\"Stims/Figures/100-J-10-3.bmp\",\"taka:ka\",\"Right\",\"37\",\"1\",\"8\",\"9\",\"P\",\"J\",\"8\"
\"\",\"\",\"approach-retreat\",\"157\",\"1050894\",\"0.0-157.0\",\"\",\"\",\"3-2\",\"5259\",\"37\",\"1\",\"Testing\",\"Stims/Figures/85-J-0-2.bmp\",\"mama:na\",\"Right\",\"37\",\"1\",\"9\",\"9\",\"S\",\"J\",\"9\"
\"\",\"\",\"approach-retreat\",\"158\",\"1057372\",\"0.0-158.0\",\"\",\"\",\"3-2\",\"4972\",\"40\",\"0\",\"Testing\",\"Stims/Figures/7-J-10-4.bmp\",\"na:lala\",\"Down\",\"38\",\"1\",\"10\",\"9\",\"S\",\"J\",\"10\"
\"\",\"\",\"approach-retreat\",\"159\",\"1063252\",\"0.0-159.0\",\"\",\"\",\"3-2\",\"4371\",\"40\",\"1\",\"Testing\",\"Stims/Figures/144-J-10-3.bmp\",\"sasaza\",\"Up\",\"40\",\"1\",\"11\",\"9\",\"C2\",\"J\",\"11\"
\"\",\"\",\"approach-retreat\",\"160\",\"1069570\",\"0.0-160.0\",\"\",\"\",\"3-2\",\"4813\",\"40\",\"0\",\"Testing\",\"Stims/Figures/19-J-10-4.bmp\",\"zasaha\",\"Down\",\"38\",\"1\",\"12\",\"9\",\"C2\",\"J\",\"12\"
\"\",\"\",\"approach-retreat\",\"161\",\"1075435\",\"0.0-161.0\",\"\",\"\",\"3-2\",\"4358\",\"37\",\"0\",\"Testing\",\"Stims/Figures/86-C-30-1.bmp\",\"pa:pa:ka\",\"Right\",\"39\",\"1\",\"13\",\"9\",\"P\",\"J\",\"13\"
\"\",\"\",\"approach-retreat\",\"162\",\"1081233\",\"0.0-162.0\",\"\",\"\",\"3-2\",\"4290\",\"37\",\"1\",\"Testing\",\"Stims/Figures/19-C-20-4.bmp\",\"fafasha\",\"Left\",\"37\",\"1\",\"14\",\"9\",\"C1\",\"J\",\"14\"
\"\",\"\",\"approach-retreat\",\"163\",\"1086934\",\"0.0-163.0\",\"\",\"\",\"3-2\",\"4194\",\"38\",\"0\",\"Testing\",\"Stims/Figures/100-C-30-3.bmp\",\"takata\",\"Down\",\"40\",\"1\",\"15\",\"9\",\"P\",\"J\",\"15\"
\"\",\"\",\"approach-retreat\",\"164\",\"1092596\",\"0.0-164.0\",\"\",\"\",\"3-2\",\"4156\",\"38\",\"0\",\"Testing\",\"Stims/Figures/144-C-30-3.bmp\",\"fa:sha:va\",\"Down\",\"40\",\"1\",\"16\",\"9\",\"C1\",\"J\",\"16\"
\"\",\"\",\"approach-retreat\",\"165\",\"1098385\",\"0.0-165.0\",\"\",\"\",\"3-2\",\"4281\",\"37\",\"0\",\"Testing\",\"Stims/Figures/139-J-0-2.bmp\",\"sasa:ha\",\"Left\",\"39\",\"1\",\"17\",\"9\",\"C2\",\"J\",\"17\"
\"\",\"\",\"approach-retreat\",\"166\",\"1104157\",\"0.0-166.0\",\"\",\"\",\"3-2\",\"4267\",\"38\",\"0\",\"Testing\",\"Stims/Figures/85-C-20-2.bmp\",\"fa:fava\",\"Down\",\"40\",\"1\",\"18\",\"9\",\"C1\",\"J\",\"18\"
\"\",\"\",\"approach-retreat\",\"167\",\"1110214\",\"0.0-167.0\",\"\",\"\",\"3-2\",\"4544\",\"39\",\"0\",\"Testing\",\"Stims/Figures/74-J-10-4.bmp\",\"ma:lana\",\"Right\",\"37\",\"1\",\"19\",\"9\",\"S\",\"J\",\"19\"
\"\",\"\",\"approach-retreat\",\"168\",\"1116398\",\"0.0-168.0\",\"\",\"\",\"3-2\",\"4680\",\"37\",\"1\",\"Testing\",\"Stims/Figures/86-J-0-1.bmp\",\"paka:ka\",\"Right\",\"37\",\"1\",\"20\",\"9\",\"P\",\"J\",\"20\"
\"\",\"\",\"approach-retreat\",\"169\",\"1122169\",\"0.0-169.0\",\"\",\"\",\"3-2\",\"4262\",\"38\",\"1\",\"Testing\",\"Stims/Figures/57-J-0-1.bmp\",\"tapa:ta\",\"Down\",\"38\",\"1\",\"21\",\"9\",\"P\",\"J\",\"21\"
\"\",\"\",\"approach-retreat\",\"170\",\"1127870\",\"0.0-170.0\",\"\",\"\",\"3-2\",\"4195\",\"37\",\"1\",\"Testing\",\"Stims/Figures/7-C-20-4.bmp\",\"mamala\",\"Left\",\"37\",\"1\",\"22\",\"9\",\"S\",\"J\",\"22\"
\"\",\"\",\"approach-retreat\",\"171\",\"1133545\",\"0.0-171.0\",\"\",\"\",\"3-2\",\"4170\",\"40\",\"0\",\"Testing\",\"Stims/Figures/27-C-30-1.bmp\",\"ma:mana\",\"Up\",\"38\",\"1\",\"23\",\"9\",\"S\",\"J\",\"23\"
\"\",\"\",\"approach-retreat\",\"172\",\"1139150\",\"0.0-172.0\",\"\",\"\",\"3-2\",\"4098\",\"39\",\"1\",\"Testing\",\"Stims/Figures/84-J-0-2.bmp\",\"pa:pata\",\"Left\",\"39\",\"1\",\"24\",\"9\",\"P\",\"J\",\"24\"
\"\",\"\",\"approach-retreat\",\"173\",\"1144887\",\"0.0-173.0\",\"\",\"\",\"3-2\",\"4233\",\"40\",\"1\",\"Testing\",\"Stims/Figures/74-C-20-4.bmp\",\"za:haza\",\"Down\",\"40\",\"2\",\"1\",\"9\",\"C2\",\"J\",\"25\"
\"\",\"\",\"approach-retreat\",\"174\",\"1150701\",\"0.0-174.0\",\"\",\"\",\"3-2\",\"4306\",\"38\",\"0\",\"Testing\",\"Stims/Figures/57-J-0-1.bmp\",\"tapa:ta\",\"Up\",\"40\",\"2\",\"2\",\"9\",\"P\",\"J\",\"26\"
\"\",\"\",\"approach-retreat\",\"175\",\"1156491\",\"0.0-175.0\",\"\",\"\",\"3-2\",\"4283\",\"37\",\"0\",\"Testing\",\"Stims/Figures/128-J-10-3.bmp\",\"va:sha:va\",\"Left\",\"39\",\"2\",\"3\",\"9\",\"C1\",\"J\",\"27\"
\"\",\"\",\"approach-retreat\",\"176\",\"1162206\",\"0.0-176.0\",\"\",\"\",\"3-2\",\"4209\",\"40\",\"1\",\"Testing\",\"Stims/Figures/85-J-0-2.bmp\",\"mama:na\",\"Up\",\"40\",\"2\",\"4\",\"9\",\"S\",\"J\",\"28\"
\"\",\"\",\"approach-retreat\",\"177\",\"1167894\",\"0.0-177.0\",\"\",\"\",\"3-2\",\"4182\",\"39\",\"1\",\"Testing\",\"Stims/Figures/139-C-20-2.bmp\",\"ma:la:na\",\"Right\",\"39\",\"2\",\"5\",\"9\",\"S\",\"J\",\"29\"
\"\",\"\",\"approach-retreat\",\"178\",\"1173437\",\"0.0-178.0\",\"\",\"\",\"3-2\",\"4035\",\"37\",\"0\",\"Testing\",\"Stims/Figures/7-J-10-4.bmp\",\"na:lala\",\"Left\",\"39\",\"2\",\"6\",\"9\",\"S\",\"J\",\"30\"
\"\",\"\",\"approach-retreat\",\"179\",\"1179035\",\"0.0-179.0\",\"\",\"\",\"3-2\",\"4091\",\"39\",\"0\",\"Testing\",\"Stims/Figures/86-C-30-1.bmp\",\"pa:pa:ka\",\"Left\",\"37\",\"2\",\"7\",\"9\",\"P\",\"J\",\"31\"
\"\",\"\",\"approach-retreat\",\"180\",\"1184831\",\"0.0-180.0\",\"\",\"\",\"3-2\",\"4286\",\"39\",\"0\",\"Testing\",\"Stims/Figures/139-J-0-2.bmp\",\"sasa:ha\",\"Right\",\"37\",\"2\",\"8\",\"9\",\"C2\",\"J\",\"32\"
\"\",\"\",\"approach-retreat\",\"181\",\"1190926\",\"0.0-181.0\",\"\",\"\",\"3-2\",\"4589\",\"39\",\"0\",\"Testing\",\"Stims/Figures/74-J-10-4.bmp\",\"ma:lana\",\"Right\",\"37\",\"2\",\"9\",\"9\",\"S\",\"J\",\"33\"
\"\",\"\",\"approach-retreat\",\"182\",\"1196942\",\"0.0-182.0\",\"\",\"\",\"3-2\",\"4508\",\"39\",\"1\",\"Testing\",\"Stims/Figures/144-J-10-3.bmp\",\"sasaza\",\"Left\",\"39\",\"2\",\"10\",\"9\",\"C2\",\"J\",\"34\"
\"\",\"\",\"approach-retreat\",\"183\",\"1202600\",\"0.0-183.0\",\"\",\"\",\"3-2\",\"4150\",\"40\",\"0\",\"Testing\",\"Stims/Figures/128-C-30-3.bmp\",\"mamana\",\"Up\",\"38\",\"2\",\"11\",\"9\",\"S\",\"J\",\"35\"
\"\",\"\",\"approach-retreat\",\"184\",\"1208251\",\"0.0-184.0\",\"\",\"\",\"3-2\",\"4143\",\"37\",\"1\",\"Testing\",\"Stims/Figures/84-J-0-2.bmp\",\"pa:pata\",\"Right\",\"37\",\"2\",\"12\",\"9\",\"P\",\"J\",\"36\"
\"\",\"\",\"approach-retreat\",\"185\",\"1213938\",\"0.0-185.0\",\"\",\"\",\"3-2\",\"4180\",\"39\",\"1\",\"Testing\",\"Stims/Figures/100-J-10-3.bmp\",\"taka:ka\",\"Left\",\"39\",\"2\",\"13\",\"9\",\"P\",\"J\",\"37\"
\"\",\"\",\"approach-retreat\",\"186\",\"1220806\",\"0.0-186.0\",\"\",\"\",\"3-2\",\"5361\",\"40\",\"0\",\"Testing\",\"Stims/Figures/85-C-20-2.bmp\",\"fa:fava\",\"Up\",\"38\",\"2\",\"14\",\"9\",\"C1\",\"J\",\"38\"
\"\",\"\",\"approach-retreat\",\"187\",\"1226531\",\"0.0-187.0\",\"\",\"\",\"3-2\",\"4218\",\"38\",\"0\",\"Testing\",\"Stims/Figures/19-C-20-4.bmp\",\"fafasha\",\"Down\",\"40\",\"2\",\"15\",\"9\",\"C1\",\"J\",\"39\"
\"\",\"\",\"approach-retreat\",\"188\",\"1232196\",\"0.0-188.0\",\"\",\"\",\"3-2\",\"4159\",\"40\",\"0\",\"Testing\",\"Stims/Figures/27-C-30-1.bmp\",\"ma:mana\",\"Up\",\"38\",\"2\",\"16\",\"9\",\"S\",\"J\",\"40\"
\"\",\"\",\"approach-retreat\",\"189\",\"1238455\",\"0.0-189.0\",\"\",\"\",\"3-2\",\"4751\",\"37\",\"0\",\"Testing\",\"Stims/Figures/84-C-20-2.bmp\",\"pakata\",\"Right\",\"39\",\"2\",\"17\",\"9\",\"P\",\"J\",\"41\"
\"\",\"\",\"approach-retreat\",\"190\",\"1245942\",\"0.0-190.0\",\"\",\"\",\"3-2\",\"5980\",\"40\",\"0\",\"Testing\",\"Stims/Figures/144-C-30-3.bmp\",\"fa:sha:va\",\"Up\",\"38\",\"2\",\"18\",\"9\",\"C1\",\"J\",\"42\"
\"\",\"\",\"approach-retreat\",\"191\",\"1251828\",\"0.0-191.0\",\"\",\"\",\"3-2\",\"4380\",\"38\",\"0\",\"Testing\",\"Stims/Figures/100-C-30-3.bmp\",\"takata\",\"Down\",\"40\",\"2\",\"19\",\"9\",\"P\",\"J\",\"43\"
\"\",\"\",\"approach-retreat\",\"192\",\"1257513\",\"0.0-192.0\",\"\",\"\",\"3-2\",\"4179\",\"39\",\"1\",\"Testing\",\"Stims/Figures/7-C-20-4.bmp\",\"mamala\",\"Right\",\"39\",\"2\",\"20\",\"9\",\"S\",\"J\",\"44\"
\"\",\"\",\"approach-retreat\",\"193\",\"1263363\",\"0.0-193.0\",\"\",\"\",\"3-2\",\"4344\",\"38\",\"1\",\"Testing\",\"Stims/Figures/27-J-0-1.bmp\",\"vafa:sha\",\"Down\",\"38\",\"2\",\"21\",\"9\",\"C1\",\"J\",\"45\"
\"\",\"\",\"approach-retreat\",\"194\",\"1269696\",\"0.0-194.0\",\"\",\"\",\"3-2\",\"4826\",\"40\",\"1\",\"Testing\",\"Stims/Figures/57-C-30-1.bmp\",\"ta:ka:ka\",\"Down\",\"40\",\"2\",\"22\",\"9\",\"P\",\"J\",\"46\"
\"\",\"\",\"approach-retreat\",\"195\",\"1276215\",\"0.0-195.0\",\"\",\"\",\"3-2\",\"5012\",\"38\",\"1\",\"Testing\",\"Stims/Figures/86-J-0-1.bmp\",\"paka:ka\",\"Down\",\"38\",\"2\",\"23\",\"9\",\"P\",\"J\",\"47\"
\"\",\"\",\"approach-retreat\",\"196\",\"1281864\",\"0.0-196.0\",\"\",\"\",\"3-2\",\"4142\",\"37\",\"0\",\"Testing\",\"Stims/Figures/19-J-10-4.bmp\",\"zasaha\",\"Left\",\"39\",\"2\",\"24\",\"9\",\"C2\",\"J\",\"48\"
\"\",\"\",\"approach-retreat\",\"197\",\"1287679\",\"0.0-197.0\",\"\",\"\",\"3-2\",\"4307\",\"39\",\"1\",\"Testing\",\"Stims/Figures/84-J-0-2.bmp\",\"pa:pata\",\"Left\",\"39\",\"3\",\"1\",\"9\",\"P\",\"J\",\"49\"
\"\",\"\",\"approach-retreat\",\"198\",\"1293622\",\"0.0-198.0\",\"\",\"\",\"3-2\",\"4438\",\"40\",\"0\",\"Testing\",\"Stims/Figures/27-C-30-1.bmp\",\"ma:mana\",\"Up\",\"38\",\"3\",\"2\",\"9\",\"S\",\"J\",\"50\"
\"\",\"\",\"approach-retreat\",\"199\",\"1299339\",\"0.0-199.0\",\"\",\"\",\"3-2\",\"4208\",\"39\",\"0\",\"Testing\",\"Stims/Figures/86-C-30-1.bmp\",\"pa:pa:ka\",\"Left\",\"37\",\"3\",\"3\",\"9\",\"P\",\"J\",\"51\"
\"\",\"\",\"approach-retreat\",\"200\",\"1304937\",\"0.0-200.0\",\"\",\"\",\"3-2\",\"4093\",\"39\",\"1\",\"Testing\",\"Stims/Figures/100-J-10-3.bmp\",\"taka:ka\",\"Left\",\"39\",\"3\",\"4\",\"9\",\"P\",\"J\",\"52\"
\"\",\"\",\"approach-retreat\",\"201\",\"1310574\",\"0.0-201.0\",\"\",\"\",\"3-2\",\"4130\",\"38\",\"0\",\"Testing\",\"Stims/Figures/19-J-10-4.bmp\",\"zasaha\",\"Up\",\"40\",\"3\",\"5\",\"9\",\"C2\",\"J\",\"53\"
\"\",\"\",\"approach-retreat\",\"202\",\"1316434\",\"0.0-202.0\",\"\",\"\",\"3-2\",\"4354\",\"37\",\"0\",\"Testing\",\"Stims/Figures/144-C-30-3.bmp\",\"fa:sha:va\",\"Right\",\"39\",\"3\",\"6\",\"9\",\"C1\",\"J\",\"54\"
\"\",\"\",\"approach-retreat\",\"203\",\"1322145\",\"0.0-203.0\",\"\",\"\",\"3-2\",\"4204\",\"38\",\"0\",\"Testing\",\"Stims/Figures/100-C-30-3.bmp\",\"takata\",\"Down\",\"40\",\"3\",\"7\",\"9\",\"P\",\"J\",\"55\"
\"\",\"\",\"approach-retreat\",\"204\",\"1327702\",\"0.0-204.0\",\"\",\"\",\"3-2\",\"4049\",\"39\",\"0\",\"Testing\",\"Stims/Figures/85-C-20-2.bmp\",\"fa:fava\",\"Left\",\"37\",\"3\",\"8\",\"9\",\"C1\",\"J\",\"56\"
\"\",\"\",\"approach-retreat\",\"205\",\"1334215\",\"0.0-205.0\",\"\",\"\",\"3-2\",\"5005\",\"39\",\"1\",\"Testing\",\"Stims/Figures/128-C-30-3.bmp\",\"mamana\",\"Right\",\"39\",\"3\",\"9\",\"9\",\"S\",\"J\",\"57\"
\"\",\"\",\"approach-retreat\",\"206\",\"1340512\",\"0.0-206.0\",\"\",\"\",\"3-2\",\"4792\",\"40\",\"1\",\"Testing\",\"Stims/Figures/19-C-20-4.bmp\",\"fafasha\",\"Down\",\"40\",\"3\",\"10\",\"9\",\"C1\",\"J\",\"58\"
\"\",\"\",\"approach-retreat\",\"207\",\"1346409\",\"0.0-207.0\",\"\",\"\",\"3-2\",\"4388\",\"37\",\"1\",\"Testing\",\"Stims/Figures/85-J-0-2.bmp\",\"mama:na\",\"Right\",\"37\",\"3\",\"11\",\"9\",\"S\",\"J\",\"59\"
\"\",\"\",\"approach-retreat\",\"208\",\"1352136\",\"0.0-208.0\",\"\",\"\",\"3-2\",\"4222\",\"38\",\"1\",\"Testing\",\"Stims/Figures/84-C-20-2.bmp\",\"pakata\",\"Up\",\"38\",\"3\",\"12\",\"9\",\"P\",\"J\",\"60\"
\"\",\"\",\"approach-retreat\",\"209\",\"1357890\",\"0.0-209.0\",\"\",\"\",\"3-2\",\"4246\",\"39\",\"0\",\"Testing\",\"Stims/Figures/128-J-10-3.bmp\",\"va:sha:va\",\"Right\",\"37\",\"3\",\"13\",\"9\",\"C1\",\"J\",\"61\"
\"\",\"\",\"approach-retreat\",\"210\",\"1363598\",\"0.0-210.0\",\"\",\"\",\"3-2\",\"4201\",\"39\",\"1\",\"Testing\",\"Stims/Figures/7-J-10-4.bmp\",\"na:lala\",\"Left\",\"39\",\"3\",\"14\",\"9\",\"S\",\"J\",\"62\"
\"\",\"\",\"approach-retreat\",\"211\",\"1369324\",\"0.0-211.0\",\"\",\"\",\"3-2\",\"4219\",\"39\",\"1\",\"Testing\",\"Stims/Figures/27-J-0-1.bmp\",\"vafa:sha\",\"Left\",\"39\",\"3\",\"15\",\"9\",\"C1\",\"J\",\"63\"
\"\",\"\",\"approach-retreat\",\"212\",\"1375792\",\"0.0-212.0\",\"\",\"\",\"3-2\",\"4960\",\"38\",\"0\",\"Testing\",\"Stims/Figures/86-J-0-1.bmp\",\"paka:ka\",\"Up\",\"40\",\"3\",\"16\",\"9\",\"P\",\"J\",\"64\"
\"\",\"\",\"approach-retreat\",\"213\",\"1381769\",\"0.0-213.0\",\"\",\"\",\"3-2\",\"4470\",\"40\",\"0\",\"Testing\",\"Stims/Figures/139-C-20-2.bmp\",\"ma:la:na\",\"Up\",\"38\",\"3\",\"17\",\"9\",\"S\",\"J\",\"65\"
\"\",\"\",\"approach-retreat\",\"214\",\"1387475\",\"0.0-214.0\",\"\",\"\",\"3-2\",\"4200\",\"37\",\"1\",\"Testing\",\"Stims/Figures/144-J-10-3.bmp\",\"sasaza\",\"Right\",\"37\",\"3\",\"18\",\"9\",\"C2\",\"J\",\"66\"
\"\",\"\",\"approach-retreat\",\"215\",\"1394148\",\"0.0-215.0\",\"\",\"\",\"3-2\",\"5167\",\"40\",\"1\",\"Testing\",\"Stims/Figures/7-C-20-4.bmp\",\"mamala\",\"Down\",\"40\",\"3\",\"19\",\"9\",\"S\",\"J\",\"67\"
\"\",\"\",\"approach-retreat\",\"216\",\"1399986\",\"0.0-216.0\",\"\",\"\",\"3-2\",\"4330\",\"40\",\"1\",\"Testing\",\"Stims/Figures/74-C-20-4.bmp\",\"za:haza\",\"Down\",\"40\",\"3\",\"20\",\"9\",\"C2\",\"J\",\"68\"
\"\",\"\",\"approach-retreat\",\"217\",\"1405797\",\"0.0-217.0\",\"\",\"\",\"3-2\",\"4305\",\"38\",\"0\",\"Testing\",\"Stims/Figures/74-J-10-4.bmp\",\"ma:lana\",\"Up\",\"40\",\"3\",\"21\",\"9\",\"S\",\"J\",\"69\"
\"\",\"\",\"approach-retreat\",\"218\",\"1411883\",\"0.0-218.0\",\"\",\"\",\"3-2\",\"4578\",\"39\",\"0\",\"Testing\",\"Stims/Figures/57-J-0-1.bmp\",\"tapa:ta\",\"Right\",\"37\",\"3\",\"22\",\"9\",\"P\",\"J\",\"70\"
\"\",\"\",\"approach-retreat\",\"219\",\"1417670\",\"0.0-219.0\",\"\",\"\",\"3-2\",\"4280\",\"40\",\"0\",\"Testing\",\"Stims/Figures/139-J-0-2.bmp\",\"sasa:ha\",\"Down\",\"38\",\"3\",\"23\",\"9\",\"C2\",\"J\",\"71\"
\"\",\"\",\"approach-retreat\",\"220\",\"1423557\",\"0.0-220.0\",\"\",\"\",\"3-2\",\"4380\",\"38\",\"0\",\"Testing\",\"Stims/Figures/57-C-30-1.bmp\",\"ta:ka:ka\",\"Down\",\"40\",\"3\",\"24\",\"9\",\"P\",\"J\",\"72\"
\"\",\"\",\"approach-retreat\",\"221\",\"1429225\",\"0.0-221.0\",\"\",\"\",\"3-2\",\"4161\",\"38\",\"0\",\"Testing\",\"Stims/Figures/85-C-20-2.bmp\",\"fa:fava\",\"Down\",\"40\",\"4\",\"1\",\"9\",\"C1\",\"J\",\"73\"
\"\",\"\",\"approach-retreat\",\"222\",\"1435337\",\"0.0-222.0\",\"\",\"\",\"3-2\",\"4605\",\"37\",\"0\",\"Testing\",\"Stims/Figures/139-J-0-2.bmp\",\"sasa:ha\",\"Left\",\"39\",\"4\",\"2\",\"9\",\"C2\",\"J\",\"74\"
\"\",\"\",\"approach-retreat\",\"223\",\"1441026\",\"0.0-223.0\",\"\",\"\",\"3-2\",\"4184\",\"40\",\"0\",\"Testing\",\"Stims/Figures/7-C-20-4.bmp\",\"mamala\",\"Up\",\"38\",\"4\",\"3\",\"9\",\"S\",\"J\",\"75\"
\"\",\"\",\"approach-retreat\",\"224\",\"1447545\",\"0.0-224.0\",\"\",\"\",\"3-2\",\"5009\",\"40\",\"0\",\"Testing\",\"Stims/Figures/19-C-20-4.bmp\",\"fafasha\",\"Up\",\"38\",\"4\",\"4\",\"9\",\"C1\",\"J\",\"76\"
\"\",\"\",\"approach-retreat\",\"225\",\"1454372\",\"0.0-225.0\",\"\",\"\",\"3-2\",\"5322\",\"40\",\"0\",\"Testing\",\"Stims/Figures/7-J-10-4.bmp\",\"na:lala\",\"Down\",\"38\",\"4\",\"5\",\"9\",\"S\",\"J\",\"77\"
\"\",\"\",\"approach-retreat\",\"226\",\"1460402\",\"0.0-226.0\",\"\",\"\",\"3-2\",\"4524\",\"37\",\"1\",\"Testing\",\"Stims/Figures/100-C-30-3.bmp\",\"takata\",\"Left\",\"37\",\"4\",\"6\",\"9\",\"P\",\"J\",\"78\"
\"\",\"\",\"approach-retreat\",\"227\",\"1467443\",\"0.0-227.0\",\"\",\"\",\"3-2\",\"5538\",\"38\",\"0\",\"Testing\",\"Stims/Figures/27-C-30-1.bmp\",\"ma:mana\",\"Down\",\"40\",\"4\",\"7\",\"9\",\"S\",\"J\",\"79\"
\"\",\"\",\"approach-retreat\",\"228\",\"1474445\",\"0.0-228.0\",\"\",\"\",\"3-2\",\"5495\",\"38\",\"1\",\"Testing\",\"Stims/Figures/84-J-0-2.bmp\",\"pa:pata\",\"Down\",\"38\",\"4\",\"8\",\"9\",\"P\",\"J\",\"80\"
\"\",\"\",\"approach-retreat\",\"229\",\"1480721\",\"0.0-229.0\",\"\",\"\",\"3-2\",\"4769\",\"38\",\"0\",\"Testing\",\"Stims/Figures/85-J-0-2.bmp\",\"mama:na\",\"Up\",\"40\",\"4\",\"9\",\"9\",\"S\",\"J\",\"81\"
\"\",\"\",\"approach-retreat\",\"230\",\"1486710\",\"0.0-230.0\",\"\",\"\",\"3-2\",\"4482\",\"37\",\"1\",\"Testing\",\"Stims/Figures/139-C-20-2.bmp\",\"ma:la:na\",\"Left\",\"37\",\"4\",\"10\",\"9\",\"S\",\"J\",\"82\"
\"\",\"\",\"approach-retreat\",\"231\",\"1493719\",\"0.0-231.0\",\"\",\"\",\"3-2\",\"5503\",\"39\",\"0\",\"Testing\",\"Stims/Figures/86-J-0-1.bmp\",\"paka:ka\",\"Right\",\"37\",\"4\",\"11\",\"9\",\"P\",\"J\",\"83\"
\"\",\"\",\"approach-retreat\",\"232\",\"1499942\",\"0.0-232.0\",\"\",\"\",\"3-2\",\"4716\",\"40\",\"1\",\"Testing\",\"Stims/Figures/100-J-10-3.bmp\",\"taka:ka\",\"Up\",\"40\",\"4\",\"12\",\"9\",\"P\",\"J\",\"84\"
\"\",\"\",\"approach-retreat\",\"233\",\"1505801\",\"0.0-233.0\",\"\",\"\",\"3-2\",\"4351\",\"37\",\"0\",\"Testing\",\"Stims/Figures/86-C-30-1.bmp\",\"pa:pa:ka\",\"Right\",\"39\",\"4\",\"13\",\"9\",\"P\",\"J\",\"85\"
\"\",\"\",\"approach-retreat\",\"234\",\"1511778\",\"0.0-234.0\",\"\",\"\",\"3-2\",\"4471\",\"39\",\"0\",\"Testing\",\"Stims/Figures/128-J-10-3.bmp\",\"va:sha:va\",\"Right\",\"37\",\"4\",\"14\",\"9\",\"C1\",\"J\",\"86\"
\"\",\"\",\"approach-retreat\",\"235\",\"1517820\",\"0.0-235.0\",\"\",\"\",\"3-2\",\"4534\",\"37\",\"0\",\"Testing\",\"Stims/Figures/19-J-10-4.bmp\",\"zasaha\",\"Left\",\"39\",\"4\",\"15\",\"9\",\"C2\",\"J\",\"87\"
\"\",\"\",\"approach-retreat\",\"236\",\"1523659\",\"0.0-236.0\",\"\",\"\",\"3-2\",\"4332\",\"39\",\"1\",\"Testing\",\"Stims/Figures/27-J-0-1.bmp\",\"vafa:sha\",\"Left\",\"39\",\"4\",\"16\",\"9\",\"C1\",\"J\",\"88\"
\"\",\"\",\"approach-retreat\",\"237\",\"1530542\",\"0.0-237.0\",\"\",\"\",\"3-2\",\"5377\",\"37\",\"1\",\"Testing\",\"Stims/Figures/57-J-0-1.bmp\",\"tapa:ta\",\"Right\",\"37\",\"4\",\"17\",\"9\",\"P\",\"J\",\"89\"
\"\",\"\",\"approach-retreat\",\"238\",\"1536473\",\"0.0-238.0\",\"\",\"\",\"3-2\",\"4423\",\"40\",\"1\",\"Testing\",\"Stims/Figures/74-C-20-4.bmp\",\"za:haza\",\"Down\",\"40\",\"4\",\"18\",\"9\",\"C2\",\"J\",\"90\"
\"\",\"\",\"approach-retreat\",\"239\",\"1542404\",\"0.0-239.0\",\"\",\"\",\"3-2\",\"4427\",\"38\",\"1\",\"Testing\",\"Stims/Figures/128-C-30-3.bmp\",\"mamana\",\"Up\",\"38\",\"4\",\"19\",\"9\",\"S\",\"J\",\"91\"
\"\",\"\",\"approach-retreat\",\"240\",\"1548405\",\"0.0-240.0\",\"\",\"\",\"3-2\",\"4494\",\"39\",\"0\",\"Testing\",\"Stims/Figures/74-J-10-4.bmp\",\"ma:lana\",\"Right\",\"37\",\"4\",\"20\",\"9\",\"S\",\"J\",\"92\"
\"\",\"\",\"approach-retreat\",\"241\",\"1554267\",\"0.0-241.0\",\"\",\"\",\"3-2\",\"4356\",\"39\",\"1\",\"Testing\",\"Stims/Figures/144-C-30-3.bmp\",\"fa:sha:va\",\"Right\",\"39\",\"4\",\"21\",\"9\",\"C1\",\"J\",\"93\"
\"\",\"\",\"approach-retreat\",\"242\",\"1560243\",\"0.0-242.0\",\"\",\"\",\"3-2\",\"4468\",\"38\",\"1\",\"Testing\",\"Stims/Figures/84-C-20-2.bmp\",\"pakata\",\"Up\",\"38\",\"4\",\"22\",\"9\",\"P\",\"J\",\"94\"
\"\",\"\",\"approach-retreat\",\"243\",\"1566194\",\"0.0-243.0\",\"\",\"\",\"3-2\",\"4444\",\"37\",\"0\",\"Testing\",\"Stims/Figures/144-J-10-3.bmp\",\"sasaza\",\"Left\",\"39\",\"4\",\"23\",\"9\",\"C2\",\"J\",\"95\"
\"\",\"\",\"approach-retreat\",\"244\",\"1571879\",\"0.0-244.0\",\"\",\"\",\"3-2\",\"4179\",\"40\",\"1\",\"Testing\",\"Stims/Figures/57-C-30-1.bmp\",\"ta:ka:ka\",\"Down\",\"40\",\"4\",\"24\",\"9\",\"P\",\"J\",\"96\"
\"26476\",\"\",\"survey-text\",\"245\",\"1598362\",\"0.0-245.0\",\"\",\"{\"\"Q0\"\":\"\"1240/2017\"\"}\",\"\",\"\",\"\",\"\",\"\",\"\",\"\",\"\",\"\",\"\",\"\",\"\",\"\",\"\",\"\"
