"rt","key_press","trial_type","trial_index","time_elapsed","internal_node_id","view_history","responses","Id","Rt","ResKeyCode","ResCorr","TrialType2","Image","Label","Location","CorrectResponse","Block","BlockTrial","Condition","LabelType","Subcondition","trialNum"
"133663","32","text","0","133675","0.0-0.0-0.0","","","","","","","","","","","","","","","","",""
"175285","","instructions","1","308972","0.0-1.0","[{""page_index"":0,""viewing_time"":175282}]","","","","","","","","","","","","","","","",""
"26587","","survey-multi-choice","2","335759","0.0-2.0","","{""Q0"":""Da"",""Q1"":""Da"",""Q2"":""Da"",""Q3"":""Da"",""Q4"":""Da"",""Q5"":""Da""}","","","","","","","","","","","","","","",""
"","","bio","3","344679","0.0-3.0","","{""age"":""18"",""gender"":""m"",""specify"":""""}","","","","","","","","","","","","","","",""
"","","approach-retreat","4","353313","0.0-4.0","","","1-2","6980","39","0","Training","Stims/Figures/19-J-10-4.bmp","ma:la:na","Left","37","1","1","2","S","C","1"
"","","approach-retreat","5","361406","0.0-5.0","","","1-2","6549","38","0","Training","Stims/Figures/118-C-20-2.bmp","ta:ka:ka","Up","40","1","2","2","P","C","2"
"","","approach-retreat","6","369205","0.0-6.0","","","1-2","6257","37","0","Training","Stims/Figures/111-C-30-3.bmp","ta:ka:ka","Left","39","1","3","2","P","C","3"
"","","approach-retreat","7","380467","0.0-7.0","","","1-2","9729","40","0","Training","Stims/Figures/100-J-10-3.bmp","ma:la:na","Up","38","1","4","2","S","C","4"
"","","approach-retreat","8","389255","0.0-8.0","","","1-2","7250","39","1","Training","Stims/Figures/74-J-10-4.bmp","ma:la:na","Right","39","1","5","2","S","C","5"
"","","approach-retreat","9","397642","0.0-9.0","","","1-2","6846","38","1","Training","Stims/Figures/19-C-20-4.bmp","ta:ka:ka","Down","38","1","6","2","P","C","6"
"","","approach-retreat","10","405379","0.0-10.0","","","1-2","6201","38","1","Training","Stims/Figures/100-C-30-3.bmp","ta:ka:ka","Down","38","1","7","2","P","C","7"
"","","approach-retreat","11","411729","0.0-11.0","","","1-2","4810","38","1","Training","Stims/Figures/74-C-20-4.bmp","ta:ka:ka","Down","38","1","8","2","P","C","8"
"","","approach-retreat","12","419223","0.0-12.0","","","1-2","5954","38","1","Training","Stims/Figures/111-J-10-3.bmp","ma:la:na","Up","38","1","9","2","S","C","9"
"","","approach-retreat","13","430352","0.0-13.0","","","1-2","9591","39","1","Training","Stims/Figures/57-J-0-1.bmp","ma:la:na","Right","39","1","10","2","S","C","10"
"","","approach-retreat","14","437749","0.0-14.0","","","1-2","5864","40","1","Training","Stims/Figures/93-J-0-1.bmp","ma:la:na","Down","40","1","11","2","S","C","11"
"","","approach-retreat","15","444384","0.0-15.0","","","1-2","5097","39","1","Training","Stims/Figures/93-C-30-1.bmp","ta:ka:ka","Left","39","1","12","2","P","C","12"
"","","approach-retreat","16","451509","0.0-16.0","","","1-2","5589","40","1","Training","Stims/Figures/57-C-30-1.bmp","ta:ka:ka","Up","40","1","13","2","P","C","13"
"","","approach-retreat","17","457623","0.0-17.0","","","1-2","4575","39","1","Training","Stims/Figures/118-J-0-2.bmp","ma:la:na","Right","39","1","14","2","S","C","14"
"","","approach-retreat","18","463583","0.0-18.0","","","1-2","4426","39","1","Training","Stims/Figures/85-J-0-2.bmp","ma:la:na","Right","39","1","15","2","S","C","15"
"","","approach-retreat","19","469776","0.0-19.0","","","1-2","4665","39","1","Training","Stims/Figures/85-C-20-2.bmp","ta:ka:ka","Left","39","1","16","2","P","C","16"
"","","approach-retreat","20","477416","0.0-20.0","","","1-2","6106","40","0","Training","Stims/Figures/85-C-20-2.bmp","ta:ka:ka","Down","38","2","1","2","P","C","17"
"","","approach-retreat","21","485637","0.0-21.0","","","1-2","6685","37","1","Training","Stims/Figures/100-J-10-3.bmp","ma:la:na","Left","37","2","2","2","S","C","18"
"","","approach-retreat","22","492606","0.0-22.0","","","1-2","5431","38","1","Training","Stims/Figures/118-C-20-2.bmp","ta:ka:ka","Down","38","2","3","2","P","C","19"
"","","approach-retreat","23","499700","0.0-23.0","","","1-2","5558","39","1","Training","Stims/Figures/111-J-10-3.bmp","ma:la:na","Right","39","2","4","2","S","C","20"
"","","approach-retreat","24","505658","0.0-24.0","","","1-2","4416","37","1","Training","Stims/Figures/93-J-0-1.bmp","ma:la:na","Left","37","2","5","2","S","C","21"
"","","approach-retreat","25","511999","0.0-25.0","","","1-2","4810","38","1","Training","Stims/Figures/100-C-30-3.bmp","ta:ka:ka","Down","38","2","6","2","P","C","22"
"","","approach-retreat","26","519276","0.0-26.0","","","1-2","5738","38","1","Training","Stims/Figures/19-J-10-4.bmp","ma:la:na","Up","38","2","7","2","S","C","23"
"","","approach-retreat","27","528133","0.0-27.0","","","1-2","7319","39","0","Training","Stims/Figures/74-C-20-4.bmp","ta:ka:ka","Right","37","2","8","2","P","C","24"
"","","approach-retreat","28","534931","0.0-28.0","","","1-2","5260","37","1","Training","Stims/Figures/57-J-0-1.bmp","ma:la:na","Left","37","2","9","2","S","C","25"
"","","approach-retreat","29","541196","0.0-29.0","","","1-2","4730","40","1","Training","Stims/Figures/57-C-30-1.bmp","ta:ka:ka","Up","40","2","10","2","P","C","26"
"","","approach-retreat","30","546798","0.0-30.0","","","1-2","4064","39","1","Training","Stims/Figures/111-C-30-3.bmp","ta:ka:ka","Left","39","2","11","2","P","C","27"
"","","approach-retreat","31","552368","0.0-31.0","","","1-2","4033","40","1","Training","Stims/Figures/118-J-0-2.bmp","ma:la:na","Down","40","2","12","2","S","C","28"
"","","approach-retreat","32","558082","0.0-32.0","","","1-2","4181","37","1","Training","Stims/Figures/93-C-30-1.bmp","ta:ka:ka","Right","37","2","13","2","P","C","29"
"","","approach-retreat","33","563496","0.0-33.0","","","1-2","3875","40","1","Training","Stims/Figures/19-C-20-4.bmp","ta:ka:ka","Up","40","2","14","2","P","C","30"
"","","approach-retreat","34","569640","0.0-34.0","","","1-2","4606","39","1","Training","Stims/Figures/74-J-10-4.bmp","ma:la:na","Right","39","2","15","2","S","C","31"
"","","approach-retreat","35","575508","0.0-35.0","","","1-2","4328","38","1","Training","Stims/Figures/85-J-0-2.bmp","ma:la:na","Up","38","2","16","2","S","C","32"
"","","approach-retreat","36","581328","0.0-36.0","","","1-2","4281","38","1","Training","Stims/Figures/111-C-30-3.bmp","ta:ka:ka","Down","38","3","1","2","P","C","33"
"","","approach-retreat","37","587591","0.0-37.0","","","1-2","4728","38","1","Training","Stims/Figures/85-J-0-2.bmp","ma:la:na","Up","38","3","2","2","S","C","34"
"","","approach-retreat","38","593248","0.0-38.0","","","1-2","4116","40","0","Training","Stims/Figures/57-C-30-1.bmp","ta:ka:ka","Down","38","3","3","2","P","C","35"
"","","approach-retreat","39","599634","0.0-39.0","","","1-2","4843","37","1","Training","Stims/Figures/19-J-10-4.bmp","ma:la:na","Left","37","3","4","2","S","C","36"
"","","approach-retreat","40","605072","0.0-40.0","","","1-2","3902","37","1","Training","Stims/Figures/93-J-0-1.bmp","ma:la:na","Left","37","3","5","2","S","C","37"
"","","approach-retreat","41","610561","0.0-41.0","","","1-2","3954","37","1","Training","Stims/Figures/118-C-20-2.bmp","ta:ka:ka","Right","37","3","6","2","P","C","38"
"","","approach-retreat","42","616657","0.0-42.0","","","1-2","4561","37","1","Training","Stims/Figures/100-C-30-3.bmp","ta:ka:ka","Right","37","3","7","2","P","C","39"
"","","approach-retreat","43","622241","0.0-43.0","","","1-2","4048","40","1","Training","Stims/Figures/85-C-20-2.bmp","ta:ka:ka","Up","40","3","8","2","P","C","40"
"","","approach-retreat","44","628749","0.0-44.0","","","1-2","4975","39","1","Training","Stims/Figures/74-C-20-4.bmp","ta:ka:ka","Left","39","3","9","2","P","C","41"
"","","approach-retreat","45","635415","0.0-45.0","","","1-2","5129","40","1","Training","Stims/Figures/19-C-20-4.bmp","ta:ka:ka","Up","40","3","10","2","P","C","42"
"","","approach-retreat","46","641610","0.0-46.0","","","1-2","4659","39","1","Training","Stims/Figures/74-J-10-4.bmp","ma:la:na","Right","39","3","11","2","S","C","43"
"","","approach-retreat","47","647724","0.0-47.0","","","1-2","4572","40","1","Training","Stims/Figures/118-J-0-2.bmp","ma:la:na","Down","40","3","12","2","S","C","44"
"","","approach-retreat","48","654005","0.0-48.0","","","1-2","4744","39","1","Training","Stims/Figures/93-C-30-1.bmp","ta:ka:ka","Left","39","3","13","2","P","C","45"
"","","approach-retreat","49","661124","0.0-49.0","","","1-2","5584","40","1","Training","Stims/Figures/57-J-0-1.bmp","ma:la:na","Down","40","3","14","2","S","C","46"
"","","approach-retreat","50","666840","0.0-50.0","","","1-2","4178","39","1","Training","Stims/Figures/111-J-10-3.bmp","ma:la:na","Right","39","3","15","2","S","C","47"
"","","approach-retreat","51","672459","0.0-51.0","","","1-2","4079","38","1","Training","Stims/Figures/100-J-10-3.bmp","ma:la:na","Up","38","3","16","2","S","C","48"
"","","approach-retreat","52","677947","0.0-52.0","","","1-2","3946","39","1","Training","Stims/Figures/93-J-0-1.bmp","ma:la:na","Right","39","4","1","2","S","C","49"
"","","approach-retreat","53","683715","0.0-53.0","","","1-2","4231","38","1","Training","Stims/Figures/111-J-10-3.bmp","ma:la:na","Up","38","4","2","2","S","C","50"
"","","approach-retreat","54","690026","0.0-54.0","","","1-2","4769","40","1","Training","Stims/Figures/57-J-0-1.bmp","ma:la:na","Down","40","4","3","2","S","C","51"
"","","approach-retreat","55","696084","0.0-55.0","","","1-2","4524","39","1","Training","Stims/Figures/93-C-30-1.bmp","ta:ka:ka","Left","39","4","4","2","P","C","52"
"","","approach-retreat","56","702333","0.0-56.0","","","1-2","4712","37","1","Training","Stims/Figures/19-J-10-4.bmp","ma:la:na","Left","37","4","5","2","S","C","53"
"","","approach-retreat","57","708490","0.0-57.0","","","1-2","4617","39","1","Training","Stims/Figures/74-C-20-4.bmp","ta:ka:ka","Left","39","4","6","2","P","C","54"
"","","approach-retreat","58","715204","0.0-58.0","","","1-2","5176","38","1","Training","Stims/Figures/19-C-20-4.bmp","ta:ka:ka","Down","38","4","7","2","P","C","55"
"","","approach-retreat","59","722855","0.0-59.0","","","1-2","6117","39","1","Training","Stims/Figures/100-J-10-3.bmp","ma:la:na","Right","39","4","8","2","S","C","56"
"","","approach-retreat","60","729568","0.0-60.0","","","1-2","5170","40","1","Training","Stims/Figures/111-C-30-3.bmp","ta:ka:ka","Up","40","4","9","2","P","C","57"
"","","approach-retreat","61","735693","0.0-61.0","","","1-2","4593","40","1","Training","Stims/Figures/100-C-30-3.bmp","ta:ka:ka","Up","40","4","10","2","P","C","58"
"","","approach-retreat","62","741181","0.0-62.0","","","1-2","3951","39","1","Training","Stims/Figures/85-J-0-2.bmp","ma:la:na","Right","39","4","11","2","S","C","59"
"","","approach-retreat","63","746709","0.0-63.0","","","1-2","3998","38","1","Training","Stims/Figures/85-C-20-2.bmp","ta:ka:ka","Down","38","4","12","2","P","C","60"
"","","approach-retreat","64","752187","0.0-64.0","","","1-2","3942","38","1","Training","Stims/Figures/118-J-0-2.bmp","ma:la:na","Up","38","4","13","2","S","C","61"
"","","approach-retreat","65","757620","0.0-65.0","","","1-2","3897","37","1","Training","Stims/Figures/57-C-30-1.bmp","ta:ka:ka","Right","37","4","14","2","P","C","62"
"","","approach-retreat","66","763302","0.0-66.0","","","1-2","4146","37","1","Training","Stims/Figures/74-J-10-4.bmp","ma:la:na","Left","37","4","15","2","S","C","63"
"","","approach-retreat","67","770241","0.0-67.0","","","1-2","5394","38","1","Training","Stims/Figures/118-C-20-2.bmp","ta:ka:ka","Down","38","4","16","2","P","C","64"
"","","approach-retreat","68","775758","0.0-68.0","","","1-2","3982","38","1","Training","Stims/Figures/93-J-0-1.bmp","ma:la:na","Up","38","5","1","2","S","C","65"
"","","approach-retreat","69","781416","0.0-69.0","","","1-2","4125","40","1","Training","Stims/Figures/85-J-0-2.bmp","ma:la:na","Down","40","5","2","2","S","C","66"
"","","approach-retreat","70","788695","0.0-70.0","","","1-2","5741","39","1","Training","Stims/Figures/118-J-0-2.bmp","ma:la:na","Right","39","5","3","2","S","C","67"
"","","approach-retreat","71","795278","0.0-71.0","","","1-2","5046","40","1","Training","Stims/Figures/93-C-30-1.bmp","ta:ka:ka","Up","40","5","4","2","P","C","68"
"","","approach-retreat","72","801090","0.0-72.0","","","1-2","4300","40","1","Training","Stims/Figures/100-C-30-3.bmp","ta:ka:ka","Up","40","5","5","2","P","C","69"
"","","approach-retreat","73","807282","0.0-73.0","","","1-2","4662","39","1","Training","Stims/Figures/19-C-20-4.bmp","ta:ka:ka","Left","39","5","6","2","P","C","70"
"","","approach-retreat","74","812792","0.0-74.0","","","1-2","3973","39","1","Training","Stims/Figures/111-J-10-3.bmp","ma:la:na","Right","39","5","7","2","S","C","71"
"","","approach-retreat","75","818462","0.0-75.0","","","1-2","4133","39","1","Training","Stims/Figures/118-C-20-2.bmp","ta:ka:ka","Left","39","5","8","2","P","C","72"
"","","approach-retreat","76","824832","0.0-76.0","","","1-2","4834","38","1","Training","Stims/Figures/74-C-20-4.bmp","ta:ka:ka","Down","38","5","9","2","P","C","73"
"","","approach-retreat","77","830570","0.0-77.0","","","1-2","4197","39","0","Training","Stims/Figures/57-C-30-1.bmp","ta:ka:ka","Right","37","5","10","2","P","C","74"
"","","approach-retreat","78","836009","0.0-78.0","","","1-2","3901","39","1","Training","Stims/Figures/100-J-10-3.bmp","ma:la:na","Right","39","5","11","2","S","C","75"
"","","approach-retreat","79","841765","0.0-79.0","","","1-2","4218","40","1","Training","Stims/Figures/57-J-0-1.bmp","ma:la:na","Down","40","5","12","2","S","C","76"
"","","approach-retreat","80","848022","0.0-80.0","","","1-2","4719","37","1","Training","Stims/Figures/19-J-10-4.bmp","ma:la:na","Left","37","5","13","2","S","C","77"
"","","approach-retreat","81","853789","0.0-81.0","","","1-2","4232","40","1","Training","Stims/Figures/85-C-20-2.bmp","ta:ka:ka","Up","40","5","14","2","P","C","78"
"","","approach-retreat","82","859636","0.0-82.0","","","1-2","4311","38","0","Training","Stims/Figures/74-J-10-4.bmp","ma:la:na","Down","40","5","15","2","S","C","79"
"","","approach-retreat","83","867900","0.0-83.0","","","1-2","6726","39","1","Training","Stims/Figures/111-C-30-3.bmp","ta:ka:ka","Left","39","5","16","2","P","C","80"
"","","approach-retreat","84","873534","0.0-84.0","","","1-2","4098","38","1","Training","Stims/Figures/100-J-10-3.bmp","ma:la:na","Up","38","6","1","2","S","C","81"
"","","approach-retreat","85","879205","0.0-85.0","","","1-2","4133","40","1","Training","Stims/Figures/19-J-10-4.bmp","ma:la:na","Down","40","6","2","2","S","C","82"
"","","approach-retreat","86","884871","0.0-86.0","","","1-2","4131","40","1","Training","Stims/Figures/93-J-0-1.bmp","ma:la:na","Down","40","6","3","2","S","C","83"
"","","approach-retreat","87","890940","0.0-87.0","","","1-2","4529","37","1","Training","Stims/Figures/74-C-20-4.bmp","ta:ka:ka","Right","37","6","4","2","P","C","84"
"","","approach-retreat","88","897348","0.0-88.0","","","1-2","4871","37","1","Training","Stims/Figures/74-J-10-4.bmp","ma:la:na","Left","37","6","5","2","S","C","85"
"","","approach-retreat","89","903198","0.0-89.0","","","1-2","4314","38","1","Training","Stims/Figures/111-C-30-3.bmp","ta:ka:ka","Down","38","6","6","2","P","C","86"
"","","approach-retreat","90","909986","0.0-90.0","","","1-2","5254","37","1","Training","Stims/Figures/85-J-0-2.bmp","ma:la:na","Left","37","6","7","2","S","C","87"
"","","approach-retreat","91","918701","0.0-91.0","","","1-2","7177","40","1","Training","Stims/Figures/111-J-10-3.bmp","ma:la:na","Down","40","6","8","2","S","C","88"
"","","approach-retreat","92","924971","0.0-92.0","","","1-2","4735","39","1","Training","Stims/Figures/93-C-30-1.bmp","ta:ka:ka","Left","39","6","9","2","P","C","89"
"","","approach-retreat","93","930793","0.0-93.0","","","1-2","4286","37","1","Training","Stims/Figures/118-J-0-2.bmp","ma:la:na","Left","37","6","10","2","S","C","90"
"","","approach-retreat","94","936910","0.0-94.0","","","1-2","4582","39","1","Training","Stims/Figures/57-J-0-1.bmp","ma:la:na","Right","39","6","11","2","S","C","91"
"","","approach-retreat","95","943468","0.0-95.0","","","1-2","5021","40","1","Training","Stims/Figures/85-C-20-2.bmp","ta:ka:ka","Up","40","6","12","2","P","C","92"
"","","approach-retreat","96","949487","0.0-96.0","","","1-2","4491","40","1","Training","Stims/Figures/100-C-30-3.bmp","ta:ka:ka","Up","40","6","13","2","P","C","93"
"","","approach-retreat","97","955462","0.0-97.0","","","1-2","4438","40","1","Training","Stims/Figures/118-C-20-2.bmp","ta:ka:ka","Up","40","6","14","2","P","C","94"
"","","approach-retreat","98","961791","0.0-98.0","","","1-2","4799","37","1","Training","Stims/Figures/19-C-20-4.bmp","ta:ka:ka","Right","37","6","15","2","P","C","95"
"","","approach-retreat","99","967614","0.0-99.0","","","1-2","4287","37","1","Training","Stims/Figures/57-C-30-1.bmp","ta:ka:ka","Right","37","6","16","2","P","C","96"
"","","approach-retreat","100","973288","0.0-100.0","","","1-2","4134","37","1","Training","Stims/Figures/19-C-20-4.bmp","ta:ka:ka","Right","37","7","1","2","P","C","97"
"","","approach-retreat","101","979032","0.0-101.0","","","1-2","4204","40","1","Training","Stims/Figures/85-J-0-2.bmp","ma:la:na","Down","40","7","2","2","S","C","98"
"","","approach-retreat","102","984700","0.0-102.0","","","1-2","4129","37","1","Training","Stims/Figures/93-J-0-1.bmp","ma:la:na","Left","37","7","3","2","S","C","99"
"","","approach-retreat","103","990374","0.0-103.0","","","1-2","4135","40","1","Training","Stims/Figures/19-J-10-4.bmp","ma:la:na","Down","40","7","4","2","S","C","100"
"","","approach-retreat","104","997669","0.0-104.0","","","1-2","5762","38","1","Training","Stims/Figures/74-J-10-4.bmp","ma:la:na","Up","38","7","5","2","S","C","101"
"","","approach-retreat","105","1003960","0.0-105.0","","","1-2","4760","40","1","Training","Stims/Figures/118-J-0-2.bmp","ma:la:na","Down","40","7","6","2","S","C","102"
"","","approach-retreat","106","1009471","0.0-106.0","","","1-2","3969","37","1","Training","Stims/Figures/85-C-20-2.bmp","ta:ka:ka","Right","37","7","7","2","P","C","103"
"","","approach-retreat","107","1014982","0.0-107.0","","","1-2","3975","40","1","Training","Stims/Figures/100-C-30-3.bmp","ta:ka:ka","Up","40","7","8","2","P","C","104"
"","","approach-retreat","108","1020769","0.0-108.0","","","1-2","4246","40","1","Training","Stims/Figures/74-C-20-4.bmp","ta:ka:ka","Up","40","7","9","2","P","C","105"
"","","approach-retreat","109","1026335","0.0-109.0","","","1-2","4032","37","1","Training","Stims/Figures/57-J-0-1.bmp","ma:la:na","Left","37","7","10","2","S","C","106"
"","","approach-retreat","110","1032110","0.0-110.0","","","1-2","4236","39","1","Training","Stims/Figures/111-J-10-3.bmp","ma:la:na","Right","39","7","11","2","S","C","107"
"","","approach-retreat","111","1037734","0.0-111.0","","","1-2","4093","38","1","Training","Stims/Figures/57-C-30-1.bmp","ta:ka:ka","Down","38","7","12","2","P","C","108"
"","","approach-retreat","112","1043187","0.0-112.0","","","1-2","3916","39","1","Training","Stims/Figures/93-C-30-1.bmp","ta:ka:ka","Left","39","7","13","2","P","C","109"
"","","approach-retreat","113","1049914","0.0-113.0","","","1-2","5188","39","1","Training","Stims/Figures/100-J-10-3.bmp","ma:la:na","Right","39","7","14","2","S","C","110"
"","","approach-retreat","114","1055493","0.0-114.0","","","1-2","4039","40","1","Training","Stims/Figures/118-C-20-2.bmp","ta:ka:ka","Up","40","7","15","2","P","C","111"
"","","approach-retreat","115","1060969","0.0-115.0","","","1-2","3938","39","1","Training","Stims/Figures/111-C-30-3.bmp","ta:ka:ka","Left","39","7","16","2","P","C","112"
"","","approach-retreat","116","1066426","0.0-116.0","","","1-2","3926","39","1","Training","Stims/Figures/74-C-20-4.bmp","ta:ka:ka","Left","39","8","1","2","P","C","113"
"","","approach-retreat","117","1072323","0.0-117.0","","","1-2","4387","39","1","Training","Stims/Figures/100-J-10-3.bmp","ma:la:na","Right","39","8","2","2","S","C","114"
"","","approach-retreat","118","1077849","0.0-118.0","","","1-2","3988","37","1","Training","Stims/Figures/93-J-0-1.bmp","ma:la:na","Left","37","8","3","2","S","C","115"
"","","approach-retreat","119","1083586","0.0-119.0","","","1-2","4198","38","1","Training","Stims/Figures/93-C-30-1.bmp","ta:ka:ka","Down","38","8","4","2","P","C","116"
"","","approach-retreat","120","1089609","0.0-120.0","","","1-2","4488","38","1","Training","Stims/Figures/57-J-0-1.bmp","ma:la:na","Up","38","8","5","2","S","C","117"
"","","approach-retreat","121","1095298","0.0-121.0","","","1-2","4151","37","1","Training","Stims/Figures/118-C-20-2.bmp","ta:ka:ka","Right","37","8","6","2","P","C","118"
"","","approach-retreat","122","1101057","0.0-122.0","","","1-2","4220","39","1","Training","Stims/Figures/111-J-10-3.bmp","ma:la:na","Right","39","8","7","2","S","C","119"
"","","approach-retreat","123","1106539","0.0-123.0","","","1-2","3943","39","1","Training","Stims/Figures/85-C-20-2.bmp","ta:ka:ka","Left","39","8","8","2","P","C","120"
"","","approach-retreat","124","1112578","0.0-124.0","","","1-2","4501","40","1","Training","Stims/Figures/19-J-10-4.bmp","ma:la:na","Down","40","8","9","2","S","C","121"
"","","approach-retreat","125","1118015","0.0-125.0","","","1-2","3900","38","1","Training","Stims/Figures/118-J-0-2.bmp","ma:la:na","Up","38","8","10","2","S","C","122"
"","","approach-retreat","126","1124039","0.0-126.0","","","1-2","4487","38","1","Training","Stims/Figures/74-J-10-4.bmp","ma:la:na","Up","38","8","11","2","S","C","123"
"","","approach-retreat","127","1130181","0.0-127.0","","","1-2","4605","40","1","Training","Stims/Figures/111-C-30-3.bmp","ta:ka:ka","Up","40","8","12","2","P","C","124"
"","","approach-retreat","128","1136073","0.0-128.0","","","1-2","4354","40","1","Training","Stims/Figures/85-J-0-2.bmp","ma:la:na","Down","40","8","13","2","S","C","125"
"","","approach-retreat","129","1142332","0.0-129.0","","","1-2","4721","37","1","Training","Stims/Figures/100-C-30-3.bmp","ta:ka:ka","Right","37","8","14","2","P","C","126"
"","","approach-retreat","130","1149957","0.0-130.0","","","1-2","6088","39","1","Training","Stims/Figures/57-C-30-1.bmp","ta:ka:ka","Left","39","8","15","2","P","C","127"
"","","approach-retreat","131","1156515","0.0-131.0","","","1-2","5020","38","1","Training","Stims/Figures/19-C-20-4.bmp","ta:ka:ka","Down","38","8","16","2","P","C","128"
"","","approach-retreat","132","1162703","0.0-132.0","","","1-2","4653","40","1","Training","Stims/Figures/118-J-0-2.bmp","ma:la:na","Down","40","9","1","2","S","C","129"
"","","approach-retreat","133","1168320","0.0-133.0","","","1-2","4084","40","1","Training","Stims/Figures/100-C-30-3.bmp","ta:ka:ka","Up","40","9","2","2","P","C","130"
"","","approach-retreat","134","1173840","0.0-134.0","","","1-2","3978","37","1","Training","Stims/Figures/85-C-20-2.bmp","ta:ka:ka","Right","37","9","3","2","P","C","131"
"","","approach-retreat","135","1179668","0.0-135.0","","","1-2","4291","38","1","Training","Stims/Figures/57-J-0-1.bmp","ma:la:na","Up","38","9","4","2","S","C","132"
"","","approach-retreat","136","1185543","0.0-136.0","","","1-2","4341","37","1","Training","Stims/Figures/74-C-20-4.bmp","ta:ka:ka","Right","37","9","5","2","P","C","133"
"","","approach-retreat","137","1191568","0.0-137.0","","","1-2","4486","40","1","Training","Stims/Figures/93-J-0-1.bmp","ma:la:na","Down","40","9","6","2","S","C","134"
"","","approach-retreat","138","1197065","0.0-138.0","","","1-2","3963","39","1","Training","Stims/Figures/118-C-20-2.bmp","ta:ka:ka","Left","39","9","7","2","P","C","135"
"","","approach-retreat","139","1202990","0.0-139.0","","","1-2","4388","39","1","Training","Stims/Figures/19-C-20-4.bmp","ta:ka:ka","Left","39","9","8","2","P","C","136"
"","","approach-retreat","140","1211367","0.0-140.0","","","1-2","6845","37","1","Training","Stims/Figures/74-J-10-4.bmp","ma:la:na","Left","37","9","9","2","S","C","137"
"","","approach-retreat","141","1217829","0.0-141.0","","","1-2","4924","39","1","Training","Stims/Figures/111-C-30-3.bmp","ta:ka:ka","Left","39","9","10","2","P","C","138"
"","","approach-retreat","142","1223728","0.0-142.0","","","1-2","4363","40","1","Training","Stims/Figures/57-C-30-1.bmp","ta:ka:ka","Up","40","9","11","2","P","C","139"
"","","approach-retreat","143","1229670","0.0-143.0","","","1-2","4406","37","1","Training","Stims/Figures/93-C-30-1.bmp","ta:ka:ka","Right","37","9","12","2","P","C","140"
"","","approach-retreat","144","1237622","0.0-144.0","","","1-2","6417","40","1","Training","Stims/Figures/111-J-10-3.bmp","ma:la:na","Down","40","9","13","2","S","C","141"
"","","approach-retreat","145","1243967","0.0-145.0","","","1-2","4807","39","1","Training","Stims/Figures/85-J-0-2.bmp","ma:la:na","Right","39","9","14","2","S","C","142"
"","","approach-retreat","146","1249979","0.0-146.0","","","1-2","4475","38","1","Training","Stims/Figures/100-J-10-3.bmp","ma:la:na","Up","38","9","15","2","S","C","143"
"","","approach-retreat","147","1256212","0.0-147.0","","","1-2","4696","40","1","Training","Stims/Figures/19-J-10-4.bmp","ma:la:na","Down","40","9","16","2","S","C","144"
"16332","","instructions","148","1272546","0.0-148.0","[{""page_index"":0,""viewing_time"":16330}]","","","","","","","","","","","","","","","",""
"","","approach-retreat","149","1285472","0.0-149.0","","","1-2","11399","40","1","Testing","Stims/Figures/27-C-30-1.bmp","ta:ka:ka","Up","40","1","1","2","P","C","1"
"","","approach-retreat","150","1291410","0.0-150.0","","","1-2","4410","40","1","Testing","Stims/Figures/27-J-0-1.bmp","ma:la:na","Down","40","1","2","2","S","C","2"
"","","approach-retreat","151","1297243","0.0-151.0","","","1-2","4304","38","1","Testing","Stims/Figures/85-J-0-2.bmp","ma:la:na","Up","38","1","3","2","S","C","3"
"","","approach-retreat","152","1303503","0.0-152.0","","","1-2","4729","39","0","Testing","Stims/Figures/118-C-20-2.bmp","ta:ka:ka","Right","37","1","4","2","P","C","4"
"","","approach-retreat","153","1313029","0.0-153.0","","","1-2","7999","38","0","Testing","Stims/Figures/74-J-10-4.bmp","ma:la:na","Down","40","1","5","2","S","C","5"
"","","approach-retreat","154","1318942","0.0-154.0","","","1-2","4385","37","1","Testing","Stims/Figures/85-C-20-2.bmp","ta:ka:ka","Right","37","1","6","2","P","C","6"
"","","approach-retreat","155","1326487","0.0-155.0","","","1-2","6012","37","1","Testing","Stims/Figures/57-J-0-1.bmp","ma:la:na","Left","37","1","7","2","S","C","7"
"","","approach-retreat","156","1332447","0.0-156.0","","","1-2","4432","38","0","Testing","Stims/Figures/128-J-10-3.bmp","ma:la:na","Down","40","1","8","2","S","C","8"
"","","approach-retreat","157","1338621","0.0-157.0","","","1-2","4646","37","1","Testing","Stims/Figures/94-J-0-2.bmp","ma:la:na","Left","37","1","9","2","S","C","9"
"","","approach-retreat","158","1345519","0.0-158.0","","","1-2","5366","40","0","Testing","Stims/Figures/19-J-10-4.bmp","ma:la:na","Up","38","1","10","2","S","C","10"
"","","approach-retreat","159","1354684","0.0-159.0","","","1-2","7634","40","1","Testing","Stims/Figures/100-J-10-3.bmp","ma:la:na","Down","40","1","11","2","S","C","11"
"","","approach-retreat","160","1363209","0.0-160.0","","","1-2","6994","40","1","Testing","Stims/Figures/74-C-20-4.bmp","ta:ka:ka","Up","40","1","12","2","P","C","12"
"","","approach-retreat","161","1370018","0.0-161.0","","","1-2","5278","39","1","Testing","Stims/Figures/100-C-30-3.bmp","ta:ka:ka","Left","39","1","13","2","P","C","13"
"","","approach-retreat","162","1377201","0.0-162.0","","","1-2","5654","40","1","Testing","Stims/Figures/111-J-10-3.bmp","ma:la:na","Down","40","1","14","2","S","C","14"
"","","approach-retreat","163","1385180","0.0-163.0","","","1-2","6449","39","1","Testing","Stims/Figures/7-J-10-4.bmp","ma:la:na","Right","39","1","15","2","S","C","15"
"","","approach-retreat","164","1391243","0.0-164.0","","","1-2","4533","39","1","Testing","Stims/Figures/128-C-30-3.bmp","ta:ka:ka","Left","39","1","16","2","P","C","16"
"","","approach-retreat","165","1398083","0.0-165.0","","","1-2","5305","37","1","Testing","Stims/Figures/57-C-30-1.bmp","ta:ka:ka","Right","37","1","17","2","P","C","17"
"","","approach-retreat","166","1404209","0.0-166.0","","","1-2","4598","37","1","Testing","Stims/Figures/19-C-20-4.bmp","ta:ka:ka","Right","37","1","18","2","P","C","18"
"","","approach-retreat","167","1410063","0.0-167.0","","","1-2","4311","39","1","Testing","Stims/Figures/111-C-30-3.bmp","ta:ka:ka","Left","39","1","19","2","P","C","19"
"","","approach-retreat","168","1416029","0.0-168.0","","","1-2","4440","37","1","Testing","Stims/Figures/93-C-30-1.bmp","ta:ka:ka","Right","37","1","20","2","P","C","20"
"","","approach-retreat","169","1421968","0.0-169.0","","","1-2","4409","40","1","Testing","Stims/Figures/7-C-20-4.bmp","ta:ka:ka","Up","40","1","21","2","P","C","21"
"","","approach-retreat","170","1428038","0.0-170.0","","","1-2","4540","38","0","Testing","Stims/Figures/93-J-0-1.bmp","ma:la:na","Down","40","1","22","2","S","C","22"
"","","approach-retreat","171","1435709","0.0-171.0","","","1-2","6144","40","1","Testing","Stims/Figures/94-C-20-2.bmp","ta:ka:ka","Up","40","1","23","2","P","C","23"
"","","approach-retreat","172","1441579","0.0-172.0","","","1-2","4341","37","1","Testing","Stims/Figures/118-J-0-2.bmp","ma:la:na","Left","37","1","24","2","S","C","24"
"","","approach-retreat","173","1448033","0.0-173.0","","","1-2","4926","40","1","Testing","Stims/Figures/85-J-0-2.bmp","ma:la:na","Down","40","2","1","2","S","C","25"
"","","approach-retreat","174","1456479","0.0-174.0","","","1-2","6913","39","0","Testing","Stims/Figures/128-J-10-3.bmp","ma:la:na","Left","37","2","2","2","S","C","26"
"","","approach-retreat","175","1463623","0.0-175.0","","","1-2","5615","38","1","Testing","Stims/Figures/7-C-20-4.bmp","ta:ka:ka","Down","38","2","3","2","P","C","27"
"","","approach-retreat","176","1470452","0.0-176.0","","","1-2","5302","40","1","Testing","Stims/Figures/57-J-0-1.bmp","ma:la:na","Down","40","2","4","2","S","C","28"
"","","approach-retreat","177","1479463","0.0-177.0","","","1-2","7480","40","0","Testing","Stims/Figures/74-C-20-4.bmp","ta:ka:ka","Down","38","2","5","2","P","C","29"
"","","approach-retreat","178","1485757","0.0-178.0","","","1-2","4767","39","1","Testing","Stims/Figures/93-C-30-1.bmp","ta:ka:ka","Left","39","2","6","2","P","C","30"
"","","approach-retreat","179","1492992","0.0-179.0","","","1-2","5705","37","1","Testing","Stims/Figures/128-C-30-3.bmp","ta:ka:ka","Right","37","2","7","2","P","C","31"
"","","approach-retreat","180","1499800","0.0-180.0","","","1-2","5278","37","1","Testing","Stims/Figures/118-J-0-2.bmp","ma:la:na","Left","37","2","8","2","S","C","32"
"","","approach-retreat","181","1506089","0.0-181.0","","","1-2","4761","40","0","Testing","Stims/Figures/19-J-10-4.bmp","ma:la:na","Up","38","2","9","2","S","C","33"
"","","approach-retreat","182","1511734","0.0-182.0","","","1-2","4113","38","1","Testing","Stims/Figures/118-C-20-2.bmp","ta:ka:ka","Down","38","2","10","2","P","C","34"
"","","approach-retreat","183","1517335","0.0-183.0","","","1-2","4073","40","0","Testing","Stims/Figures/7-J-10-4.bmp","ma:la:na","Up","38","2","11","2","S","C","35"
"","","approach-retreat","184","1522908","0.0-184.0","","","1-2","4043","39","1","Testing","Stims/Figures/27-J-0-1.bmp","ma:la:na","Right","39","2","12","2","S","C","36"
"","","approach-retreat","185","1528372","0.0-185.0","","","1-2","3935","38","1","Testing","Stims/Figures/93-J-0-1.bmp","ma:la:na","Up","38","2","13","2","S","C","37"
"","","approach-retreat","186","1533896","0.0-186.0","","","1-2","3996","39","1","Testing","Stims/Figures/111-J-10-3.bmp","ma:la:na","Right","39","2","14","2","S","C","38"
"","","approach-retreat","187","1539880","0.0-187.0","","","1-2","4453","39","1","Testing","Stims/Figures/57-C-30-1.bmp","ta:ka:ka","Left","39","2","15","2","P","C","39"
"","","approach-retreat","188","1546048","0.0-188.0","","","1-2","4636","37","1","Testing","Stims/Figures/27-C-30-1.bmp","ta:ka:ka","Right","37","2","16","2","P","C","40"
"","","approach-retreat","189","1551661","0.0-189.0","","","1-2","4083","39","1","Testing","Stims/Figures/94-C-20-2.bmp","ta:ka:ka","Left","39","2","17","2","P","C","41"
"","","approach-retreat","190","1557726","0.0-190.0","","","1-2","4535","40","1","Testing","Stims/Figures/111-C-30-3.bmp","ta:ka:ka","Up","40","2","18","2","P","C","42"
"","","approach-retreat","191","1563347","0.0-191.0","","","1-2","4093","37","1","Testing","Stims/Figures/19-C-20-4.bmp","ta:ka:ka","Right","37","2","19","2","P","C","43"
"","","approach-retreat","192","1568957","0.0-192.0","","","1-2","4080","39","0","Testing","Stims/Figures/94-J-0-2.bmp","ma:la:na","Left","37","2","20","2","S","C","44"
"","","approach-retreat","193","1574691","0.0-193.0","","","1-2","4207","40","1","Testing","Stims/Figures/85-C-20-2.bmp","ta:ka:ka","Up","40","2","21","2","P","C","45"
"","","approach-retreat","194","1580258","0.0-194.0","","","1-2","4039","37","1","Testing","Stims/Figures/100-C-30-3.bmp","ta:ka:ka","Right","37","2","22","2","P","C","46"
"","","approach-retreat","195","1587419","0.0-195.0","","","1-2","5630","38","1","Testing","Stims/Figures/100-J-10-3.bmp","ma:la:na","Up","38","2","23","2","S","C","47"
"","","approach-retreat","196","1595252","0.0-196.0","","","1-2","6302","40","1","Testing","Stims/Figures/74-J-10-4.bmp","ma:la:na","Down","40","2","24","2","S","C","48"
"","","approach-retreat","197","1600868","0.0-197.0","","","1-2","4088","40","1","Testing","Stims/Figures/85-J-0-2.bmp","ma:la:na","Down","40","3","1","2","S","C","49"
"","","approach-retreat","198","1606755","0.0-198.0","","","1-2","4357","37","1","Testing","Stims/Figures/85-C-20-2.bmp","ta:ka:ka","Right","37","3","2","2","P","C","50"
"","","approach-retreat","199","1612562","0.0-199.0","","","1-2","4280","38","1","Testing","Stims/Figures/100-C-30-3.bmp","ta:ka:ka","Down","38","3","3","2","P","C","51"
"","","approach-retreat","200","1618768","0.0-200.0","","","1-2","4677","38","1","Testing","Stims/Figures/100-J-10-3.bmp","ma:la:na","Up","38","3","4","2","S","C","52"
"","","approach-retreat","201","1624463","0.0-201.0","","","1-2","4168","37","1","Testing","Stims/Figures/94-J-0-2.bmp","ma:la:na","Left","37","3","5","2","S","C","53"
"","","approach-retreat","202","1629978","0.0-202.0","","","1-2","3989","37","1","Testing","Stims/Figures/128-J-10-3.bmp","ma:la:na","Left","37","3","6","2","S","C","54"
"","","approach-retreat","203","1635516","0.0-203.0","","","1-2","4009","39","1","Testing","Stims/Figures/118-C-20-2.bmp","ta:ka:ka","Left","39","3","7","2","P","C","55"
"","","approach-retreat","204","1641398","0.0-204.0","","","1-2","4351","39","1","Testing","Stims/Figures/111-J-10-3.bmp","ma:la:na","Right","39","3","8","2","S","C","56"
"","","approach-retreat","205","1647032","0.0-205.0","","","1-2","4107","40","1","Testing","Stims/Figures/111-C-30-3.bmp","ta:ka:ka","Up","40","3","9","2","P","C","57"
"","","approach-retreat","206","1653149","0.0-206.0","","","1-2","4590","40","1","Testing","Stims/Figures/7-C-20-4.bmp","ta:ka:ka","Up","40","3","10","2","P","C","58"
"","","approach-retreat","207","1658865","0.0-207.0","","","1-2","4187","37","1","Testing","Stims/Figures/74-J-10-4.bmp","ma:la:na","Left","37","3","11","2","S","C","59"
"","","approach-retreat","208","1664880","0.0-208.0","","","1-2","4488","40","1","Testing","Stims/Figures/94-C-20-2.bmp","ta:ka:ka","Up","40","3","12","2","P","C","60"
"","","approach-retreat","209","1670822","0.0-209.0","","","1-2","4413","39","1","Testing","Stims/Figures/128-C-30-3.bmp","ta:ka:ka","Left","39","3","13","2","P","C","61"
"","","approach-retreat","210","1676482","0.0-210.0","","","1-2","4129","40","1","Testing","Stims/Figures/93-J-0-1.bmp","ma:la:na","Down","40","3","14","2","S","C","62"
"","","approach-retreat","211","1681928","0.0-211.0","","","1-2","3915","38","1","Testing","Stims/Figures/27-J-0-1.bmp","ma:la:na","Up","38","3","15","2","S","C","63"
"","","approach-retreat","212","1687899","0.0-212.0","","","1-2","4443","39","1","Testing","Stims/Figures/118-J-0-2.bmp","ma:la:na","Right","39","3","16","2","S","C","64"
"","","approach-retreat","213","1693767","0.0-213.0","","","1-2","4337","39","0","Testing","Stims/Figures/19-J-10-4.bmp","ma:la:na","Left","37","3","17","2","S","C","65"
"","","approach-retreat","214","1700168","0.0-214.0","","","1-2","4871","38","1","Testing","Stims/Figures/93-C-30-1.bmp","ta:ka:ka","Down","38","3","18","2","P","C","66"
"","","approach-retreat","215","1706084","0.0-215.0","","","1-2","4385","38","1","Testing","Stims/Figures/74-C-20-4.bmp","ta:ka:ka","Down","38","3","19","2","P","C","67"
"","","approach-retreat","216","1712053","0.0-216.0","","","1-2","4443","38","1","Testing","Stims/Figures/27-C-30-1.bmp","ta:ka:ka","Down","38","3","20","2","P","C","68"
"","","approach-retreat","217","1717715","0.0-217.0","","","1-2","4135","40","1","Testing","Stims/Figures/19-C-20-4.bmp","ta:ka:ka","Up","40","3","21","2","P","C","69"
"","","approach-retreat","218","1723219","0.0-218.0","","","1-2","3975","39","1","Testing","Stims/Figures/57-J-0-1.bmp","ma:la:na","Right","39","3","22","2","S","C","70"
"","","approach-retreat","219","1732480","0.0-219.0","","","1-2","7733","39","1","Testing","Stims/Figures/7-J-10-4.bmp","ma:la:na","Right","39","3","23","2","S","C","71"
"","","approach-retreat","220","1738140","0.0-220.0","","","1-2","4132","37","1","Testing","Stims/Figures/57-C-30-1.bmp","ta:ka:ka","Right","37","3","24","2","P","C","72"
"","","approach-retreat","221","1743811","0.0-221.0","","","1-2","4149","40","1","Testing","Stims/Figures/100-C-30-3.bmp","ta:ka:ka","Up","40","4","1","2","P","C","73"
"","","approach-retreat","222","1749240","0.0-222.0","","","1-2","3898","37","1","Testing","Stims/Figures/118-J-0-2.bmp","ma:la:na","Left","37","4","2","2","S","C","74"
"","","approach-retreat","223","1754841","0.0-223.0","","","1-2","4072","39","1","Testing","Stims/Figures/74-J-10-4.bmp","ma:la:na","Right","39","4","3","2","S","C","75"
"","","approach-retreat","224","1760422","0.0-224.0","","","1-2","4050","38","1","Testing","Stims/Figures/85-J-0-2.bmp","ma:la:na","Up","38","4","4","2","S","C","76"
"","","approach-retreat","225","1771247","0.0-225.0","","","1-2","9295","38","0","Testing","Stims/Figures/19-J-10-4.bmp","ma:la:na","Down","40","4","5","2","S","C","77"
"","","approach-retreat","226","1776887","0.0-226.0","","","1-2","4108","38","1","Testing","Stims/Figures/93-J-0-1.bmp","ma:la:na","Up","38","4","6","2","S","C","78"
"","","approach-retreat","227","1782377","0.0-227.0","","","1-2","3959","38","1","Testing","Stims/Figures/111-J-10-3.bmp","ma:la:na","Up","38","4","7","2","S","C","79"
"","","approach-retreat","228","1789410","0.0-228.0","","","1-2","5505","38","1","Testing","Stims/Figures/7-J-10-4.bmp","ma:la:na","Up","38","4","8","2","S","C","80"
"","","approach-retreat","229","1797623","0.0-229.0","","","1-2","6684","38","1","Testing","Stims/Figures/85-C-20-2.bmp","ta:ka:ka","Down","38","4","9","2","P","C","81"
"","","approach-retreat","230","1804017","0.0-230.0","","","1-2","4866","37","1","Testing","Stims/Figures/7-C-20-4.bmp","ta:ka:ka","Right","37","4","10","2","P","C","82"
"","","approach-retreat","231","1810738","0.0-231.0","","","1-2","5195","39","1","Testing","Stims/Figures/57-J-0-1.bmp","ma:la:na","Right","39","4","11","2","S","C","83"
"","","approach-retreat","232","1817314","0.0-232.0","","","1-2","5046","39","1","Testing","Stims/Figures/93-C-30-1.bmp","ta:ka:ka","Left","39","4","12","2","P","C","84"
"","","approach-retreat","233","1825878","0.0-233.0","","","1-2","7038","37","1","Testing","Stims/Figures/111-C-30-3.bmp","ta:ka:ka","Right","37","4","13","2","P","C","85"
"","","approach-retreat","234","1834622","0.0-234.0","","","1-2","7213","37","1","Testing","Stims/Figures/100-J-10-3.bmp","ma:la:na","Left","37","4","14","2","S","C","86"
"","","approach-retreat","235","1841415","0.0-235.0","","","1-2","5266","40","1","Testing","Stims/Figures/27-J-0-1.bmp","ma:la:na","Down","40","4","15","2","S","C","87"
"","","approach-retreat","236","1849790","0.0-236.0","","","1-2","6848","38","1","Testing","Stims/Figures/128-C-30-3.bmp","ta:ka:ka","Down","38","4","16","2","P","C","88"
"","","approach-retreat","237","1855961","0.0-237.0","","","1-2","4642","38","1","Testing","Stims/Figures/19-C-20-4.bmp","ta:ka:ka","Down","38","4","17","2","P","C","89"
"","","approach-retreat","238","1862191","0.0-238.0","","","1-2","4702","37","1","Testing","Stims/Figures/74-C-20-4.bmp","ta:ka:ka","Right","37","4","18","2","P","C","90"
"","","approach-retreat","239","1867700","0.0-239.0","","","1-2","3978","37","1","Testing","Stims/Figures/57-C-30-1.bmp","ta:ka:ka","Right","37","4","19","2","P","C","91"
"","","approach-retreat","240","1873232","0.0-240.0","","","1-2","4005","39","1","Testing","Stims/Figures/94-C-20-2.bmp","ta:ka:ka","Left","39","4","20","2","P","C","92"
"","","approach-retreat","241","1878742","0.0-241.0","","","1-2","3981","38","1","Testing","Stims/Figures/128-J-10-3.bmp","ma:la:na","Up","38","4","21","2","S","C","93"
"","","approach-retreat","242","1884255","0.0-242.0","","","1-2","3983","37","1","Testing","Stims/Figures/94-J-0-2.bmp","ma:la:na","Left","37","4","22","2","S","C","94"
"","","approach-retreat","243","1889701","0.0-243.0","","","1-2","3918","39","1","Testing","Stims/Figures/27-C-30-1.bmp","ta:ka:ka","Left","39","4","23","2","P","C","95"
"","","approach-retreat","244","1895997","0.0-244.0","","","1-2","4766","38","1","Testing","Stims/Figures/118-C-20-2.bmp","ta:ka:ka","Down","38","4","24","2","P","C","96"
"144885","","survey-text","245","2040901","0.0-245.0","","{""Q0"":""PS180066""}","","","","","","","","","","","","","","",""
