\"rt\",\"key_press\",\"trial_type\",\"trial_index\",\"time_elapsed\",\"internal_node_id\",\"view_history\",\"responses\",\"Id\",\"Rt\",\"ResKeyCode\",\"ResCorr\",\"TrialType2\",\"Image\",\"Label\",\"Location\",\"CorrectResponse\",\"Block\",\"BlockTrial\",\"Condition\",\"LabelType\",\"Subcondition\",\"trialNum\"
\"29260\",\"32\",\"text\",\"0\",\"29268\",\"0.0-0.0-0.0\",\"\",\"\",\"\",\"\",\"\",\"\",\"\",\"\",\"\",\"\",\"\",\"\",\"\",\"\",\"\",\"\",\"\"
\"82411\",\"\",\"instructions\",\"1\",\"111683\",\"0.0-1.0\",\"[{\"\"page_index\"\":0,\"\"viewing_time\"\":82410}]\",\"\",\"\",\"\",\"\",\"\",\"\",\"\",\"\",\"\",\"\",\"\",\"\",\"\",\"\",\"\",\"\"
\"39871\",\"\",\"survey-multi-choice\",\"2\",\"151602\",\"0.0-2.0\",\"\",\"{\"\"Q0\"\":\"\"Da\"\",\"\"Q1\"\":\"\"Da\"\",\"\"Q2\"\":\"\"Da\"\",\"\"Q3\"\":\"\"Da\"\",\"\"Q4\"\":\"\"Da\"\",\"\"Q5\"\":\"\"Da\"\"}\",\"\",\"\",\"\",\"\",\"\",\"\",\"\",\"\",\"\",\"\",\"\",\"\",\"\",\"\",\"\"
\"\",\"\",\"bio\",\"3\",\"160694\",\"0.0-3.0\",\"\",\"{\"\"age\"\":\"\"21\"\",\"\"gender\"\":\"\"f\"\",\"\"specify\"\":\"\"\"\"}\",\"\",\"\",\"\",\"\",\"\",\"\",\"\",\"\",\"\",\"\",\"\",\"\",\"\",\"\",\"\"
\"\",\"\",\"approach-retreat\",\"4\",\"168762\",\"0.0-4.0\",\"\",\"\",\"2-5\",\"6551\",\"39\",\"0\",\"Training\",\"Stims/Figures/85-J-0-2.bmp\",\"mamala\",\"Left\",\"37\",\"1\",\"1\",\"2\",\"S\",\"C\",\"1\"
\"\",\"\",\"approach-retreat\",\"5\",\"175819\",\"0.0-5.0\",\"\",\"\",\"2-5\",\"5546\",\"39\",\"0\",\"Training\",\"Stims/Figures/85-C-20-2.bmp\",\"pakata\",\"Right\",\"37\",\"1\",\"2\",\"2\",\"P\",\"C\",\"2\"
\"\",\"\",\"approach-retreat\",\"6\",\"182461\",\"0.0-6.0\",\"\",\"\",\"2-5\",\"5131\",\"40\",\"1\",\"Training\",\"Stims/Figures/144-J-10-3.bmp\",\"mamala\",\"Down\",\"40\",\"1\",\"3\",\"2\",\"S\",\"C\",\"3\"
\"\",\"\",\"approach-retreat\",\"7\",\"188799\",\"0.0-7.0\",\"\",\"\",\"2-5\",\"4827\",\"38\",\"1\",\"Training\",\"Stims/Figures/74-C-20-4.bmp\",\"pakata\",\"Down\",\"38\",\"1\",\"4\",\"2\",\"P\",\"C\",\"4\"
\"\",\"\",\"approach-retreat\",\"8\",\"196285\",\"0.0-8.0\",\"\",\"\",\"2-5\",\"5976\",\"40\",\"1\",\"Training\",\"Stims/Figures/27-C-30-1.bmp\",\"pakata\",\"Up\",\"40\",\"1\",\"5\",\"2\",\"P\",\"C\",\"5\"
\"\",\"\",\"approach-retreat\",\"9\",\"202674\",\"0.0-9.0\",\"\",\"\",\"2-5\",\"4877\",\"40\",\"1\",\"Training\",\"Stims/Figures/74-J-10-4.bmp\",\"mamala\",\"Down\",\"40\",\"1\",\"6\",\"2\",\"S\",\"C\",\"6\"
\"\",\"\",\"approach-retreat\",\"10\",\"208539\",\"0.0-10.0\",\"\",\"\",\"2-5\",\"4353\",\"39\",\"1\",\"Training\",\"Stims/Figures/57-J-0-1.bmp\",\"mamala\",\"Right\",\"39\",\"1\",\"7\",\"2\",\"S\",\"C\",\"7\"
\"\",\"\",\"approach-retreat\",\"11\",\"214130\",\"0.0-11.0\",\"\",\"\",\"2-5\",\"4079\",\"39\",\"1\",\"Training\",\"Stims/Figures/84-J-0-2.bmp\",\"mamala\",\"Right\",\"39\",\"1\",\"8\",\"2\",\"S\",\"C\",\"8\"
\"\",\"\",\"approach-retreat\",\"12\",\"220418\",\"0.0-12.0\",\"\",\"\",\"2-5\",\"4776\",\"40\",\"1\",\"Training\",\"Stims/Figures/84-C-20-2.bmp\",\"pakata\",\"Up\",\"40\",\"1\",\"9\",\"2\",\"P\",\"C\",\"9\"
\"\",\"\",\"approach-retreat\",\"13\",\"226820\",\"0.0-13.0\",\"\",\"\",\"2-5\",\"4891\",\"37\",\"1\",\"Training\",\"Stims/Figures/57-C-30-1.bmp\",\"pakata\",\"Right\",\"37\",\"1\",\"10\",\"2\",\"P\",\"C\",\"10\"
\"\",\"\",\"approach-retreat\",\"14\",\"232845\",\"0.0-14.0\",\"\",\"\",\"2-5\",\"4514\",\"37\",\"1\",\"Training\",\"Stims/Figures/102-J-10-4.bmp\",\"mamala\",\"Left\",\"37\",\"1\",\"11\",\"2\",\"S\",\"C\",\"11\"
\"\",\"\",\"approach-retreat\",\"15\",\"238970\",\"0.0-15.0\",\"\",\"\",\"2-5\",\"4613\",\"37\",\"1\",\"Training\",\"Stims/Figures/128-J-10-3.bmp\",\"mamala\",\"Left\",\"37\",\"1\",\"12\",\"2\",\"S\",\"C\",\"12\"
\"\",\"\",\"approach-retreat\",\"16\",\"244856\",\"0.0-16.0\",\"\",\"\",\"2-5\",\"4375\",\"38\",\"1\",\"Training\",\"Stims/Figures/102-C-20-4.bmp\",\"pakata\",\"Down\",\"38\",\"1\",\"13\",\"2\",\"P\",\"C\",\"13\"
\"\",\"\",\"approach-retreat\",\"17\",\"252606\",\"0.0-17.0\",\"\",\"\",\"2-5\",\"6239\",\"38\",\"1\",\"Training\",\"Stims/Figures/27-J-0-1.bmp\",\"mamala\",\"Up\",\"38\",\"1\",\"14\",\"2\",\"S\",\"C\",\"14\"
\"\",\"\",\"approach-retreat\",\"18\",\"258947\",\"0.0-18.0\",\"\",\"\",\"2-5\",\"4830\",\"40\",\"1\",\"Training\",\"Stims/Figures/144-C-30-3.bmp\",\"pakata\",\"Up\",\"40\",\"1\",\"15\",\"2\",\"P\",\"C\",\"15\"
\"\",\"\",\"approach-retreat\",\"19\",\"266209\",\"0.0-19.0\",\"\",\"\",\"2-5\",\"5752\",\"39\",\"1\",\"Training\",\"Stims/Figures/128-C-30-3.bmp\",\"pakata\",\"Left\",\"39\",\"1\",\"16\",\"2\",\"P\",\"C\",\"16\"
\"\",\"\",\"approach-retreat\",\"20\",\"272272\",\"0.0-20.0\",\"\",\"\",\"2-5\",\"4551\",\"38\",\"1\",\"Training\",\"Stims/Figures/85-C-20-2.bmp\",\"pakata\",\"Down\",\"38\",\"2\",\"1\",\"2\",\"P\",\"C\",\"17\"
\"\",\"\",\"approach-retreat\",\"21\",\"278683\",\"0.0-21.0\",\"\",\"\",\"2-5\",\"4901\",\"40\",\"0\",\"Training\",\"Stims/Figures/128-J-10-3.bmp\",\"mamala\",\"Up\",\"38\",\"2\",\"2\",\"2\",\"S\",\"C\",\"18\"
\"\",\"\",\"approach-retreat\",\"22\",\"285010\",\"0.0-22.0\",\"\",\"\",\"2-5\",\"4816\",\"40\",\"1\",\"Training\",\"Stims/Figures/74-C-20-4.bmp\",\"pakata\",\"Up\",\"40\",\"2\",\"3\",\"2\",\"P\",\"C\",\"19\"
\"\",\"\",\"approach-retreat\",\"23\",\"291910\",\"0.0-23.0\",\"\",\"\",\"2-5\",\"5388\",\"37\",\"1\",\"Training\",\"Stims/Figures/27-J-0-1.bmp\",\"mamala\",\"Left\",\"37\",\"2\",\"4\",\"2\",\"S\",\"C\",\"20\"
\"\",\"\",\"approach-retreat\",\"24\",\"297687\",\"0.0-24.0\",\"\",\"\",\"2-5\",\"4267\",\"39\",\"1\",\"Training\",\"Stims/Figures/57-J-0-1.bmp\",\"mamala\",\"Right\",\"39\",\"2\",\"5\",\"2\",\"S\",\"C\",\"21\"
\"\",\"\",\"approach-retreat\",\"25\",\"303837\",\"0.0-25.0\",\"\",\"\",\"2-5\",\"4639\",\"37\",\"1\",\"Training\",\"Stims/Figures/74-J-10-4.bmp\",\"mamala\",\"Left\",\"37\",\"2\",\"6\",\"2\",\"S\",\"C\",\"22\"
\"\",\"\",\"approach-retreat\",\"26\",\"310091\",\"0.0-26.0\",\"\",\"\",\"2-5\",\"4748\",\"38\",\"1\",\"Training\",\"Stims/Figures/85-J-0-2.bmp\",\"mamala\",\"Up\",\"38\",\"2\",\"7\",\"2\",\"S\",\"C\",\"23\"
\"\",\"\",\"approach-retreat\",\"27\",\"315912\",\"0.0-27.0\",\"\",\"\",\"2-5\",\"4310\",\"38\",\"1\",\"Training\",\"Stims/Figures/27-C-30-1.bmp\",\"pakata\",\"Down\",\"38\",\"2\",\"8\",\"2\",\"P\",\"C\",\"24\"
\"\",\"\",\"approach-retreat\",\"28\",\"321684\",\"0.0-28.0\",\"\",\"\",\"2-5\",\"4261\",\"38\",\"1\",\"Training\",\"Stims/Figures/128-C-30-3.bmp\",\"pakata\",\"Down\",\"38\",\"2\",\"9\",\"2\",\"P\",\"C\",\"25\"
\"\",\"\",\"approach-retreat\",\"29\",\"328140\",\"0.0-29.0\",\"\",\"\",\"2-5\",\"4945\",\"37\",\"1\",\"Training\",\"Stims/Figures/84-J-0-2.bmp\",\"mamala\",\"Left\",\"37\",\"2\",\"10\",\"2\",\"S\",\"C\",\"26\"
\"\",\"\",\"approach-retreat\",\"30\",\"334437\",\"0.0-30.0\",\"\",\"\",\"2-5\",\"4784\",\"40\",\"1\",\"Training\",\"Stims/Figures/144-C-30-3.bmp\",\"pakata\",\"Up\",\"40\",\"2\",\"11\",\"2\",\"P\",\"C\",\"27\"
\"\",\"\",\"approach-retreat\",\"31\",\"340825\",\"0.0-31.0\",\"\",\"\",\"2-5\",\"4877\",\"39\",\"1\",\"Training\",\"Stims/Figures/144-J-10-3.bmp\",\"mamala\",\"Right\",\"39\",\"2\",\"12\",\"2\",\"S\",\"C\",\"28\"
\"\",\"\",\"approach-retreat\",\"32\",\"346811\",\"0.0-32.0\",\"\",\"\",\"2-5\",\"4474\",\"39\",\"1\",\"Training\",\"Stims/Figures/102-J-10-4.bmp\",\"mamala\",\"Right\",\"39\",\"2\",\"13\",\"2\",\"S\",\"C\",\"29\"
\"\",\"\",\"approach-retreat\",\"33\",\"352663\",\"0.0-33.0\",\"\",\"\",\"2-5\",\"4340\",\"37\",\"1\",\"Training\",\"Stims/Figures/102-C-20-4.bmp\",\"pakata\",\"Right\",\"37\",\"2\",\"14\",\"2\",\"P\",\"C\",\"30\"
\"\",\"\",\"approach-retreat\",\"34\",\"359208\",\"0.0-34.0\",\"\",\"\",\"2-5\",\"5036\",\"39\",\"1\",\"Training\",\"Stims/Figures/57-C-30-1.bmp\",\"pakata\",\"Left\",\"39\",\"2\",\"15\",\"2\",\"P\",\"C\",\"31\"
\"\",\"\",\"approach-retreat\",\"35\",\"365596\",\"0.0-35.0\",\"\",\"\",\"2-5\",\"4876\",\"38\",\"1\",\"Training\",\"Stims/Figures/84-C-20-2.bmp\",\"pakata\",\"Down\",\"38\",\"2\",\"16\",\"2\",\"P\",\"C\",\"32\"
\"\",\"\",\"approach-retreat\",\"36\",\"371423\",\"0.0-36.0\",\"\",\"\",\"2-5\",\"4317\",\"39\",\"1\",\"Training\",\"Stims/Figures/57-C-30-1.bmp\",\"pakata\",\"Left\",\"39\",\"3\",\"1\",\"2\",\"P\",\"C\",\"33\"
\"\",\"\",\"approach-retreat\",\"37\",\"377205\",\"0.0-37.0\",\"\",\"\",\"2-5\",\"4270\",\"39\",\"1\",\"Training\",\"Stims/Figures/102-C-20-4.bmp\",\"pakata\",\"Left\",\"39\",\"3\",\"2\",\"2\",\"P\",\"C\",\"34\"
\"\",\"\",\"approach-retreat\",\"38\",\"383052\",\"0.0-38.0\",\"\",\"\",\"2-5\",\"4333\",\"38\",\"1\",\"Training\",\"Stims/Figures/27-C-30-1.bmp\",\"pakata\",\"Down\",\"38\",\"3\",\"3\",\"2\",\"P\",\"C\",\"35\"
\"\",\"\",\"approach-retreat\",\"39\",\"389474\",\"0.0-39.0\",\"\",\"\",\"2-5\",\"4909\",\"38\",\"1\",\"Training\",\"Stims/Figures/85-J-0-2.bmp\",\"mamala\",\"Up\",\"38\",\"3\",\"4\",\"2\",\"S\",\"C\",\"36\"
\"\",\"\",\"approach-retreat\",\"40\",\"395479\",\"0.0-40.0\",\"\",\"\",\"2-5\",\"4494\",\"39\",\"1\",\"Training\",\"Stims/Figures/102-J-10-4.bmp\",\"mamala\",\"Right\",\"39\",\"3\",\"5\",\"2\",\"S\",\"C\",\"37\"
\"\",\"\",\"approach-retreat\",\"41\",\"401365\",\"0.0-41.0\",\"\",\"\",\"2-5\",\"4376\",\"40\",\"1\",\"Training\",\"Stims/Figures/84-C-20-2.bmp\",\"pakata\",\"Up\",\"40\",\"3\",\"6\",\"2\",\"P\",\"C\",\"38\"
\"\",\"\",\"approach-retreat\",\"42\",\"407073\",\"0.0-42.0\",\"\",\"\",\"2-5\",\"4195\",\"39\",\"0\",\"Training\",\"Stims/Figures/85-C-20-2.bmp\",\"pakata\",\"Right\",\"37\",\"3\",\"7\",\"2\",\"P\",\"C\",\"39\"
\"\",\"\",\"approach-retreat\",\"43\",\"413882\",\"0.0-43.0\",\"\",\"\",\"2-5\",\"5299\",\"38\",\"1\",\"Training\",\"Stims/Figures/128-J-10-3.bmp\",\"mamala\",\"Up\",\"38\",\"3\",\"8\",\"2\",\"S\",\"C\",\"40\"
\"\",\"\",\"approach-retreat\",\"44\",\"420600\",\"0.0-44.0\",\"\",\"\",\"2-5\",\"5207\",\"37\",\"1\",\"Training\",\"Stims/Figures/27-J-0-1.bmp\",\"mamala\",\"Left\",\"37\",\"3\",\"9\",\"2\",\"S\",\"C\",\"41\"
\"\",\"\",\"approach-retreat\",\"45\",\"426256\",\"0.0-45.0\",\"\",\"\",\"2-5\",\"4144\",\"39\",\"1\",\"Training\",\"Stims/Figures/144-J-10-3.bmp\",\"mamala\",\"Right\",\"39\",\"3\",\"10\",\"2\",\"S\",\"C\",\"42\"
\"\",\"\",\"approach-retreat\",\"46\",\"432084\",\"0.0-46.0\",\"\",\"\",\"2-5\",\"4317\",\"39\",\"1\",\"Training\",\"Stims/Figures/74-J-10-4.bmp\",\"mamala\",\"Right\",\"39\",\"3\",\"11\",\"2\",\"S\",\"C\",\"43\"
\"\",\"\",\"approach-retreat\",\"47\",\"437911\",\"0.0-47.0\",\"\",\"\",\"2-5\",\"4317\",\"38\",\"1\",\"Training\",\"Stims/Figures/57-J-0-1.bmp\",\"mamala\",\"Up\",\"38\",\"3\",\"12\",\"2\",\"S\",\"C\",\"44\"
\"\",\"\",\"approach-retreat\",\"48\",\"444005\",\"0.0-48.0\",\"\",\"\",\"2-5\",\"4584\",\"38\",\"1\",\"Training\",\"Stims/Figures/74-C-20-4.bmp\",\"pakata\",\"Down\",\"38\",\"3\",\"13\",\"2\",\"P\",\"C\",\"45\"
\"\",\"\",\"approach-retreat\",\"49\",\"450170\",\"0.0-49.0\",\"\",\"\",\"2-5\",\"4653\",\"39\",\"1\",\"Training\",\"Stims/Figures/144-C-30-3.bmp\",\"pakata\",\"Left\",\"39\",\"3\",\"14\",\"2\",\"P\",\"C\",\"46\"
\"\",\"\",\"approach-retreat\",\"50\",\"456631\",\"0.0-50.0\",\"\",\"\",\"2-5\",\"4950\",\"38\",\"1\",\"Training\",\"Stims/Figures/128-C-30-3.bmp\",\"pakata\",\"Down\",\"38\",\"3\",\"15\",\"2\",\"P\",\"C\",\"47\"
\"\",\"\",\"approach-retreat\",\"51\",\"463373\",\"0.0-51.0\",\"\",\"\",\"2-5\",\"5232\",\"40\",\"1\",\"Training\",\"Stims/Figures/84-J-0-2.bmp\",\"mamala\",\"Down\",\"40\",\"3\",\"16\",\"2\",\"S\",\"C\",\"48\"
\"\",\"\",\"approach-retreat\",\"52\",\"469286\",\"0.0-52.0\",\"\",\"\",\"2-5\",\"4403\",\"37\",\"1\",\"Training\",\"Stims/Figures/144-J-10-3.bmp\",\"mamala\",\"Left\",\"37\",\"4\",\"1\",\"2\",\"S\",\"C\",\"49\"
\"\",\"\",\"approach-retreat\",\"53\",\"475467\",\"0.0-53.0\",\"\",\"\",\"2-5\",\"4670\",\"40\",\"1\",\"Training\",\"Stims/Figures/128-J-10-3.bmp\",\"mamala\",\"Down\",\"40\",\"4\",\"2\",\"2\",\"S\",\"C\",\"50\"
\"\",\"\",\"approach-retreat\",\"54\",\"481654\",\"0.0-54.0\",\"\",\"\",\"2-5\",\"4677\",\"40\",\"1\",\"Training\",\"Stims/Figures/74-J-10-4.bmp\",\"mamala\",\"Down\",\"40\",\"4\",\"3\",\"2\",\"S\",\"C\",\"51\"
\"\",\"\",\"approach-retreat\",\"55\",\"488185\",\"0.0-55.0\",\"\",\"\",\"2-5\",\"5016\",\"40\",\"1\",\"Training\",\"Stims/Figures/102-C-20-4.bmp\",\"pakata\",\"Up\",\"40\",\"4\",\"4\",\"2\",\"P\",\"C\",\"52\"
\"\",\"\",\"approach-retreat\",\"56\",\"494555\",\"0.0-56.0\",\"\",\"\",\"2-5\",\"4857\",\"38\",\"1\",\"Training\",\"Stims/Figures/84-J-0-2.bmp\",\"mamala\",\"Up\",\"38\",\"4\",\"5\",\"2\",\"S\",\"C\",\"53\"
\"\",\"\",\"approach-retreat\",\"57\",\"500854\",\"0.0-57.0\",\"\",\"\",\"2-5\",\"4790\",\"39\",\"1\",\"Training\",\"Stims/Figures/84-C-20-2.bmp\",\"pakata\",\"Left\",\"39\",\"4\",\"6\",\"2\",\"P\",\"C\",\"54\"
\"\",\"\",\"approach-retreat\",\"58\",\"507297\",\"0.0-58.0\",\"\",\"\",\"2-5\",\"4929\",\"39\",\"1\",\"Training\",\"Stims/Figures/85-C-20-2.bmp\",\"pakata\",\"Left\",\"39\",\"4\",\"7\",\"2\",\"P\",\"C\",\"55\"
\"\",\"\",\"approach-retreat\",\"59\",\"513139\",\"0.0-59.0\",\"\",\"\",\"2-5\",\"4332\",\"37\",\"1\",\"Training\",\"Stims/Figures/85-J-0-2.bmp\",\"mamala\",\"Left\",\"37\",\"4\",\"8\",\"2\",\"S\",\"C\",\"56\"
\"\",\"\",\"approach-retreat\",\"60\",\"519491\",\"0.0-60.0\",\"\",\"\",\"2-5\",\"4845\",\"37\",\"1\",\"Training\",\"Stims/Figures/128-C-30-3.bmp\",\"pakata\",\"Right\",\"37\",\"4\",\"9\",\"2\",\"P\",\"C\",\"57\"
\"\",\"\",\"approach-retreat\",\"61\",\"525057\",\"0.0-61.0\",\"\",\"\",\"2-5\",\"4056\",\"38\",\"1\",\"Training\",\"Stims/Figures/57-J-0-1.bmp\",\"mamala\",\"Up\",\"38\",\"4\",\"10\",\"2\",\"S\",\"C\",\"58\"
\"\",\"\",\"approach-retreat\",\"62\",\"531519\",\"0.0-62.0\",\"\",\"\",\"2-5\",\"4951\",\"38\",\"1\",\"Training\",\"Stims/Figures/27-C-30-1.bmp\",\"pakata\",\"Down\",\"38\",\"4\",\"11\",\"2\",\"P\",\"C\",\"59\"
\"\",\"\",\"approach-retreat\",\"63\",\"537842\",\"0.0-63.0\",\"\",\"\",\"2-5\",\"4812\",\"40\",\"1\",\"Training\",\"Stims/Figures/27-J-0-1.bmp\",\"mamala\",\"Down\",\"40\",\"4\",\"12\",\"2\",\"S\",\"C\",\"60\"
\"\",\"\",\"approach-retreat\",\"64\",\"544109\",\"0.0-64.0\",\"\",\"\",\"2-5\",\"4757\",\"40\",\"1\",\"Training\",\"Stims/Figures/74-C-20-4.bmp\",\"pakata\",\"Up\",\"40\",\"4\",\"13\",\"2\",\"P\",\"C\",\"61\"
\"\",\"\",\"approach-retreat\",\"65\",\"550168\",\"0.0-65.0\",\"\",\"\",\"2-5\",\"4548\",\"37\",\"1\",\"Training\",\"Stims/Figures/57-C-30-1.bmp\",\"pakata\",\"Right\",\"37\",\"4\",\"14\",\"2\",\"P\",\"C\",\"62\"
\"\",\"\",\"approach-retreat\",\"66\",\"556205\",\"0.0-66.0\",\"\",\"\",\"2-5\",\"4527\",\"39\",\"1\",\"Training\",\"Stims/Figures/102-J-10-4.bmp\",\"mamala\",\"Right\",\"39\",\"4\",\"15\",\"2\",\"S\",\"C\",\"63\"
\"\",\"\",\"approach-retreat\",\"67\",\"562364\",\"0.0-67.0\",\"\",\"\",\"2-5\",\"4650\",\"37\",\"1\",\"Training\",\"Stims/Figures/144-C-30-3.bmp\",\"pakata\",\"Right\",\"37\",\"4\",\"16\",\"2\",\"P\",\"C\",\"64\"
\"\",\"\",\"approach-retreat\",\"68\",\"568757\",\"0.0-68.0\",\"\",\"\",\"2-5\",\"4882\",\"39\",\"1\",\"Training\",\"Stims/Figures/128-C-30-3.bmp\",\"pakata\",\"Left\",\"39\",\"5\",\"1\",\"2\",\"P\",\"C\",\"65\"
\"\",\"\",\"approach-retreat\",\"69\",\"574862\",\"0.0-69.0\",\"\",\"\",\"2-5\",\"4594\",\"39\",\"1\",\"Training\",\"Stims/Figures/57-J-0-1.bmp\",\"mamala\",\"Right\",\"39\",\"5\",\"2\",\"2\",\"S\",\"C\",\"66\"
\"\",\"\",\"approach-retreat\",\"70\",\"580785\",\"0.0-70.0\",\"\",\"\",\"2-5\",\"4410\",\"40\",\"1\",\"Training\",\"Stims/Figures/84-C-20-2.bmp\",\"pakata\",\"Up\",\"40\",\"5\",\"3\",\"2\",\"P\",\"C\",\"67\"
\"\",\"\",\"approach-retreat\",\"71\",\"586190\",\"0.0-71.0\",\"\",\"\",\"2-5\",\"3895\",\"38\",\"0\",\"Training\",\"Stims/Figures/128-J-10-3.bmp\",\"mamala\",\"Down\",\"40\",\"5\",\"4\",\"2\",\"S\",\"C\",\"68\"
\"\",\"\",\"approach-retreat\",\"72\",\"592202\",\"0.0-72.0\",\"\",\"\",\"2-5\",\"4500\",\"39\",\"1\",\"Training\",\"Stims/Figures/74-J-10-4.bmp\",\"mamala\",\"Right\",\"39\",\"5\",\"5\",\"2\",\"S\",\"C\",\"69\"
\"\",\"\",\"approach-retreat\",\"73\",\"598573\",\"0.0-73.0\",\"\",\"\",\"2-5\",\"4861\",\"38\",\"1\",\"Training\",\"Stims/Figures/84-J-0-2.bmp\",\"mamala\",\"Up\",\"38\",\"5\",\"6\",\"2\",\"S\",\"C\",\"70\"
\"\",\"\",\"approach-retreat\",\"74\",\"604385\",\"0.0-74.0\",\"\",\"\",\"2-5\",\"4302\",\"40\",\"1\",\"Training\",\"Stims/Figures/144-J-10-3.bmp\",\"mamala\",\"Down\",\"40\",\"5\",\"7\",\"2\",\"S\",\"C\",\"71\"
\"\",\"\",\"approach-retreat\",\"75\",\"610116\",\"0.0-75.0\",\"\",\"\",\"2-5\",\"4222\",\"40\",\"1\",\"Training\",\"Stims/Figures/27-J-0-1.bmp\",\"mamala\",\"Down\",\"40\",\"5\",\"8\",\"2\",\"S\",\"C\",\"72\"
\"\",\"\",\"approach-retreat\",\"76\",\"616367\",\"0.0-76.0\",\"\",\"\",\"2-5\",\"4740\",\"37\",\"1\",\"Training\",\"Stims/Figures/144-C-30-3.bmp\",\"pakata\",\"Right\",\"37\",\"5\",\"9\",\"2\",\"P\",\"C\",\"73\"
\"\",\"\",\"approach-retreat\",\"77\",\"622204\",\"0.0-77.0\",\"\",\"\",\"2-5\",\"4327\",\"40\",\"1\",\"Training\",\"Stims/Figures/102-J-10-4.bmp\",\"mamala\",\"Down\",\"40\",\"5\",\"10\",\"2\",\"S\",\"C\",\"74\"
\"\",\"\",\"approach-retreat\",\"78\",\"628196\",\"0.0-78.0\",\"\",\"\",\"2-5\",\"4481\",\"37\",\"1\",\"Training\",\"Stims/Figures/57-C-30-1.bmp\",\"pakata\",\"Right\",\"37\",\"5\",\"11\",\"2\",\"P\",\"C\",\"75\"
\"\",\"\",\"approach-retreat\",\"79\",\"634353\",\"0.0-79.0\",\"\",\"\",\"2-5\",\"4645\",\"40\",\"1\",\"Training\",\"Stims/Figures/74-C-20-4.bmp\",\"pakata\",\"Up\",\"40\",\"5\",\"12\",\"2\",\"P\",\"C\",\"76\"
\"\",\"\",\"approach-retreat\",\"80\",\"641645\",\"0.0-80.0\",\"\",\"\",\"2-5\",\"5776\",\"39\",\"1\",\"Training\",\"Stims/Figures/27-C-30-1.bmp\",\"pakata\",\"Left\",\"39\",\"5\",\"13\",\"2\",\"P\",\"C\",\"77\"
\"\",\"\",\"approach-retreat\",\"81\",\"647672\",\"0.0-81.0\",\"\",\"\",\"2-5\",\"4515\",\"39\",\"1\",\"Training\",\"Stims/Figures/102-C-20-4.bmp\",\"pakata\",\"Left\",\"39\",\"5\",\"14\",\"2\",\"P\",\"C\",\"78\"
\"\",\"\",\"approach-retreat\",\"82\",\"653429\",\"0.0-82.0\",\"\",\"\",\"2-5\",\"4246\",\"39\",\"1\",\"Training\",\"Stims/Figures/85-C-20-2.bmp\",\"pakata\",\"Left\",\"39\",\"5\",\"15\",\"2\",\"P\",\"C\",\"79\"
\"\",\"\",\"approach-retreat\",\"83\",\"659748\",\"0.0-83.0\",\"\",\"\",\"2-5\",\"4804\",\"38\",\"1\",\"Training\",\"Stims/Figures/85-J-0-2.bmp\",\"mamala\",\"Up\",\"38\",\"5\",\"16\",\"2\",\"S\",\"C\",\"80\"
\"\",\"\",\"approach-retreat\",\"84\",\"666196\",\"0.0-84.0\",\"\",\"\",\"2-5\",\"4936\",\"38\",\"1\",\"Training\",\"Stims/Figures/128-C-30-3.bmp\",\"pakata\",\"Down\",\"38\",\"6\",\"1\",\"2\",\"P\",\"C\",\"81\"
\"\",\"\",\"approach-retreat\",\"85\",\"672758\",\"0.0-85.0\",\"\",\"\",\"2-5\",\"5051\",\"40\",\"1\",\"Training\",\"Stims/Figures/85-J-0-2.bmp\",\"mamala\",\"Down\",\"40\",\"6\",\"2\",\"2\",\"S\",\"C\",\"82\"
\"\",\"\",\"approach-retreat\",\"86\",\"678836\",\"0.0-86.0\",\"\",\"\",\"2-5\",\"4566\",\"39\",\"1\",\"Training\",\"Stims/Figures/27-C-30-1.bmp\",\"pakata\",\"Left\",\"39\",\"6\",\"3\",\"2\",\"P\",\"C\",\"83\"
\"\",\"\",\"approach-retreat\",\"87\",\"685104\",\"0.0-87.0\",\"\",\"\",\"2-5\",\"4757\",\"38\",\"1\",\"Training\",\"Stims/Figures/128-J-10-3.bmp\",\"mamala\",\"Up\",\"38\",\"6\",\"4\",\"2\",\"S\",\"C\",\"84\"
\"\",\"\",\"approach-retreat\",\"88\",\"690834\",\"0.0-88.0\",\"\",\"\",\"2-5\",\"4219\",\"38\",\"1\",\"Training\",\"Stims/Figures/74-C-20-4.bmp\",\"pakata\",\"Down\",\"38\",\"6\",\"5\",\"2\",\"P\",\"C\",\"85\"
\"\",\"\",\"approach-retreat\",\"89\",\"696839\",\"0.0-89.0\",\"\",\"\",\"2-5\",\"4493\",\"39\",\"1\",\"Training\",\"Stims/Figures/57-J-0-1.bmp\",\"mamala\",\"Right\",\"39\",\"6\",\"6\",\"2\",\"S\",\"C\",\"86\"
\"\",\"\",\"approach-retreat\",\"90\",\"702433\",\"0.0-90.0\",\"\",\"\",\"2-5\",\"4083\",\"39\",\"1\",\"Training\",\"Stims/Figures/102-J-10-4.bmp\",\"mamala\",\"Right\",\"39\",\"6\",\"7\",\"2\",\"S\",\"C\",\"87\"
\"\",\"\",\"approach-retreat\",\"91\",\"708576\",\"0.0-91.0\",\"\",\"\",\"2-5\",\"4633\",\"40\",\"1\",\"Training\",\"Stims/Figures/84-C-20-2.bmp\",\"pakata\",\"Up\",\"40\",\"6\",\"8\",\"2\",\"P\",\"C\",\"88\"
\"\",\"\",\"approach-retreat\",\"92\",\"714697\",\"0.0-92.0\",\"\",\"\",\"2-5\",\"4611\",\"39\",\"1\",\"Training\",\"Stims/Figures/84-J-0-2.bmp\",\"mamala\",\"Right\",\"39\",\"6\",\"9\",\"2\",\"S\",\"C\",\"89\"
\"\",\"\",\"approach-retreat\",\"93\",\"721141\",\"0.0-93.0\",\"\",\"\",\"2-5\",\"4934\",\"37\",\"1\",\"Training\",\"Stims/Figures/27-J-0-1.bmp\",\"mamala\",\"Left\",\"37\",\"6\",\"10\",\"2\",\"S\",\"C\",\"90\"
\"\",\"\",\"approach-retreat\",\"94\",\"727346\",\"0.0-94.0\",\"\",\"\",\"2-5\",\"4695\",\"38\",\"1\",\"Training\",\"Stims/Figures/144-C-30-3.bmp\",\"pakata\",\"Down\",\"38\",\"6\",\"11\",\"2\",\"P\",\"C\",\"91\"
\"\",\"\",\"approach-retreat\",\"95\",\"733525\",\"0.0-95.0\",\"\",\"\",\"2-5\",\"4668\",\"39\",\"1\",\"Training\",\"Stims/Figures/102-C-20-4.bmp\",\"pakata\",\"Left\",\"39\",\"6\",\"12\",\"2\",\"P\",\"C\",\"92\"
\"\",\"\",\"approach-retreat\",\"96\",\"739386\",\"0.0-96.0\",\"\",\"\",\"2-5\",\"4351\",\"39\",\"1\",\"Training\",\"Stims/Figures/57-C-30-1.bmp\",\"pakata\",\"Left\",\"39\",\"6\",\"13\",\"2\",\"P\",\"C\",\"93\"
\"\",\"\",\"approach-retreat\",\"97\",\"745344\",\"0.0-97.0\",\"\",\"\",\"2-5\",\"4448\",\"38\",\"1\",\"Training\",\"Stims/Figures/144-J-10-3.bmp\",\"mamala\",\"Up\",\"38\",\"6\",\"14\",\"2\",\"S\",\"C\",\"94\"
\"\",\"\",\"approach-retreat\",\"98\",\"751272\",\"0.0-98.0\",\"\",\"\",\"2-5\",\"4417\",\"39\",\"1\",\"Training\",\"Stims/Figures/74-J-10-4.bmp\",\"mamala\",\"Right\",\"39\",\"6\",\"15\",\"2\",\"S\",\"C\",\"95\"
\"\",\"\",\"approach-retreat\",\"99\",\"758267\",\"0.0-99.0\",\"\",\"\",\"2-5\",\"5484\",\"40\",\"1\",\"Training\",\"Stims/Figures/85-C-20-2.bmp\",\"pakata\",\"Up\",\"40\",\"6\",\"16\",\"2\",\"P\",\"C\",\"96\"
\"\",\"\",\"approach-retreat\",\"100\",\"764319\",\"0.0-100.0\",\"\",\"\",\"2-5\",\"4541\",\"38\",\"1\",\"Training\",\"Stims/Figures/74-C-20-4.bmp\",\"pakata\",\"Down\",\"38\",\"7\",\"1\",\"2\",\"P\",\"C\",\"97\"
\"\",\"\",\"approach-retreat\",\"101\",\"770216\",\"0.0-101.0\",\"\",\"\",\"2-5\",\"4387\",\"39\",\"1\",\"Training\",\"Stims/Figures/57-J-0-1.bmp\",\"mamala\",\"Right\",\"39\",\"7\",\"2\",\"2\",\"S\",\"C\",\"98\"
\"\",\"\",\"approach-retreat\",\"102\",\"776400\",\"0.0-102.0\",\"\",\"\",\"2-5\",\"4681\",\"38\",\"1\",\"Training\",\"Stims/Figures/102-C-20-4.bmp\",\"pakata\",\"Down\",\"38\",\"7\",\"3\",\"2\",\"P\",\"C\",\"99\"
\"\",\"\",\"approach-retreat\",\"103\",\"782731\",\"0.0-103.0\",\"\",\"\",\"2-5\",\"4821\",\"38\",\"1\",\"Training\",\"Stims/Figures/84-J-0-2.bmp\",\"mamala\",\"Up\",\"38\",\"7\",\"4\",\"2\",\"S\",\"C\",\"100\"
\"\",\"\",\"approach-retreat\",\"104\",\"788618\",\"0.0-104.0\",\"\",\"\",\"2-5\",\"4376\",\"37\",\"1\",\"Training\",\"Stims/Figures/57-C-30-1.bmp\",\"pakata\",\"Right\",\"37\",\"7\",\"5\",\"2\",\"P\",\"C\",\"101\"
\"\",\"\",\"approach-retreat\",\"105\",\"794772\",\"0.0-105.0\",\"\",\"\",\"2-5\",\"4644\",\"37\",\"1\",\"Training\",\"Stims/Figures/85-J-0-2.bmp\",\"mamala\",\"Left\",\"37\",\"7\",\"6\",\"2\",\"S\",\"C\",\"102\"
\"\",\"\",\"approach-retreat\",\"106\",\"800457\",\"0.0-106.0\",\"\",\"\",\"2-5\",\"4173\",\"37\",\"1\",\"Training\",\"Stims/Figures/27-C-30-1.bmp\",\"pakata\",\"Right\",\"37\",\"7\",\"7\",\"2\",\"P\",\"C\",\"103\"
\"\",\"\",\"approach-retreat\",\"107\",\"806616\",\"0.0-107.0\",\"\",\"\",\"2-5\",\"4650\",\"38\",\"1\",\"Training\",\"Stims/Figures/27-J-0-1.bmp\",\"mamala\",\"Up\",\"38\",\"7\",\"8\",\"2\",\"S\",\"C\",\"104\"
\"\",\"\",\"approach-retreat\",\"108\",\"812997\",\"0.0-108.0\",\"\",\"\",\"2-5\",\"4870\",\"39\",\"1\",\"Training\",\"Stims/Figures/144-C-30-3.bmp\",\"pakata\",\"Left\",\"39\",\"7\",\"9\",\"2\",\"P\",\"C\",\"105\"
\"\",\"\",\"approach-retreat\",\"109\",\"819081\",\"0.0-109.0\",\"\",\"\",\"2-5\",\"4574\",\"39\",\"1\",\"Training\",\"Stims/Figures/144-J-10-3.bmp\",\"mamala\",\"Right\",\"39\",\"7\",\"10\",\"2\",\"S\",\"C\",\"106\"
\"\",\"\",\"approach-retreat\",\"110\",\"825133\",\"0.0-110.0\",\"\",\"\",\"2-5\",\"4540\",\"38\",\"1\",\"Training\",\"Stims/Figures/74-J-10-4.bmp\",\"mamala\",\"Up\",\"38\",\"7\",\"11\",\"2\",\"S\",\"C\",\"107\"
\"\",\"\",\"approach-retreat\",\"111\",\"831105\",\"0.0-111.0\",\"\",\"\",\"2-5\",\"4462\",\"39\",\"1\",\"Training\",\"Stims/Figures/128-C-30-3.bmp\",\"pakata\",\"Left\",\"39\",\"7\",\"12\",\"2\",\"P\",\"C\",\"108\"
\"\",\"\",\"approach-retreat\",\"112\",\"837011\",\"0.0-112.0\",\"\",\"\",\"2-5\",\"4395\",\"40\",\"1\",\"Training\",\"Stims/Figures/128-J-10-3.bmp\",\"mamala\",\"Down\",\"40\",\"7\",\"13\",\"2\",\"S\",\"C\",\"109\"
\"\",\"\",\"approach-retreat\",\"113\",\"843187\",\"0.0-113.0\",\"\",\"\",\"2-5\",\"4660\",\"40\",\"1\",\"Training\",\"Stims/Figures/102-J-10-4.bmp\",\"mamala\",\"Down\",\"40\",\"7\",\"14\",\"2\",\"S\",\"C\",\"110\"
\"\",\"\",\"approach-retreat\",\"114\",\"849386\",\"0.0-114.0\",\"\",\"\",\"2-5\",\"4689\",\"40\",\"1\",\"Training\",\"Stims/Figures/84-C-20-2.bmp\",\"pakata\",\"Up\",\"40\",\"7\",\"15\",\"2\",\"P\",\"C\",\"111\"
\"\",\"\",\"approach-retreat\",\"115\",\"855696\",\"0.0-115.0\",\"\",\"\",\"2-5\",\"4798\",\"39\",\"1\",\"Training\",\"Stims/Figures/85-C-20-2.bmp\",\"pakata\",\"Left\",\"39\",\"7\",\"16\",\"2\",\"P\",\"C\",\"112\"
\"\",\"\",\"approach-retreat\",\"116\",\"861933\",\"0.0-116.0\",\"\",\"\",\"2-5\",\"4728\",\"40\",\"1\",\"Training\",\"Stims/Figures/128-C-30-3.bmp\",\"pakata\",\"Up\",\"40\",\"8\",\"1\",\"2\",\"P\",\"C\",\"113\"
\"\",\"\",\"approach-retreat\",\"117\",\"868739\",\"0.0-117.0\",\"\",\"\",\"2-5\",\"5295\",\"38\",\"1\",\"Training\",\"Stims/Figures/102-J-10-4.bmp\",\"mamala\",\"Up\",\"38\",\"8\",\"2\",\"2\",\"S\",\"C\",\"114\"
\"\",\"\",\"approach-retreat\",\"118\",\"875553\",\"0.0-118.0\",\"\",\"\",\"2-5\",\"5303\",\"40\",\"1\",\"Training\",\"Stims/Figures/74-J-10-4.bmp\",\"mamala\",\"Down\",\"40\",\"8\",\"3\",\"2\",\"S\",\"C\",\"115\"
\"\",\"\",\"approach-retreat\",\"119\",\"881439\",\"0.0-119.0\",\"\",\"\",\"2-5\",\"4374\",\"39\",\"1\",\"Training\",\"Stims/Figures/144-J-10-3.bmp\",\"mamala\",\"Right\",\"39\",\"8\",\"4\",\"2\",\"S\",\"C\",\"116\"
\"\",\"\",\"approach-retreat\",\"120\",\"887808\",\"0.0-120.0\",\"\",\"\",\"2-5\",\"4858\",\"40\",\"0\",\"Training\",\"Stims/Figures/144-C-30-3.bmp\",\"pakata\",\"Down\",\"38\",\"8\",\"5\",\"2\",\"P\",\"C\",\"117\"
\"\",\"\",\"approach-retreat\",\"121\",\"893762\",\"0.0-121.0\",\"\",\"\",\"2-5\",\"4444\",\"39\",\"1\",\"Training\",\"Stims/Figures/74-C-20-4.bmp\",\"pakata\",\"Left\",\"39\",\"8\",\"6\",\"2\",\"P\",\"C\",\"118\"
\"\",\"\",\"approach-retreat\",\"122\",\"899919\",\"0.0-122.0\",\"\",\"\",\"2-5\",\"4646\",\"37\",\"1\",\"Training\",\"Stims/Figures/85-C-20-2.bmp\",\"pakata\",\"Right\",\"37\",\"8\",\"7\",\"2\",\"P\",\"C\",\"119\"
\"\",\"\",\"approach-retreat\",\"123\",\"906335\",\"0.0-123.0\",\"\",\"\",\"2-5\",\"4907\",\"37\",\"1\",\"Training\",\"Stims/Figures/57-J-0-1.bmp\",\"mamala\",\"Left\",\"37\",\"8\",\"8\",\"2\",\"S\",\"C\",\"120\"
\"\",\"\",\"approach-retreat\",\"124\",\"912524\",\"0.0-124.0\",\"\",\"\",\"2-5\",\"4677\",\"38\",\"1\",\"Training\",\"Stims/Figures/85-J-0-2.bmp\",\"mamala\",\"Up\",\"38\",\"8\",\"9\",\"2\",\"S\",\"C\",\"121\"
\"\",\"\",\"approach-retreat\",\"125\",\"918732\",\"0.0-125.0\",\"\",\"\",\"2-5\",\"4698\",\"40\",\"1\",\"Training\",\"Stims/Figures/102-C-20-4.bmp\",\"pakata\",\"Up\",\"40\",\"8\",\"10\",\"2\",\"P\",\"C\",\"122\"
\"\",\"\",\"approach-retreat\",\"126\",\"925098\",\"0.0-126.0\",\"\",\"\",\"2-5\",\"4854\",\"40\",\"1\",\"Training\",\"Stims/Figures/27-J-0-1.bmp\",\"mamala\",\"Down\",\"40\",\"8\",\"11\",\"2\",\"S\",\"C\",\"123\"
\"\",\"\",\"approach-retreat\",\"127\",\"931075\",\"0.0-127.0\",\"\",\"\",\"2-5\",\"4467\",\"39\",\"1\",\"Training\",\"Stims/Figures/27-C-30-1.bmp\",\"pakata\",\"Left\",\"39\",\"8\",\"12\",\"2\",\"P\",\"C\",\"124\"
\"\",\"\",\"approach-retreat\",\"128\",\"936925\",\"0.0-128.0\",\"\",\"\",\"2-5\",\"4339\",\"39\",\"1\",\"Training\",\"Stims/Figures/84-C-20-2.bmp\",\"pakata\",\"Left\",\"39\",\"8\",\"13\",\"2\",\"P\",\"C\",\"125\"
\"\",\"\",\"approach-retreat\",\"129\",\"943094\",\"0.0-129.0\",\"\",\"\",\"2-5\",\"4657\",\"40\",\"1\",\"Training\",\"Stims/Figures/128-J-10-3.bmp\",\"mamala\",\"Down\",\"40\",\"8\",\"14\",\"2\",\"S\",\"C\",\"126\"
\"\",\"\",\"approach-retreat\",\"130\",\"949053\",\"0.0-130.0\",\"\",\"\",\"2-5\",\"4448\",\"37\",\"1\",\"Training\",\"Stims/Figures/57-C-30-1.bmp\",\"pakata\",\"Right\",\"37\",\"8\",\"15\",\"2\",\"P\",\"C\",\"127\"
\"\",\"\",\"approach-retreat\",\"131\",\"955331\",\"0.0-131.0\",\"\",\"\",\"2-5\",\"4769\",\"39\",\"1\",\"Training\",\"Stims/Figures/84-J-0-2.bmp\",\"mamala\",\"Right\",\"39\",\"8\",\"16\",\"2\",\"S\",\"C\",\"128\"
\"\",\"\",\"approach-retreat\",\"132\",\"961827\",\"0.0-132.0\",\"\",\"\",\"2-5\",\"4984\",\"40\",\"1\",\"Training\",\"Stims/Figures/85-J-0-2.bmp\",\"mamala\",\"Down\",\"40\",\"9\",\"1\",\"2\",\"S\",\"C\",\"129\"
\"\",\"\",\"approach-retreat\",\"133\",\"968019\",\"0.0-133.0\",\"\",\"\",\"2-5\",\"4681\",\"40\",\"1\",\"Training\",\"Stims/Figures/128-C-30-3.bmp\",\"pakata\",\"Up\",\"40\",\"9\",\"2\",\"2\",\"P\",\"C\",\"130\"
\"\",\"\",\"approach-retreat\",\"134\",\"973934\",\"0.0-134.0\",\"\",\"\",\"2-5\",\"4404\",\"38\",\"1\",\"Training\",\"Stims/Figures/57-C-30-1.bmp\",\"pakata\",\"Down\",\"38\",\"9\",\"3\",\"2\",\"P\",\"C\",\"131\"
\"\",\"\",\"approach-retreat\",\"135\",\"980068\",\"0.0-135.0\",\"\",\"\",\"2-5\",\"4622\",\"40\",\"1\",\"Training\",\"Stims/Figures/74-J-10-4.bmp\",\"mamala\",\"Down\",\"40\",\"9\",\"4\",\"2\",\"S\",\"C\",\"132\"
\"\",\"\",\"approach-retreat\",\"136\",\"986091\",\"0.0-136.0\",\"\",\"\",\"2-5\",\"4513\",\"37\",\"1\",\"Training\",\"Stims/Figures/102-C-20-4.bmp\",\"pakata\",\"Right\",\"37\",\"9\",\"5\",\"2\",\"P\",\"C\",\"133\"
\"\",\"\",\"approach-retreat\",\"137\",\"992099\",\"0.0-137.0\",\"\",\"\",\"2-5\",\"4497\",\"39\",\"1\",\"Training\",\"Stims/Figures/27-J-0-1.bmp\",\"mamala\",\"Right\",\"39\",\"9\",\"6\",\"2\",\"S\",\"C\",\"134\"
\"\",\"\",\"approach-retreat\",\"138\",\"998351\",\"0.0-138.0\",\"\",\"\",\"2-5\",\"4741\",\"40\",\"1\",\"Training\",\"Stims/Figures/27-C-30-1.bmp\",\"pakata\",\"Up\",\"40\",\"9\",\"7\",\"2\",\"P\",\"C\",\"135\"
\"\",\"\",\"approach-retreat\",\"139\",\"1004686\",\"0.0-139.0\",\"\",\"\",\"2-5\",\"4822\",\"37\",\"1\",\"Training\",\"Stims/Figures/128-J-10-3.bmp\",\"mamala\",\"Left\",\"37\",\"9\",\"8\",\"2\",\"S\",\"C\",\"136\"
\"\",\"\",\"approach-retreat\",\"140\",\"1010610\",\"0.0-140.0\",\"\",\"\",\"2-5\",\"4413\",\"37\",\"1\",\"Training\",\"Stims/Figures/57-J-0-1.bmp\",\"mamala\",\"Left\",\"37\",\"9\",\"9\",\"2\",\"S\",\"C\",\"137\"
\"\",\"\",\"approach-retreat\",\"141\",\"1017463\",\"0.0-141.0\",\"\",\"\",\"2-5\",\"5342\",\"40\",\"1\",\"Training\",\"Stims/Figures/85-C-20-2.bmp\",\"pakata\",\"Up\",\"40\",\"9\",\"10\",\"2\",\"P\",\"C\",\"138\"
\"\",\"\",\"approach-retreat\",\"142\",\"1023562\",\"0.0-142.0\",\"\",\"\",\"2-5\",\"4587\",\"37\",\"1\",\"Training\",\"Stims/Figures/144-J-10-3.bmp\",\"mamala\",\"Left\",\"37\",\"9\",\"11\",\"2\",\"S\",\"C\",\"139\"
\"\",\"\",\"approach-retreat\",\"143\",\"1029559\",\"0.0-143.0\",\"\",\"\",\"2-5\",\"4488\",\"37\",\"1\",\"Training\",\"Stims/Figures/74-C-20-4.bmp\",\"pakata\",\"Right\",\"37\",\"9\",\"12\",\"2\",\"P\",\"C\",\"140\"
\"\",\"\",\"approach-retreat\",\"144\",\"1035738\",\"0.0-144.0\",\"\",\"\",\"2-5\",\"4668\",\"37\",\"1\",\"Training\",\"Stims/Figures/84-J-0-2.bmp\",\"mamala\",\"Left\",\"37\",\"9\",\"13\",\"2\",\"S\",\"C\",\"141\"
\"\",\"\",\"approach-retreat\",\"145\",\"1041915\",\"0.0-145.0\",\"\",\"\",\"2-5\",\"4663\",\"38\",\"1\",\"Training\",\"Stims/Figures/84-C-20-2.bmp\",\"pakata\",\"Down\",\"38\",\"9\",\"14\",\"2\",\"P\",\"C\",\"142\"
\"\",\"\",\"approach-retreat\",\"146\",\"1048099\",\"0.0-146.0\",\"\",\"\",\"2-5\",\"4673\",\"40\",\"1\",\"Training\",\"Stims/Figures/144-C-30-3.bmp\",\"pakata\",\"Up\",\"40\",\"9\",\"15\",\"2\",\"P\",\"C\",\"143\"
\"\",\"\",\"approach-retreat\",\"147\",\"1054122\",\"0.0-147.0\",\"\",\"\",\"2-5\",\"4511\",\"39\",\"1\",\"Training\",\"Stims/Figures/102-J-10-4.bmp\",\"mamala\",\"Right\",\"39\",\"9\",\"16\",\"2\",\"S\",\"C\",\"144\"
\"10649\",\"\",\"instructions\",\"148\",\"1064771\",\"0.0-148.0\",\"[{\"\"page_index\"\":0,\"\"viewing_time\"\":10649}]\",\"\",\"\",\"\",\"\",\"\",\"\",\"\",\"\",\"\",\"\",\"\",\"\",\"\",\"\",\"\",\"\"
\"\",\"\",\"approach-retreat\",\"149\",\"1070913\",\"0.0-149.0\",\"\",\"\",\"2-5\",\"4634\",\"37\",\"0\",\"Testing\",\"Stims/Figures/7-J-10-4.bmp\",\"mamala\",\"Right\",\"39\",\"1\",\"1\",\"2\",\"S\",\"C\",\"1\"
\"\",\"\",\"approach-retreat\",\"150\",\"1076934\",\"0.0-150.0\",\"\",\"\",\"2-5\",\"4513\",\"37\",\"1\",\"Testing\",\"Stims/Figures/94-C-20-2.bmp\",\"pakata\",\"Right\",\"37\",\"1\",\"2\",\"2\",\"P\",\"C\",\"2\"
\"\",\"\",\"approach-retreat\",\"151\",\"1082966\",\"0.0-151.0\",\"\",\"\",\"2-5\",\"4523\",\"39\",\"1\",\"Testing\",\"Stims/Figures/102-J-10-4.bmp\",\"mamala\",\"Right\",\"39\",\"1\",\"3\",\"2\",\"S\",\"C\",\"3\"
\"\",\"\",\"approach-retreat\",\"152\",\"1088975\",\"0.0-152.0\",\"\",\"\",\"2-5\",\"4500\",\"37\",\"1\",\"Testing\",\"Stims/Figures/94-J-0-2.bmp\",\"mamala\",\"Left\",\"37\",\"1\",\"4\",\"2\",\"S\",\"C\",\"4\"
\"\",\"\",\"approach-retreat\",\"153\",\"1095974\",\"0.0-153.0\",\"\",\"\",\"2-5\",\"5490\",\"37\",\"1\",\"Testing\",\"Stims/Figures/144-J-10-3.bmp\",\"mamala\",\"Left\",\"37\",\"1\",\"5\",\"2\",\"S\",\"C\",\"5\"
\"\",\"\",\"approach-retreat\",\"154\",\"1101993\",\"0.0-154.0\",\"\",\"\",\"2-5\",\"4511\",\"40\",\"1\",\"Testing\",\"Stims/Figures/85-J-0-2.bmp\",\"mamala\",\"Down\",\"40\",\"1\",\"6\",\"2\",\"S\",\"C\",\"6\"
\"\",\"\",\"approach-retreat\",\"155\",\"1108803\",\"0.0-155.0\",\"\",\"\",\"2-5\",\"5300\",\"38\",\"1\",\"Testing\",\"Stims/Figures/93-J-0-1.bmp\",\"mamala\",\"Up\",\"38\",\"1\",\"7\",\"2\",\"S\",\"C\",\"7\"
\"\",\"\",\"approach-retreat\",\"156\",\"1115057\",\"0.0-156.0\",\"\",\"\",\"2-5\",\"4746\",\"39\",\"0\",\"Testing\",\"Stims/Figures/100-C-30-3.bmp\",\"pakata\",\"Right\",\"37\",\"1\",\"8\",\"2\",\"P\",\"C\",\"8\"
\"\",\"\",\"approach-retreat\",\"157\",\"1121264\",\"0.0-157.0\",\"\",\"\",\"2-5\",\"4699\",\"40\",\"1\",\"Testing\",\"Stims/Figures/7-C-20-4.bmp\",\"pakata\",\"Up\",\"40\",\"1\",\"9\",\"2\",\"P\",\"C\",\"9\"
\"\",\"\",\"approach-retreat\",\"158\",\"1127709\",\"0.0-158.0\",\"\",\"\",\"2-5\",\"4938\",\"39\",\"1\",\"Testing\",\"Stims/Figures/74-C-20-4.bmp\",\"pakata\",\"Left\",\"39\",\"1\",\"10\",\"2\",\"P\",\"C\",\"10\"
\"\",\"\",\"approach-retreat\",\"159\",\"1134085\",\"0.0-159.0\",\"\",\"\",\"2-5\",\"4866\",\"40\",\"1\",\"Testing\",\"Stims/Figures/84-J-0-2.bmp\",\"mamala\",\"Down\",\"40\",\"1\",\"11\",\"2\",\"S\",\"C\",\"11\"
\"\",\"\",\"approach-retreat\",\"160\",\"1140174\",\"0.0-160.0\",\"\",\"\",\"2-5\",\"4581\",\"38\",\"1\",\"Testing\",\"Stims/Figures/57-J-0-1.bmp\",\"mamala\",\"Up\",\"38\",\"1\",\"12\",\"2\",\"S\",\"C\",\"12\"
\"\",\"\",\"approach-retreat\",\"161\",\"1146588\",\"0.0-161.0\",\"\",\"\",\"2-5\",\"4907\",\"38\",\"0\",\"Testing\",\"Stims/Figures/74-J-10-4.bmp\",\"mamala\",\"Down\",\"40\",\"1\",\"13\",\"2\",\"S\",\"C\",\"13\"
\"\",\"\",\"approach-retreat\",\"162\",\"1152295\",\"0.0-162.0\",\"\",\"\",\"2-5\",\"4197\",\"38\",\"1\",\"Testing\",\"Stims/Figures/128-C-30-3.bmp\",\"pakata\",\"Down\",\"38\",\"1\",\"14\",\"2\",\"P\",\"C\",\"14\"
\"\",\"\",\"approach-retreat\",\"163\",\"1158703\",\"0.0-163.0\",\"\",\"\",\"2-5\",\"4900\",\"40\",\"1\",\"Testing\",\"Stims/Figures/84-C-20-2.bmp\",\"pakata\",\"Up\",\"40\",\"1\",\"15\",\"2\",\"P\",\"C\",\"15\"
\"\",\"\",\"approach-retreat\",\"164\",\"1165240\",\"0.0-164.0\",\"\",\"\",\"2-5\",\"5027\",\"39\",\"1\",\"Testing\",\"Stims/Figures/144-C-30-3.bmp\",\"pakata\",\"Left\",\"39\",\"1\",\"16\",\"2\",\"P\",\"C\",\"16\"
\"\",\"\",\"approach-retreat\",\"165\",\"1171265\",\"0.0-165.0\",\"\",\"\",\"2-5\",\"4513\",\"38\",\"1\",\"Testing\",\"Stims/Figures/57-C-30-1.bmp\",\"pakata\",\"Down\",\"38\",\"1\",\"17\",\"2\",\"P\",\"C\",\"17\"
\"\",\"\",\"approach-retreat\",\"166\",\"1177264\",\"0.0-166.0\",\"\",\"\",\"2-5\",\"4492\",\"39\",\"1\",\"Testing\",\"Stims/Figures/93-C-30-1.bmp\",\"pakata\",\"Left\",\"39\",\"1\",\"18\",\"2\",\"P\",\"C\",\"18\"
\"\",\"\",\"approach-retreat\",\"167\",\"1183649\",\"0.0-167.0\",\"\",\"\",\"2-5\",\"4868\",\"40\",\"0\",\"Testing\",\"Stims/Figures/100-J-10-3.bmp\",\"mamala\",\"Up\",\"38\",\"1\",\"19\",\"2\",\"S\",\"C\",\"19\"
\"\",\"\",\"approach-retreat\",\"168\",\"1189735\",\"0.0-168.0\",\"\",\"\",\"2-5\",\"4577\",\"39\",\"1\",\"Testing\",\"Stims/Figures/27-J-0-1.bmp\",\"mamala\",\"Right\",\"39\",\"1\",\"20\",\"2\",\"S\",\"C\",\"20\"
\"\",\"\",\"approach-retreat\",\"169\",\"1195971\",\"0.0-169.0\",\"\",\"\",\"2-5\",\"4727\",\"37\",\"1\",\"Testing\",\"Stims/Figures/27-C-30-1.bmp\",\"pakata\",\"Right\",\"37\",\"1\",\"21\",\"2\",\"P\",\"C\",\"21\"
\"\",\"\",\"approach-retreat\",\"170\",\"1201987\",\"0.0-170.0\",\"\",\"\",\"2-5\",\"4508\",\"40\",\"1\",\"Testing\",\"Stims/Figures/85-C-20-2.bmp\",\"pakata\",\"Up\",\"40\",\"1\",\"22\",\"2\",\"P\",\"C\",\"22\"
\"\",\"\",\"approach-retreat\",\"171\",\"1208264\",\"0.0-171.0\",\"\",\"\",\"2-5\",\"4769\",\"38\",\"1\",\"Testing\",\"Stims/Figures/102-C-20-4.bmp\",\"pakata\",\"Down\",\"38\",\"1\",\"23\",\"2\",\"P\",\"C\",\"23\"
\"\",\"\",\"approach-retreat\",\"172\",\"1215029\",\"0.0-172.0\",\"\",\"\",\"2-5\",\"5257\",\"37\",\"1\",\"Testing\",\"Stims/Figures/128-J-10-3.bmp\",\"mamala\",\"Left\",\"37\",\"1\",\"24\",\"2\",\"S\",\"C\",\"24\"
\"\",\"\",\"approach-retreat\",\"173\",\"1221378\",\"0.0-173.0\",\"\",\"\",\"2-5\",\"4839\",\"37\",\"1\",\"Testing\",\"Stims/Figures/85-C-20-2.bmp\",\"pakata\",\"Right\",\"37\",\"2\",\"1\",\"2\",\"P\",\"C\",\"25\"
\"\",\"\",\"approach-retreat\",\"174\",\"1227218\",\"0.0-174.0\",\"\",\"\",\"2-5\",\"4331\",\"37\",\"1\",\"Testing\",\"Stims/Figures/84-C-20-2.bmp\",\"pakata\",\"Right\",\"37\",\"2\",\"2\",\"2\",\"P\",\"C\",\"26\"
\"\",\"\",\"approach-retreat\",\"175\",\"1233133\",\"0.0-175.0\",\"\",\"\",\"2-5\",\"4407\",\"40\",\"1\",\"Testing\",\"Stims/Figures/74-J-10-4.bmp\",\"mamala\",\"Down\",\"40\",\"2\",\"3\",\"2\",\"S\",\"C\",\"27\"
\"\",\"\",\"approach-retreat\",\"176\",\"1239113\",\"0.0-176.0\",\"\",\"\",\"2-5\",\"4471\",\"39\",\"1\",\"Testing\",\"Stims/Figures/93-J-0-1.bmp\",\"mamala\",\"Right\",\"39\",\"2\",\"4\",\"2\",\"S\",\"C\",\"28\"
\"\",\"\",\"approach-retreat\",\"177\",\"1245854\",\"0.0-177.0\",\"\",\"\",\"2-5\",\"5232\",\"39\",\"0\",\"Testing\",\"Stims/Figures/7-J-10-4.bmp\",\"mamala\",\"Left\",\"37\",\"2\",\"5\",\"2\",\"S\",\"C\",\"29\"
\"\",\"\",\"approach-retreat\",\"178\",\"1252223\",\"0.0-178.0\",\"\",\"\",\"2-5\",\"4862\",\"40\",\"1\",\"Testing\",\"Stims/Figures/57-C-30-1.bmp\",\"pakata\",\"Up\",\"40\",\"2\",\"6\",\"2\",\"P\",\"C\",\"30\"
\"\",\"\",\"approach-retreat\",\"179\",\"1258207\",\"0.0-179.0\",\"\",\"\",\"2-5\",\"4475\",\"37\",\"1\",\"Testing\",\"Stims/Figures/144-J-10-3.bmp\",\"mamala\",\"Left\",\"37\",\"2\",\"7\",\"2\",\"S\",\"C\",\"31\"
\"\",\"\",\"approach-retreat\",\"180\",\"1264274\",\"0.0-180.0\",\"\",\"\",\"2-5\",\"4559\",\"39\",\"1\",\"Testing\",\"Stims/Figures/100-C-30-3.bmp\",\"pakata\",\"Left\",\"39\",\"2\",\"8\",\"2\",\"P\",\"C\",\"32\"
\"\",\"\",\"approach-retreat\",\"181\",\"1270959\",\"0.0-181.0\",\"\",\"\",\"2-5\",\"5177\",\"40\",\"1\",\"Testing\",\"Stims/Figures/128-C-30-3.bmp\",\"pakata\",\"Up\",\"40\",\"2\",\"9\",\"2\",\"P\",\"C\",\"33\"
\"\",\"\",\"approach-retreat\",\"182\",\"1278236\",\"0.0-182.0\",\"\",\"\",\"2-5\",\"5770\",\"38\",\"1\",\"Testing\",\"Stims/Figures/144-C-30-3.bmp\",\"pakata\",\"Down\",\"38\",\"2\",\"10\",\"2\",\"P\",\"C\",\"34\"
\"\",\"\",\"approach-retreat\",\"183\",\"1284022\",\"0.0-183.0\",\"\",\"\",\"2-5\",\"4277\",\"37\",\"1\",\"Testing\",\"Stims/Figures/85-J-0-2.bmp\",\"mamala\",\"Left\",\"37\",\"2\",\"11\",\"2\",\"S\",\"C\",\"35\"
\"\",\"\",\"approach-retreat\",\"184\",\"1290051\",\"0.0-184.0\",\"\",\"\",\"2-5\",\"4521\",\"38\",\"1\",\"Testing\",\"Stims/Figures/102-C-20-4.bmp\",\"pakata\",\"Down\",\"38\",\"2\",\"12\",\"2\",\"P\",\"C\",\"36\"
\"\",\"\",\"approach-retreat\",\"185\",\"1296387\",\"0.0-185.0\",\"\",\"\",\"2-5\",\"4828\",\"38\",\"1\",\"Testing\",\"Stims/Figures/57-J-0-1.bmp\",\"mamala\",\"Up\",\"38\",\"2\",\"13\",\"2\",\"S\",\"C\",\"37\"
\"\",\"\",\"approach-retreat\",\"186\",\"1302587\",\"0.0-186.0\",\"\",\"\",\"2-5\",\"4692\",\"40\",\"1\",\"Testing\",\"Stims/Figures/128-J-10-3.bmp\",\"mamala\",\"Down\",\"40\",\"2\",\"14\",\"2\",\"S\",\"C\",\"38\"
\"\",\"\",\"approach-retreat\",\"187\",\"1308929\",\"0.0-187.0\",\"\",\"\",\"2-5\",\"4834\",\"40\",\"1\",\"Testing\",\"Stims/Figures/94-C-20-2.bmp\",\"pakata\",\"Up\",\"40\",\"2\",\"15\",\"2\",\"P\",\"C\",\"39\"
\"\",\"\",\"approach-retreat\",\"188\",\"1315119\",\"0.0-188.0\",\"\",\"\",\"2-5\",\"4682\",\"39\",\"0\",\"Testing\",\"Stims/Figures/74-C-20-4.bmp\",\"pakata\",\"Right\",\"37\",\"2\",\"16\",\"2\",\"P\",\"C\",\"40\"
\"\",\"\",\"approach-retreat\",\"189\",\"1320856\",\"0.0-189.0\",\"\",\"\",\"2-5\",\"4229\",\"39\",\"1\",\"Testing\",\"Stims/Figures/84-J-0-2.bmp\",\"mamala\",\"Right\",\"39\",\"2\",\"17\",\"2\",\"S\",\"C\",\"41\"
\"\",\"\",\"approach-retreat\",\"190\",\"1327485\",\"0.0-190.0\",\"\",\"\",\"2-5\",\"5121\",\"38\",\"1\",\"Testing\",\"Stims/Figures/100-J-10-3.bmp\",\"mamala\",\"Up\",\"38\",\"2\",\"18\",\"2\",\"S\",\"C\",\"42\"
\"\",\"\",\"approach-retreat\",\"191\",\"1333964\",\"0.0-191.0\",\"\",\"\",\"2-5\",\"4971\",\"37\",\"1\",\"Testing\",\"Stims/Figures/27-J-0-1.bmp\",\"mamala\",\"Left\",\"37\",\"2\",\"19\",\"2\",\"S\",\"C\",\"43\"
\"\",\"\",\"approach-retreat\",\"192\",\"1340135\",\"0.0-192.0\",\"\",\"\",\"2-5\",\"4662\",\"40\",\"0\",\"Testing\",\"Stims/Figures/102-J-10-4.bmp\",\"mamala\",\"Up\",\"38\",\"2\",\"20\",\"2\",\"S\",\"C\",\"44\"
\"\",\"\",\"approach-retreat\",\"193\",\"1346007\",\"0.0-193.0\",\"\",\"\",\"2-5\",\"4364\",\"38\",\"1\",\"Testing\",\"Stims/Figures/93-C-30-1.bmp\",\"pakata\",\"Down\",\"38\",\"2\",\"21\",\"2\",\"P\",\"C\",\"45\"
\"\",\"\",\"approach-retreat\",\"194\",\"1351819\",\"0.0-194.0\",\"\",\"\",\"2-5\",\"4304\",\"38\",\"1\",\"Testing\",\"Stims/Figures/7-C-20-4.bmp\",\"pakata\",\"Down\",\"38\",\"2\",\"22\",\"2\",\"P\",\"C\",\"46\"
\"\",\"\",\"approach-retreat\",\"195\",\"1358184\",\"0.0-195.0\",\"\",\"\",\"2-5\",\"4856\",\"39\",\"1\",\"Testing\",\"Stims/Figures/94-J-0-2.bmp\",\"mamala\",\"Right\",\"39\",\"2\",\"23\",\"2\",\"S\",\"C\",\"47\"
\"\",\"\",\"approach-retreat\",\"196\",\"1364729\",\"0.0-196.0\",\"\",\"\",\"2-5\",\"5037\",\"39\",\"1\",\"Testing\",\"Stims/Figures/27-C-30-1.bmp\",\"pakata\",\"Left\",\"39\",\"2\",\"24\",\"2\",\"P\",\"C\",\"48\"
\"\",\"\",\"approach-retreat\",\"197\",\"1370701\",\"0.0-197.0\",\"\",\"\",\"2-5\",\"4461\",\"37\",\"1\",\"Testing\",\"Stims/Figures/7-J-10-4.bmp\",\"mamala\",\"Left\",\"37\",\"3\",\"1\",\"2\",\"S\",\"C\",\"49\"
\"\",\"\",\"approach-retreat\",\"198\",\"1377254\",\"0.0-198.0\",\"\",\"\",\"2-5\",\"5044\",\"39\",\"1\",\"Testing\",\"Stims/Figures/93-J-0-1.bmp\",\"mamala\",\"Right\",\"39\",\"3\",\"2\",\"2\",\"S\",\"C\",\"50\"
\"\",\"\",\"approach-retreat\",\"199\",\"1383287\",\"0.0-199.0\",\"\",\"\",\"2-5\",\"4524\",\"40\",\"1\",\"Testing\",\"Stims/Figures/144-J-10-3.bmp\",\"mamala\",\"Down\",\"40\",\"3\",\"3\",\"2\",\"S\",\"C\",\"51\"
\"\",\"\",\"approach-retreat\",\"200\",\"1389955\",\"0.0-200.0\",\"\",\"\",\"2-5\",\"5160\",\"39\",\"1\",\"Testing\",\"Stims/Figures/57-J-0-1.bmp\",\"mamala\",\"Right\",\"39\",\"3\",\"4\",\"2\",\"S\",\"C\",\"52\"
\"\",\"\",\"approach-retreat\",\"201\",\"1395928\",\"0.0-201.0\",\"\",\"\",\"2-5\",\"4464\",\"37\",\"1\",\"Testing\",\"Stims/Figures/144-C-30-3.bmp\",\"pakata\",\"Right\",\"37\",\"3\",\"5\",\"2\",\"P\",\"C\",\"53\"
\"\",\"\",\"approach-retreat\",\"202\",\"1401813\",\"0.0-202.0\",\"\",\"\",\"2-5\",\"4377\",\"39\",\"1\",\"Testing\",\"Stims/Figures/100-C-30-3.bmp\",\"pakata\",\"Left\",\"39\",\"3\",\"6\",\"2\",\"P\",\"C\",\"54\"
\"\",\"\",\"approach-retreat\",\"203\",\"1407644\",\"0.0-203.0\",\"\",\"\",\"2-5\",\"4322\",\"39\",\"1\",\"Testing\",\"Stims/Figures/93-C-30-1.bmp\",\"pakata\",\"Left\",\"39\",\"3\",\"7\",\"2\",\"P\",\"C\",\"55\"
\"\",\"\",\"approach-retreat\",\"204\",\"1413736\",\"0.0-204.0\",\"\",\"\",\"2-5\",\"4583\",\"40\",\"1\",\"Testing\",\"Stims/Figures/57-C-30-1.bmp\",\"pakata\",\"Up\",\"40\",\"3\",\"8\",\"2\",\"P\",\"C\",\"56\"
\"\",\"\",\"approach-retreat\",\"205\",\"1420826\",\"0.0-205.0\",\"\",\"\",\"2-5\",\"5581\",\"40\",\"1\",\"Testing\",\"Stims/Figures/84-J-0-2.bmp\",\"mamala\",\"Down\",\"40\",\"3\",\"9\",\"2\",\"S\",\"C\",\"57\"
\"\",\"\",\"approach-retreat\",\"206\",\"1426751\",\"0.0-206.0\",\"\",\"\",\"2-5\",\"4416\",\"39\",\"1\",\"Testing\",\"Stims/Figures/128-J-10-3.bmp\",\"mamala\",\"Right\",\"39\",\"3\",\"10\",\"2\",\"S\",\"C\",\"58\"
\"\",\"\",\"approach-retreat\",\"207\",\"1432831\",\"0.0-207.0\",\"\",\"\",\"2-5\",\"4570\",\"40\",\"1\",\"Testing\",\"Stims/Figures/94-C-20-2.bmp\",\"pakata\",\"Up\",\"40\",\"3\",\"11\",\"2\",\"P\",\"C\",\"59\"
\"\",\"\",\"approach-retreat\",\"208\",\"1440657\",\"0.0-208.0\",\"\",\"\",\"2-5\",\"6319\",\"40\",\"0\",\"Testing\",\"Stims/Figures/102-J-10-4.bmp\",\"mamala\",\"Up\",\"38\",\"3\",\"12\",\"2\",\"S\",\"C\",\"60\"
\"\",\"\",\"approach-retreat\",\"209\",\"1446783\",\"0.0-209.0\",\"\",\"\",\"2-5\",\"4617\",\"38\",\"1\",\"Testing\",\"Stims/Figures/7-C-20-4.bmp\",\"pakata\",\"Down\",\"38\",\"3\",\"13\",\"2\",\"P\",\"C\",\"61\"
\"\",\"\",\"approach-retreat\",\"210\",\"1452851\",\"0.0-210.0\",\"\",\"\",\"2-5\",\"4559\",\"37\",\"1\",\"Testing\",\"Stims/Figures/74-C-20-4.bmp\",\"pakata\",\"Right\",\"37\",\"3\",\"14\",\"2\",\"P\",\"C\",\"62\"
\"\",\"\",\"approach-retreat\",\"211\",\"1458903\",\"0.0-211.0\",\"\",\"\",\"2-5\",\"4543\",\"40\",\"1\",\"Testing\",\"Stims/Figures/74-J-10-4.bmp\",\"mamala\",\"Down\",\"40\",\"3\",\"15\",\"2\",\"S\",\"C\",\"63\"
\"\",\"\",\"approach-retreat\",\"212\",\"1464851\",\"0.0-212.0\",\"\",\"\",\"2-5\",\"4439\",\"40\",\"1\",\"Testing\",\"Stims/Figures/100-J-10-3.bmp\",\"mamala\",\"Down\",\"40\",\"3\",\"16\",\"2\",\"S\",\"C\",\"64\"
\"\",\"\",\"approach-retreat\",\"213\",\"1470948\",\"0.0-213.0\",\"\",\"\",\"2-5\",\"4589\",\"40\",\"1\",\"Testing\",\"Stims/Figures/85-C-20-2.bmp\",\"pakata\",\"Up\",\"40\",\"3\",\"17\",\"2\",\"P\",\"C\",\"65\"
\"\",\"\",\"approach-retreat\",\"214\",\"1477442\",\"0.0-214.0\",\"\",\"\",\"2-5\",\"4985\",\"38\",\"1\",\"Testing\",\"Stims/Figures/128-C-30-3.bmp\",\"pakata\",\"Down\",\"38\",\"3\",\"18\",\"2\",\"P\",\"C\",\"66\"
\"\",\"\",\"approach-retreat\",\"215\",\"1484519\",\"0.0-215.0\",\"\",\"\",\"2-5\",\"5568\",\"40\",\"1\",\"Testing\",\"Stims/Figures/27-C-30-1.bmp\",\"pakata\",\"Up\",\"40\",\"3\",\"19\",\"2\",\"P\",\"C\",\"67\"
\"\",\"\",\"approach-retreat\",\"216\",\"1490700\",\"0.0-216.0\",\"\",\"\",\"2-5\",\"4674\",\"37\",\"1\",\"Testing\",\"Stims/Figures/85-J-0-2.bmp\",\"mamala\",\"Left\",\"37\",\"3\",\"20\",\"2\",\"S\",\"C\",\"68\"
\"\",\"\",\"approach-retreat\",\"217\",\"1496610\",\"0.0-217.0\",\"\",\"\",\"2-5\",\"4401\",\"39\",\"1\",\"Testing\",\"Stims/Figures/94-J-0-2.bmp\",\"mamala\",\"Right\",\"39\",\"3\",\"21\",\"2\",\"S\",\"C\",\"69\"
\"\",\"\",\"approach-retreat\",\"218\",\"1502735\",\"0.0-218.0\",\"\",\"\",\"2-5\",\"4616\",\"37\",\"1\",\"Testing\",\"Stims/Figures/27-J-0-1.bmp\",\"mamala\",\"Left\",\"37\",\"3\",\"22\",\"2\",\"S\",\"C\",\"70\"
\"\",\"\",\"approach-retreat\",\"219\",\"1509948\",\"0.0-219.0\",\"\",\"\",\"2-5\",\"5706\",\"40\",\"1\",\"Testing\",\"Stims/Figures/102-C-20-4.bmp\",\"pakata\",\"Up\",\"40\",\"3\",\"23\",\"2\",\"P\",\"C\",\"71\"
\"\",\"\",\"approach-retreat\",\"220\",\"1516689\",\"0.0-220.0\",\"\",\"\",\"2-5\",\"5232\",\"39\",\"1\",\"Testing\",\"Stims/Figures/84-C-20-2.bmp\",\"pakata\",\"Left\",\"39\",\"3\",\"24\",\"2\",\"P\",\"C\",\"72\"
\"\",\"\",\"approach-retreat\",\"221\",\"1522698\",\"0.0-221.0\",\"\",\"\",\"2-5\",\"4501\",\"40\",\"1\",\"Testing\",\"Stims/Figures/94-J-0-2.bmp\",\"mamala\",\"Down\",\"40\",\"4\",\"1\",\"2\",\"S\",\"C\",\"73\"
\"\",\"\",\"approach-retreat\",\"222\",\"1529152\",\"0.0-222.0\",\"\",\"\",\"2-5\",\"4945\",\"37\",\"1\",\"Testing\",\"Stims/Figures/85-J-0-2.bmp\",\"mamala\",\"Left\",\"37\",\"4\",\"2\",\"2\",\"S\",\"C\",\"74\"
\"\",\"\",\"approach-retreat\",\"223\",\"1535194\",\"0.0-223.0\",\"\",\"\",\"2-5\",\"4533\",\"40\",\"1\",\"Testing\",\"Stims/Figures/144-J-10-3.bmp\",\"mamala\",\"Down\",\"40\",\"4\",\"3\",\"2\",\"S\",\"C\",\"75\"
\"\",\"\",\"approach-retreat\",\"224\",\"1541128\",\"0.0-224.0\",\"\",\"\",\"2-5\",\"4425\",\"40\",\"1\",\"Testing\",\"Stims/Figures/93-J-0-1.bmp\",\"mamala\",\"Down\",\"40\",\"4\",\"4\",\"2\",\"S\",\"C\",\"76\"
\"\",\"\",\"approach-retreat\",\"225\",\"1548614\",\"0.0-225.0\",\"\",\"\",\"2-5\",\"5977\",\"39\",\"1\",\"Testing\",\"Stims/Figures/27-C-30-1.bmp\",\"pakata\",\"Left\",\"39\",\"4\",\"5\",\"2\",\"P\",\"C\",\"77\"
\"\",\"\",\"approach-retreat\",\"226\",\"1554607\",\"0.0-226.0\",\"\",\"\",\"2-5\",\"4485\",\"39\",\"1\",\"Testing\",\"Stims/Figures/57-J-0-1.bmp\",\"mamala\",\"Right\",\"39\",\"4\",\"6\",\"2\",\"S\",\"C\",\"78\"
\"\",\"\",\"approach-retreat\",\"227\",\"1560334\",\"0.0-227.0\",\"\",\"\",\"2-5\",\"4218\",\"37\",\"1\",\"Testing\",\"Stims/Figures/102-C-20-4.bmp\",\"pakata\",\"Right\",\"37\",\"4\",\"7\",\"2\",\"P\",\"C\",\"79\"
\"\",\"\",\"approach-retreat\",\"228\",\"1567471\",\"0.0-228.0\",\"\",\"\",\"2-5\",\"5628\",\"39\",\"0\",\"Testing\",\"Stims/Figures/7-J-10-4.bmp\",\"mamala\",\"Left\",\"37\",\"4\",\"8\",\"2\",\"S\",\"C\",\"80\"
\"\",\"\",\"approach-retreat\",\"229\",\"1573970\",\"0.0-229.0\",\"\",\"\",\"2-5\",\"4991\",\"38\",\"1\",\"Testing\",\"Stims/Figures/93-C-30-1.bmp\",\"pakata\",\"Down\",\"38\",\"4\",\"9\",\"2\",\"P\",\"C\",\"81\"
\"\",\"\",\"approach-retreat\",\"230\",\"1580031\",\"0.0-230.0\",\"\",\"\",\"2-5\",\"4553\",\"37\",\"1\",\"Testing\",\"Stims/Figures/84-C-20-2.bmp\",\"pakata\",\"Right\",\"37\",\"4\",\"10\",\"2\",\"P\",\"C\",\"82\"
\"\",\"\",\"approach-retreat\",\"231\",\"1585797\",\"0.0-231.0\",\"\",\"\",\"2-5\",\"4257\",\"37\",\"1\",\"Testing\",\"Stims/Figures/128-C-30-3.bmp\",\"pakata\",\"Right\",\"37\",\"4\",\"11\",\"2\",\"P\",\"C\",\"83\"
\"\",\"\",\"approach-retreat\",\"232\",\"1591515\",\"0.0-232.0\",\"\",\"\",\"2-5\",\"4209\",\"39\",\"1\",\"Testing\",\"Stims/Figures/128-J-10-3.bmp\",\"mamala\",\"Right\",\"39\",\"4\",\"12\",\"2\",\"S\",\"C\",\"84\"
\"\",\"\",\"approach-retreat\",\"233\",\"1597485\",\"0.0-233.0\",\"\",\"\",\"2-5\",\"4460\",\"40\",\"1\",\"Testing\",\"Stims/Figures/144-C-30-3.bmp\",\"pakata\",\"Up\",\"40\",\"4\",\"13\",\"2\",\"P\",\"C\",\"85\"
\"\",\"\",\"approach-retreat\",\"234\",\"1604078\",\"0.0-234.0\",\"\",\"\",\"2-5\",\"5087\",\"39\",\"1\",\"Testing\",\"Stims/Figures/57-C-30-1.bmp\",\"pakata\",\"Left\",\"39\",\"4\",\"14\",\"2\",\"P\",\"C\",\"86\"
\"\",\"\",\"approach-retreat\",\"235\",\"1610017\",\"0.0-235.0\",\"\",\"\",\"2-5\",\"4431\",\"37\",\"1\",\"Testing\",\"Stims/Figures/94-C-20-2.bmp\",\"pakata\",\"Right\",\"37\",\"4\",\"15\",\"2\",\"P\",\"C\",\"87\"
\"\",\"\",\"approach-retreat\",\"236\",\"1616075\",\"0.0-236.0\",\"\",\"\",\"2-5\",\"4548\",\"40\",\"1\",\"Testing\",\"Stims/Figures/100-C-30-3.bmp\",\"pakata\",\"Up\",\"40\",\"4\",\"16\",\"2\",\"P\",\"C\",\"88\"
\"\",\"\",\"approach-retreat\",\"237\",\"1622661\",\"0.0-237.0\",\"\",\"\",\"2-5\",\"5078\",\"40\",\"1\",\"Testing\",\"Stims/Figures/74-C-20-4.bmp\",\"pakata\",\"Up\",\"40\",\"4\",\"17\",\"2\",\"P\",\"C\",\"89\"
\"\",\"\",\"approach-retreat\",\"238\",\"1628648\",\"0.0-238.0\",\"\",\"\",\"2-5\",\"4478\",\"37\",\"1\",\"Testing\",\"Stims/Figures/74-J-10-4.bmp\",\"mamala\",\"Left\",\"37\",\"4\",\"18\",\"2\",\"S\",\"C\",\"90\"
\"\",\"\",\"approach-retreat\",\"239\",\"1634467\",\"0.0-239.0\",\"\",\"\",\"2-5\",\"4311\",\"38\",\"0\",\"Testing\",\"Stims/Figures/102-J-10-4.bmp\",\"mamala\",\"Down\",\"40\",\"4\",\"19\",\"2\",\"S\",\"C\",\"91\"
\"\",\"\",\"approach-retreat\",\"240\",\"1640426\",\"0.0-240.0\",\"\",\"\",\"2-5\",\"4449\",\"40\",\"1\",\"Testing\",\"Stims/Figures/85-C-20-2.bmp\",\"pakata\",\"Up\",\"40\",\"4\",\"20\",\"2\",\"P\",\"C\",\"92\"
\"\",\"\",\"approach-retreat\",\"241\",\"1646521\",\"0.0-241.0\",\"\",\"\",\"2-5\",\"4588\",\"37\",\"1\",\"Testing\",\"Stims/Figures/84-J-0-2.bmp\",\"mamala\",\"Left\",\"37\",\"4\",\"21\",\"2\",\"S\",\"C\",\"93\"
\"\",\"\",\"approach-retreat\",\"242\",\"1652978\",\"0.0-242.0\",\"\",\"\",\"2-5\",\"4950\",\"38\",\"1\",\"Testing\",\"Stims/Figures/27-J-0-1.bmp\",\"mamala\",\"Up\",\"38\",\"4\",\"22\",\"2\",\"S\",\"C\",\"94\"
\"\",\"\",\"approach-retreat\",\"243\",\"1661713\",\"0.0-243.0\",\"\",\"\",\"2-5\",\"7227\",\"40\",\"1\",\"Testing\",\"Stims/Figures/100-J-10-3.bmp\",\"mamala\",\"Down\",\"40\",\"4\",\"23\",\"2\",\"S\",\"C\",\"95\"
\"\",\"\",\"approach-retreat\",\"244\",\"1667724\",\"0.0-244.0\",\"\",\"\",\"2-5\",\"4502\",\"40\",\"1\",\"Testing\",\"Stims/Figures/7-C-20-4.bmp\",\"pakata\",\"Up\",\"40\",\"4\",\"24\",\"2\",\"P\",\"C\",\"96\"
\"38801\",\"\",\"survey-text\",\"245\",\"1706534\",\"0.0-245.0\",\"\",\"{\"\"Q0\"\":\"\"PS160076\"\"}\",\"\",\"\",\"\",\"\",\"\",\"\",\"\",\"\",\"\",\"\",\"\",\"\",\"\",\"\",\"\"
