\"rt\",\"key_press\",\"trial_type\",\"trial_index\",\"time_elapsed\",\"internal_node_id\",\"view_history\",\"responses\",\"Id\",\"Rt\",\"ResKeyCode\",\"ResCorr\",\"TrialType2\",\"Image\",\"Label\",\"Location\",\"CorrectResponse\",\"Block\",\"BlockTrial\",\"Condition\",\"LabelType\",\"Subcondition\",\"trialNum\"
\"215081\",\"32\",\"text\",\"0\",\"215111\",\"0.0-0.0-0.0\",\"\",\"\",\"\",\"\",\"\",\"\",\"\",\"\",\"\",\"\",\"\",\"\",\"\",\"\",\"\",\"\",\"\"
\"50531\",\"\",\"instructions\",\"1\",\"265645\",\"0.0-1.0\",\"[{\"\"page_index\"\":0,\"\"viewing_time\"\":50530}]\",\"\",\"\",\"\",\"\",\"\",\"\",\"\",\"\",\"\",\"\",\"\",\"\",\"\",\"\",\"\",\"\"
\"8965\",\"\",\"survey-multi-choice\",\"2\",\"274652\",\"0.0-2.0\",\"\",\"{\"\"Q0\"\":\"\"Da\"\",\"\"Q1\"\":\"\"Da\"\",\"\"Q2\"\":\"\"Da\"\",\"\"Q3\"\":\"\"Da\"\",\"\"Q4\"\":\"\"Da\"\",\"\"Q5\"\":\"\"Da\"\"}\",\"\",\"\",\"\",\"\",\"\",\"\",\"\",\"\",\"\",\"\",\"\",\"\",\"\",\"\",\"\"
\"\",\"\",\"bio\",\"3\",\"281365\",\"0.0-3.0\",\"\",\"{\"\"age\"\":\"\"22\"\",\"\"gender\"\":\"\"f\"\",\"\"specify\"\":\"\"\"\"}\",\"\",\"\",\"\",\"\",\"\",\"\",\"\",\"\",\"\",\"\",\"\",\"\",\"\",\"\",\"\"
\"\",\"\",\"approach-retreat\",\"4\",\"288389\",\"0.0-4.0\",\"\",\"\",\"2-4\",\"5513\",\"40\",\"0\",\"Training\",\"Stims/Figures/128-J-10-3.bmp\",\"na:mana\",\"Down\",\"38\",\"1\",\"1\",\"7\",\"S\",\"J\",\"1\"
\"\",\"\",\"approach-retreat\",\"5\",\"294915\",\"0.0-5.0\",\"\",\"\",\"2-4\",\"5016\",\"37\",\"1\",\"Training\",\"Stims/Figures/128-C-30-3.bmp\",\"mama:la\",\"Left\",\"37\",\"1\",\"2\",\"7\",\"S\",\"J\",\"2\"
\"\",\"\",\"approach-retreat\",\"6\",\"302390\",\"0.0-6.0\",\"\",\"\",\"2-4\",\"5966\",\"38\",\"1\",\"Training\",\"Stims/Figures/93-C-30-1.bmp\",\"pa:pa:ta\",\"Up\",\"38\",\"1\",\"3\",\"7\",\"P\",\"J\",\"3\"
\"\",\"\",\"approach-retreat\",\"7\",\"307955\",\"0.0-7.0\",\"\",\"\",\"2-4\",\"4057\",\"39\",\"1\",\"Training\",\"Stims/Figures/139-C-20-2.bmp\",\"tapa:ta\",\"Right\",\"39\",\"1\",\"4\",\"7\",\"P\",\"J\",\"4\"
\"\",\"\",\"approach-retreat\",\"8\",\"313751\",\"0.0-8.0\",\"\",\"\",\"2-4\",\"4289\",\"37\",\"0\",\"Training\",\"Stims/Figures/93-J-0-1.bmp\",\"papa:ka\",\"Left\",\"39\",\"1\",\"5\",\"7\",\"P\",\"J\",\"5\"
\"\",\"\",\"approach-retreat\",\"9\",\"320871\",\"0.0-9.0\",\"\",\"\",\"2-4\",\"5612\",\"38\",\"1\",\"Training\",\"Stims/Figures/118-J-0-2.bmp\",\"ta:ka:ta\",\"Down\",\"38\",\"1\",\"6\",\"7\",\"P\",\"J\",\"6\"
\"\",\"\",\"approach-retreat\",\"10\",\"327099\",\"0.0-10.0\",\"\",\"\",\"2-4\",\"4719\",\"38\",\"1\",\"Training\",\"Stims/Figures/139-J-0-2.bmp\",\"paka:ta\",\"Down\",\"38\",\"1\",\"7\",\"7\",\"P\",\"J\",\"7\"
\"\",\"\",\"approach-retreat\",\"11\",\"332983\",\"0.0-11.0\",\"\",\"\",\"2-4\",\"4374\",\"38\",\"1\",\"Training\",\"Stims/Figures/118-C-20-2.bmp\",\"pa:pa:ka\",\"Up\",\"38\",\"1\",\"8\",\"7\",\"P\",\"J\",\"8\"
\"\",\"\",\"approach-retreat\",\"12\",\"338658\",\"0.0-12.0\",\"\",\"\",\"2-4\",\"4160\",\"38\",\"1\",\"Training\",\"Stims/Figures/86-C-30-1.bmp\",\"pa:pata\",\"Up\",\"38\",\"1\",\"9\",\"7\",\"P\",\"J\",\"9\"
\"\",\"\",\"approach-retreat\",\"13\",\"344648\",\"0.0-13.0\",\"\",\"\",\"2-4\",\"4481\",\"37\",\"1\",\"Training\",\"Stims/Figures/100-C-30-3.bmp\",\"na:mala\",\"Left\",\"37\",\"1\",\"10\",\"7\",\"S\",\"J\",\"10\"
\"\",\"\",\"approach-retreat\",\"14\",\"353101\",\"0.0-14.0\",\"\",\"\",\"2-4\",\"6946\",\"39\",\"0\",\"Training\",\"Stims/Figures/74-J-10-4.bmp\",\"mala:la\",\"Right\",\"37\",\"1\",\"11\",\"7\",\"S\",\"J\",\"11\"
\"\",\"\",\"approach-retreat\",\"15\",\"359424\",\"0.0-15.0\",\"\",\"\",\"2-4\",\"4815\",\"37\",\"1\",\"Training\",\"Stims/Figures/7-C-20-4.bmp\",\"ma:lana\",\"Left\",\"37\",\"1\",\"12\",\"7\",\"S\",\"J\",\"12\"
\"\",\"\",\"approach-retreat\",\"16\",\"365732\",\"0.0-16.0\",\"\",\"\",\"2-4\",\"4799\",\"37\",\"1\",\"Training\",\"Stims/Figures/86-J-0-1.bmp\",\"pa:kata\",\"Right\",\"37\",\"1\",\"13\",\"7\",\"P\",\"J\",\"13\"
\"\",\"\",\"approach-retreat\",\"17\",\"372660\",\"0.0-17.0\",\"\",\"\",\"2-4\",\"5420\",\"39\",\"0\",\"Training\",\"Stims/Figures/7-J-10-4.bmp\",\"malala\",\"Right\",\"37\",\"1\",\"14\",\"7\",\"S\",\"J\",\"14\"
\"\",\"\",\"approach-retreat\",\"18\",\"378931\",\"0.0-18.0\",\"\",\"\",\"2-4\",\"4764\",\"40\",\"1\",\"Training\",\"Stims/Figures/74-C-20-4.bmp\",\"ma:mala\",\"Down\",\"40\",\"1\",\"15\",\"7\",\"S\",\"J\",\"15\"
\"\",\"\",\"approach-retreat\",\"19\",\"385691\",\"0.0-19.0\",\"\",\"\",\"2-4\",\"5252\",\"40\",\"1\",\"Training\",\"Stims/Figures/100-J-10-3.bmp\",\"mamana\",\"Up\",\"40\",\"1\",\"16\",\"7\",\"S\",\"J\",\"16\"
\"\",\"\",\"approach-retreat\",\"20\",\"391692\",\"0.0-20.0\",\"\",\"\",\"2-4\",\"4493\",\"38\",\"1\",\"Training\",\"Stims/Figures/128-C-30-3.bmp\",\"mama:la\",\"Up\",\"38\",\"2\",\"1\",\"7\",\"S\",\"J\",\"17\"
\"\",\"\",\"approach-retreat\",\"21\",\"397576\",\"0.0-21.0\",\"\",\"\",\"2-4\",\"4376\",\"40\",\"1\",\"Training\",\"Stims/Figures/118-J-0-2.bmp\",\"ta:ka:ta\",\"Up\",\"40\",\"2\",\"2\",\"7\",\"P\",\"J\",\"18\"
\"\",\"\",\"approach-retreat\",\"22\",\"405381\",\"0.0-22.0\",\"\",\"\",\"2-4\",\"6297\",\"37\",\"1\",\"Training\",\"Stims/Figures/93-C-30-1.bmp\",\"pa:pa:ta\",\"Left\",\"37\",\"2\",\"3\",\"7\",\"P\",\"J\",\"19\"
\"\",\"\",\"approach-retreat\",\"23\",\"412715\",\"0.0-23.0\",\"\",\"\",\"2-4\",\"5827\",\"39\",\"1\",\"Training\",\"Stims/Figures/7-C-20-4.bmp\",\"ma:lana\",\"Right\",\"39\",\"2\",\"4\",\"7\",\"S\",\"J\",\"20\"
\"\",\"\",\"approach-retreat\",\"24\",\"419708\",\"0.0-24.0\",\"\",\"\",\"2-4\",\"5484\",\"37\",\"0\",\"Training\",\"Stims/Figures/139-C-20-2.bmp\",\"tapa:ta\",\"Right\",\"39\",\"2\",\"5\",\"7\",\"P\",\"J\",\"21\"
\"\",\"\",\"approach-retreat\",\"25\",\"425764\",\"0.0-25.0\",\"\",\"\",\"2-4\",\"4548\",\"40\",\"1\",\"Training\",\"Stims/Figures/86-C-30-1.bmp\",\"pa:pata\",\"Down\",\"40\",\"2\",\"6\",\"7\",\"P\",\"J\",\"22\"
\"\",\"\",\"approach-retreat\",\"26\",\"431790\",\"0.0-26.0\",\"\",\"\",\"2-4\",\"4519\",\"38\",\"1\",\"Training\",\"Stims/Figures/139-J-0-2.bmp\",\"paka:ta\",\"Down\",\"38\",\"2\",\"7\",\"7\",\"P\",\"J\",\"23\"
\"\",\"\",\"approach-retreat\",\"27\",\"438361\",\"0.0-27.0\",\"\",\"\",\"2-4\",\"5060\",\"39\",\"1\",\"Training\",\"Stims/Figures/118-C-20-2.bmp\",\"pa:pa:ka\",\"Right\",\"39\",\"2\",\"8\",\"7\",\"P\",\"J\",\"24\"
\"\",\"\",\"approach-retreat\",\"28\",\"444820\",\"0.0-28.0\",\"\",\"\",\"2-4\",\"4951\",\"39\",\"1\",\"Training\",\"Stims/Figures/86-J-0-1.bmp\",\"pa:kata\",\"Left\",\"39\",\"2\",\"9\",\"7\",\"P\",\"J\",\"25\"
\"\",\"\",\"approach-retreat\",\"29\",\"451153\",\"0.0-29.0\",\"\",\"\",\"2-4\",\"4826\",\"38\",\"1\",\"Training\",\"Stims/Figures/74-C-20-4.bmp\",\"ma:mala\",\"Up\",\"38\",\"2\",\"10\",\"7\",\"S\",\"J\",\"26\"
\"\",\"\",\"approach-retreat\",\"30\",\"457744\",\"0.0-30.0\",\"\",\"\",\"2-4\",\"5083\",\"37\",\"0\",\"Training\",\"Stims/Figures/100-J-10-3.bmp\",\"mamana\",\"Left\",\"39\",\"2\",\"11\",\"7\",\"S\",\"J\",\"27\"
\"\",\"\",\"approach-retreat\",\"31\",\"463522\",\"0.0-31.0\",\"\",\"\",\"2-4\",\"4271\",\"40\",\"0\",\"Training\",\"Stims/Figures/74-J-10-4.bmp\",\"mala:la\",\"Down\",\"38\",\"2\",\"12\",\"7\",\"S\",\"J\",\"28\"
\"\",\"\",\"approach-retreat\",\"32\",\"469246\",\"0.0-32.0\",\"\",\"\",\"2-4\",\"4214\",\"40\",\"0\",\"Training\",\"Stims/Figures/7-J-10-4.bmp\",\"malala\",\"Down\",\"38\",\"2\",\"13\",\"7\",\"S\",\"J\",\"29\"
\"\",\"\",\"approach-retreat\",\"33\",\"477095\",\"0.0-33.0\",\"\",\"\",\"2-4\",\"6341\",\"39\",\"1\",\"Training\",\"Stims/Figures/128-J-10-3.bmp\",\"na:mana\",\"Left\",\"39\",\"2\",\"14\",\"7\",\"S\",\"J\",\"30\"
\"\",\"\",\"approach-retreat\",\"34\",\"483077\",\"0.0-34.0\",\"\",\"\",\"2-4\",\"4474\",\"39\",\"1\",\"Training\",\"Stims/Figures/100-C-30-3.bmp\",\"na:mala\",\"Right\",\"39\",\"2\",\"15\",\"7\",\"S\",\"J\",\"31\"
\"\",\"\",\"approach-retreat\",\"35\",\"489236\",\"0.0-35.0\",\"\",\"\",\"2-4\",\"4652\",\"40\",\"1\",\"Training\",\"Stims/Figures/93-J-0-1.bmp\",\"papa:ka\",\"Up\",\"40\",\"2\",\"16\",\"7\",\"P\",\"J\",\"32\"
\"\",\"\",\"approach-retreat\",\"36\",\"495732\",\"0.0-36.0\",\"\",\"\",\"2-4\",\"4987\",\"40\",\"1\",\"Training\",\"Stims/Figures/93-C-30-1.bmp\",\"pa:pa:ta\",\"Down\",\"40\",\"3\",\"1\",\"7\",\"P\",\"J\",\"33\"
\"\",\"\",\"approach-retreat\",\"37\",\"501628\",\"0.0-37.0\",\"\",\"\",\"2-4\",\"4389\",\"37\",\"0\",\"Training\",\"Stims/Figures/100-J-10-3.bmp\",\"mamana\",\"Left\",\"39\",\"3\",\"2\",\"7\",\"S\",\"J\",\"34\"
\"\",\"\",\"approach-retreat\",\"38\",\"507767\",\"0.0-38.0\",\"\",\"\",\"2-4\",\"4631\",\"37\",\"1\",\"Training\",\"Stims/Figures/118-J-0-2.bmp\",\"ta:ka:ta\",\"Right\",\"37\",\"3\",\"3\",\"7\",\"P\",\"J\",\"35\"
\"\",\"\",\"approach-retreat\",\"39\",\"513537\",\"0.0-39.0\",\"\",\"\",\"2-4\",\"4262\",\"40\",\"1\",\"Training\",\"Stims/Figures/74-C-20-4.bmp\",\"ma:mala\",\"Down\",\"40\",\"3\",\"4\",\"7\",\"S\",\"J\",\"36\"
\"\",\"\",\"approach-retreat\",\"40\",\"520917\",\"0.0-40.0\",\"\",\"\",\"2-4\",\"5872\",\"40\",\"0\",\"Training\",\"Stims/Figures/74-J-10-4.bmp\",\"mala:la\",\"Down\",\"38\",\"3\",\"5\",\"7\",\"S\",\"J\",\"37\"
\"\",\"\",\"approach-retreat\",\"41\",\"528736\",\"0.0-41.0\",\"\",\"\",\"2-4\",\"6311\",\"40\",\"0\",\"Training\",\"Stims/Figures/139-C-20-2.bmp\",\"tapa:ta\",\"Up\",\"38\",\"3\",\"6\",\"7\",\"P\",\"J\",\"38\"
\"\",\"\",\"approach-retreat\",\"42\",\"538187\",\"0.0-42.0\",\"\",\"\",\"2-4\",\"7943\",\"38\",\"1\",\"Training\",\"Stims/Figures/7-C-20-4.bmp\",\"ma:lana\",\"Up\",\"38\",\"3\",\"7\",\"7\",\"S\",\"J\",\"39\"
\"\",\"\",\"approach-retreat\",\"43\",\"544452\",\"0.0-43.0\",\"\",\"\",\"2-4\",\"4757\",\"39\",\"1\",\"Training\",\"Stims/Figures/7-J-10-4.bmp\",\"malala\",\"Left\",\"39\",\"3\",\"8\",\"7\",\"S\",\"J\",\"40\"
\"\",\"\",\"approach-retreat\",\"44\",\"550185\",\"0.0-44.0\",\"\",\"\",\"2-4\",\"4226\",\"39\",\"1\",\"Training\",\"Stims/Figures/100-C-30-3.bmp\",\"na:mala\",\"Right\",\"39\",\"3\",\"9\",\"7\",\"S\",\"J\",\"41\"
\"\",\"\",\"approach-retreat\",\"45\",\"555857\",\"0.0-45.0\",\"\",\"\",\"2-4\",\"4165\",\"40\",\"1\",\"Training\",\"Stims/Figures/93-J-0-1.bmp\",\"papa:ka\",\"Up\",\"40\",\"3\",\"10\",\"7\",\"P\",\"J\",\"42\"
\"\",\"\",\"approach-retreat\",\"46\",\"561937\",\"0.0-46.0\",\"\",\"\",\"2-4\",\"4573\",\"39\",\"1\",\"Training\",\"Stims/Figures/86-J-0-1.bmp\",\"pa:kata\",\"Left\",\"39\",\"3\",\"11\",\"7\",\"P\",\"J\",\"43\"
\"\",\"\",\"approach-retreat\",\"47\",\"567616\",\"0.0-47.0\",\"\",\"\",\"2-4\",\"4171\",\"40\",\"1\",\"Training\",\"Stims/Figures/128-C-30-3.bmp\",\"mama:la\",\"Down\",\"40\",\"3\",\"12\",\"7\",\"S\",\"J\",\"44\"
\"\",\"\",\"approach-retreat\",\"48\",\"573409\",\"0.0-48.0\",\"\",\"\",\"2-4\",\"4285\",\"39\",\"1\",\"Training\",\"Stims/Figures/118-C-20-2.bmp\",\"pa:pa:ka\",\"Right\",\"39\",\"3\",\"13\",\"7\",\"P\",\"J\",\"45\"
\"\",\"\",\"approach-retreat\",\"49\",\"580021\",\"0.0-49.0\",\"\",\"\",\"2-4\",\"5105\",\"39\",\"0\",\"Training\",\"Stims/Figures/128-J-10-3.bmp\",\"na:mana\",\"Right\",\"37\",\"3\",\"14\",\"7\",\"S\",\"J\",\"46\"
\"\",\"\",\"approach-retreat\",\"50\",\"585400\",\"0.0-50.0\",\"\",\"\",\"2-4\",\"3873\",\"38\",\"1\",\"Training\",\"Stims/Figures/86-C-30-1.bmp\",\"pa:pata\",\"Up\",\"38\",\"3\",\"15\",\"7\",\"P\",\"J\",\"47\"
\"\",\"\",\"approach-retreat\",\"51\",\"591560\",\"0.0-51.0\",\"\",\"\",\"2-4\",\"4650\",\"39\",\"1\",\"Training\",\"Stims/Figures/139-J-0-2.bmp\",\"paka:ta\",\"Left\",\"39\",\"3\",\"16\",\"7\",\"P\",\"J\",\"48\"
\"\",\"\",\"approach-retreat\",\"52\",\"597652\",\"0.0-52.0\",\"\",\"\",\"2-4\",\"4584\",\"40\",\"1\",\"Training\",\"Stims/Figures/86-J-0-1.bmp\",\"pa:kata\",\"Up\",\"40\",\"4\",\"1\",\"7\",\"P\",\"J\",\"49\"
\"\",\"\",\"approach-retreat\",\"53\",\"603774\",\"0.0-53.0\",\"\",\"\",\"2-4\",\"4615\",\"39\",\"1\",\"Training\",\"Stims/Figures/93-C-30-1.bmp\",\"pa:pa:ta\",\"Right\",\"39\",\"4\",\"2\",\"7\",\"P\",\"J\",\"50\"
\"\",\"\",\"approach-retreat\",\"54\",\"609816\",\"0.0-54.0\",\"\",\"\",\"2-4\",\"4534\",\"40\",\"1\",\"Training\",\"Stims/Figures/93-J-0-1.bmp\",\"papa:ka\",\"Up\",\"40\",\"4\",\"3\",\"7\",\"P\",\"J\",\"51\"
\"\",\"\",\"approach-retreat\",\"55\",\"615591\",\"0.0-55.0\",\"\",\"\",\"2-4\",\"4265\",\"40\",\"1\",\"Training\",\"Stims/Figures/7-C-20-4.bmp\",\"ma:lana\",\"Down\",\"40\",\"4\",\"4\",\"7\",\"S\",\"J\",\"52\"
\"\",\"\",\"approach-retreat\",\"56\",\"621667\",\"0.0-56.0\",\"\",\"\",\"2-4\",\"4569\",\"37\",\"1\",\"Training\",\"Stims/Figures/100-C-30-3.bmp\",\"na:mala\",\"Left\",\"37\",\"4\",\"5\",\"7\",\"S\",\"J\",\"53\"
\"\",\"\",\"approach-retreat\",\"57\",\"627253\",\"0.0-57.0\",\"\",\"\",\"2-4\",\"4079\",\"40\",\"1\",\"Training\",\"Stims/Figures/100-J-10-3.bmp\",\"mamana\",\"Up\",\"40\",\"4\",\"6\",\"7\",\"S\",\"J\",\"54\"
\"\",\"\",\"approach-retreat\",\"58\",\"633615\",\"0.0-58.0\",\"\",\"\",\"2-4\",\"4852\",\"40\",\"1\",\"Training\",\"Stims/Figures/7-J-10-4.bmp\",\"malala\",\"Up\",\"40\",\"4\",\"7\",\"7\",\"S\",\"J\",\"55\"
\"\",\"\",\"approach-retreat\",\"59\",\"640165\",\"0.0-59.0\",\"\",\"\",\"2-4\",\"5042\",\"40\",\"1\",\"Training\",\"Stims/Figures/118-C-20-2.bmp\",\"pa:pa:ka\",\"Down\",\"40\",\"4\",\"8\",\"7\",\"P\",\"J\",\"56\"
\"\",\"\",\"approach-retreat\",\"60\",\"647832\",\"0.0-60.0\",\"\",\"\",\"2-4\",\"6160\",\"37\",\"1\",\"Training\",\"Stims/Figures/128-C-30-3.bmp\",\"mama:la\",\"Left\",\"37\",\"4\",\"9\",\"7\",\"S\",\"J\",\"57\"
\"\",\"\",\"approach-retreat\",\"61\",\"653457\",\"0.0-61.0\",\"\",\"\",\"2-4\",\"4117\",\"40\",\"1\",\"Training\",\"Stims/Figures/86-C-30-1.bmp\",\"pa:pata\",\"Down\",\"40\",\"4\",\"10\",\"7\",\"P\",\"J\",\"58\"
\"\",\"\",\"approach-retreat\",\"62\",\"659777\",\"0.0-62.0\",\"\",\"\",\"2-4\",\"4814\",\"39\",\"1\",\"Training\",\"Stims/Figures/139-C-20-2.bmp\",\"tapa:ta\",\"Right\",\"39\",\"4\",\"11\",\"7\",\"P\",\"J\",\"59\"
\"\",\"\",\"approach-retreat\",\"63\",\"665367\",\"0.0-63.0\",\"\",\"\",\"2-4\",\"4080\",\"39\",\"0\",\"Training\",\"Stims/Figures/128-J-10-3.bmp\",\"na:mana\",\"Right\",\"37\",\"4\",\"12\",\"7\",\"S\",\"J\",\"60\"
\"\",\"\",\"approach-retreat\",\"64\",\"671062\",\"0.0-64.0\",\"\",\"\",\"2-4\",\"4188\",\"39\",\"1\",\"Training\",\"Stims/Figures/139-J-0-2.bmp\",\"paka:ta\",\"Left\",\"39\",\"4\",\"13\",\"7\",\"P\",\"J\",\"61\"
\"\",\"\",\"approach-retreat\",\"65\",\"676898\",\"0.0-65.0\",\"\",\"\",\"2-4\",\"4328\",\"39\",\"0\",\"Training\",\"Stims/Figures/74-J-10-4.bmp\",\"mala:la\",\"Right\",\"37\",\"4\",\"14\",\"7\",\"S\",\"J\",\"62\"
\"\",\"\",\"approach-retreat\",\"66\",\"685349\",\"0.0-66.0\",\"\",\"\",\"2-4\",\"6944\",\"38\",\"0\",\"Training\",\"Stims/Figures/74-C-20-4.bmp\",\"ma:mala\",\"Down\",\"40\",\"4\",\"15\",\"7\",\"S\",\"J\",\"63\"
\"\",\"\",\"approach-retreat\",\"67\",\"691441\",\"0.0-67.0\",\"\",\"\",\"2-4\",\"4585\",\"39\",\"1\",\"Training\",\"Stims/Figures/118-J-0-2.bmp\",\"ta:ka:ta\",\"Left\",\"39\",\"4\",\"16\",\"7\",\"P\",\"J\",\"64\"
\"\",\"\",\"approach-retreat\",\"68\",\"697885\",\"0.0-68.0\",\"\",\"\",\"2-4\",\"4936\",\"40\",\"1\",\"Training\",\"Stims/Figures/93-C-30-1.bmp\",\"pa:pa:ta\",\"Down\",\"40\",\"5\",\"1\",\"7\",\"P\",\"J\",\"65\"
\"\",\"\",\"approach-retreat\",\"69\",\"704694\",\"0.0-69.0\",\"\",\"\",\"2-4\",\"5303\",\"39\",\"0\",\"Training\",\"Stims/Figures/74-J-10-4.bmp\",\"mala:la\",\"Right\",\"37\",\"5\",\"2\",\"7\",\"S\",\"J\",\"66\"
\"\",\"\",\"approach-retreat\",\"70\",\"710739\",\"0.0-70.0\",\"\",\"\",\"2-4\",\"4537\",\"37\",\"1\",\"Training\",\"Stims/Figures/93-J-0-1.bmp\",\"papa:ka\",\"Right\",\"37\",\"5\",\"3\",\"7\",\"P\",\"J\",\"67\"
\"\",\"\",\"approach-retreat\",\"71\",\"716765\",\"0.0-71.0\",\"\",\"\",\"2-4\",\"4519\",\"37\",\"1\",\"Training\",\"Stims/Figures/86-C-30-1.bmp\",\"pa:pata\",\"Left\",\"37\",\"5\",\"4\",\"7\",\"P\",\"J\",\"68\"
\"\",\"\",\"approach-retreat\",\"72\",\"723402\",\"0.0-72.0\",\"\",\"\",\"2-4\",\"5128\",\"40\",\"1\",\"Training\",\"Stims/Figures/86-J-0-1.bmp\",\"pa:kata\",\"Up\",\"40\",\"5\",\"5\",\"7\",\"P\",\"J\",\"69\"
\"\",\"\",\"approach-retreat\",\"73\",\"729474\",\"0.0-73.0\",\"\",\"\",\"2-4\",\"4565\",\"40\",\"1\",\"Training\",\"Stims/Figures/139-J-0-2.bmp\",\"paka:ta\",\"Up\",\"40\",\"5\",\"6\",\"7\",\"P\",\"J\",\"70\"
\"\",\"\",\"approach-retreat\",\"74\",\"735886\",\"0.0-74.0\",\"\",\"\",\"2-4\",\"4903\",\"40\",\"0\",\"Training\",\"Stims/Figures/7-J-10-4.bmp\",\"malala\",\"Down\",\"38\",\"5\",\"7\",\"7\",\"S\",\"J\",\"71\"
\"\",\"\",\"approach-retreat\",\"75\",\"744236\",\"0.0-75.0\",\"\",\"\",\"2-4\",\"6841\",\"39\",\"1\",\"Training\",\"Stims/Figures/128-J-10-3.bmp\",\"na:mana\",\"Left\",\"39\",\"5\",\"8\",\"7\",\"S\",\"J\",\"72\"
\"\",\"\",\"approach-retreat\",\"76\",\"751992\",\"0.0-76.0\",\"\",\"\",\"2-4\",\"6248\",\"38\",\"0\",\"Training\",\"Stims/Figures/139-C-20-2.bmp\",\"tapa:ta\",\"Down\",\"40\",\"5\",\"9\",\"7\",\"P\",\"J\",\"73\"
\"\",\"\",\"approach-retreat\",\"77\",\"758815\",\"0.0-77.0\",\"\",\"\",\"2-4\",\"5316\",\"38\",\"0\",\"Training\",\"Stims/Figures/100-J-10-3.bmp\",\"mamana\",\"Up\",\"40\",\"5\",\"10\",\"7\",\"S\",\"J\",\"74\"
\"\",\"\",\"approach-retreat\",\"78\",\"764886\",\"0.0-78.0\",\"\",\"\",\"2-4\",\"4564\",\"37\",\"1\",\"Training\",\"Stims/Figures/74-C-20-4.bmp\",\"ma:mala\",\"Left\",\"37\",\"5\",\"11\",\"7\",\"S\",\"J\",\"75\"
\"\",\"\",\"approach-retreat\",\"79\",\"770741\",\"0.0-79.0\",\"\",\"\",\"2-4\",\"4347\",\"40\",\"1\",\"Training\",\"Stims/Figures/128-C-30-3.bmp\",\"mama:la\",\"Down\",\"40\",\"5\",\"12\",\"7\",\"S\",\"J\",\"76\"
\"\",\"\",\"approach-retreat\",\"80\",\"776826\",\"0.0-80.0\",\"\",\"\",\"2-4\",\"4576\",\"38\",\"1\",\"Training\",\"Stims/Figures/7-C-20-4.bmp\",\"ma:lana\",\"Up\",\"38\",\"5\",\"13\",\"7\",\"S\",\"J\",\"77\"
\"\",\"\",\"approach-retreat\",\"81\",\"782697\",\"0.0-81.0\",\"\",\"\",\"2-4\",\"4363\",\"37\",\"1\",\"Training\",\"Stims/Figures/118-C-20-2.bmp\",\"pa:pa:ka\",\"Left\",\"37\",\"5\",\"14\",\"7\",\"P\",\"J\",\"78\"
\"\",\"\",\"approach-retreat\",\"82\",\"789136\",\"0.0-82.0\",\"\",\"\",\"2-4\",\"4931\",\"37\",\"1\",\"Training\",\"Stims/Figures/118-J-0-2.bmp\",\"ta:ka:ta\",\"Right\",\"37\",\"5\",\"15\",\"7\",\"P\",\"J\",\"79\"
\"\",\"\",\"approach-retreat\",\"83\",\"795107\",\"0.0-83.0\",\"\",\"\",\"2-4\",\"4462\",\"39\",\"1\",\"Training\",\"Stims/Figures/100-C-30-3.bmp\",\"na:mala\",\"Right\",\"39\",\"5\",\"16\",\"7\",\"S\",\"J\",\"80\"
\"\",\"\",\"approach-retreat\",\"84\",\"801026\",\"0.0-84.0\",\"\",\"\",\"2-4\",\"4411\",\"38\",\"1\",\"Training\",\"Stims/Figures/86-J-0-1.bmp\",\"pa:kata\",\"Down\",\"38\",\"6\",\"1\",\"7\",\"P\",\"J\",\"81\"
\"\",\"\",\"approach-retreat\",\"85\",\"806941\",\"0.0-85.0\",\"\",\"\",\"2-4\",\"4407\",\"38\",\"1\",\"Training\",\"Stims/Figures/128-C-30-3.bmp\",\"mama:la\",\"Up\",\"38\",\"6\",\"2\",\"7\",\"S\",\"J\",\"82\"
\"\",\"\",\"approach-retreat\",\"86\",\"812673\",\"0.0-86.0\",\"\",\"\",\"2-4\",\"4223\",\"37\",\"1\",\"Training\",\"Stims/Figures/139-C-20-2.bmp\",\"tapa:ta\",\"Left\",\"37\",\"6\",\"3\",\"7\",\"P\",\"J\",\"83\"
\"\",\"\",\"approach-retreat\",\"87\",\"818609\",\"0.0-87.0\",\"\",\"\",\"2-4\",\"4427\",\"37\",\"1\",\"Training\",\"Stims/Figures/100-C-30-3.bmp\",\"na:mala\",\"Left\",\"37\",\"6\",\"4\",\"7\",\"S\",\"J\",\"84\"
\"\",\"\",\"approach-retreat\",\"88\",\"824822\",\"0.0-88.0\",\"\",\"\",\"2-4\",\"4704\",\"39\",\"1\",\"Training\",\"Stims/Figures/86-C-30-1.bmp\",\"pa:pata\",\"Right\",\"39\",\"6\",\"5\",\"7\",\"P\",\"J\",\"85\"
\"\",\"\",\"approach-retreat\",\"89\",\"831128\",\"0.0-89.0\",\"\",\"\",\"2-4\",\"4797\",\"38\",\"1\",\"Training\",\"Stims/Figures/118-C-20-2.bmp\",\"pa:pa:ka\",\"Up\",\"38\",\"6\",\"6\",\"7\",\"P\",\"J\",\"86\"
\"\",\"\",\"approach-retreat\",\"90\",\"836887\",\"0.0-90.0\",\"\",\"\",\"2-4\",\"4251\",\"38\",\"1\",\"Training\",\"Stims/Figures/93-C-30-1.bmp\",\"pa:pa:ta\",\"Up\",\"38\",\"6\",\"7\",\"7\",\"P\",\"J\",\"87\"
\"\",\"\",\"approach-retreat\",\"91\",\"842990\",\"0.0-91.0\",\"\",\"\",\"2-4\",\"4594\",\"37\",\"1\",\"Training\",\"Stims/Figures/139-J-0-2.bmp\",\"paka:ta\",\"Right\",\"37\",\"6\",\"8\",\"7\",\"P\",\"J\",\"88\"
\"\",\"\",\"approach-retreat\",\"92\",\"850021\",\"0.0-92.0\",\"\",\"\",\"2-4\",\"5522\",\"37\",\"1\",\"Training\",\"Stims/Figures/93-J-0-1.bmp\",\"papa:ka\",\"Right\",\"37\",\"6\",\"9\",\"7\",\"P\",\"J\",\"89\"
\"\",\"\",\"approach-retreat\",\"93\",\"856926\",\"0.0-93.0\",\"\",\"\",\"2-4\",\"5397\",\"38\",\"0\",\"Training\",\"Stims/Figures/100-J-10-3.bmp\",\"mamana\",\"Up\",\"40\",\"6\",\"10\",\"7\",\"S\",\"J\",\"90\"
\"\",\"\",\"approach-retreat\",\"94\",\"864717\",\"0.0-94.0\",\"\",\"\",\"2-4\",\"6281\",\"39\",\"1\",\"Training\",\"Stims/Figures/118-J-0-2.bmp\",\"ta:ka:ta\",\"Left\",\"39\",\"6\",\"11\",\"7\",\"P\",\"J\",\"91\"
\"\",\"\",\"approach-retreat\",\"95\",\"870717\",\"0.0-95.0\",\"\",\"\",\"2-4\",\"4493\",\"37\",\"0\",\"Training\",\"Stims/Figures/128-J-10-3.bmp\",\"na:mana\",\"Left\",\"39\",\"6\",\"12\",\"7\",\"S\",\"J\",\"92\"
\"\",\"\",\"approach-retreat\",\"96\",\"876449\",\"0.0-96.0\",\"\",\"\",\"2-4\",\"4224\",\"38\",\"1\",\"Training\",\"Stims/Figures/74-J-10-4.bmp\",\"mala:la\",\"Down\",\"38\",\"6\",\"13\",\"7\",\"S\",\"J\",\"93\"
\"\",\"\",\"approach-retreat\",\"97\",\"882246\",\"0.0-97.0\",\"\",\"\",\"2-4\",\"4289\",\"37\",\"1\",\"Training\",\"Stims/Figures/7-J-10-4.bmp\",\"malala\",\"Right\",\"37\",\"6\",\"14\",\"7\",\"S\",\"J\",\"94\"
\"\",\"\",\"approach-retreat\",\"98\",\"888242\",\"0.0-98.0\",\"\",\"\",\"2-4\",\"4487\",\"40\",\"1\",\"Training\",\"Stims/Figures/7-C-20-4.bmp\",\"ma:lana\",\"Down\",\"40\",\"6\",\"15\",\"7\",\"S\",\"J\",\"95\"
\"\",\"\",\"approach-retreat\",\"99\",\"894856\",\"0.0-99.0\",\"\",\"\",\"2-4\",\"5105\",\"40\",\"1\",\"Training\",\"Stims/Figures/74-C-20-4.bmp\",\"ma:mala\",\"Down\",\"40\",\"6\",\"16\",\"7\",\"S\",\"J\",\"96\"
\"\",\"\",\"approach-retreat\",\"100\",\"900882\",\"0.0-100.0\",\"\",\"\",\"2-4\",\"4519\",\"40\",\"1\",\"Training\",\"Stims/Figures/93-J-0-1.bmp\",\"papa:ka\",\"Up\",\"40\",\"7\",\"1\",\"7\",\"P\",\"J\",\"97\"
\"\",\"\",\"approach-retreat\",\"101\",\"909110\",\"0.0-101.0\",\"\",\"\",\"2-4\",\"6720\",\"38\",\"1\",\"Training\",\"Stims/Figures/74-J-10-4.bmp\",\"mala:la\",\"Down\",\"38\",\"7\",\"2\",\"7\",\"S\",\"J\",\"98\"
\"\",\"\",\"approach-retreat\",\"102\",\"915206\",\"0.0-102.0\",\"\",\"\",\"2-4\",\"4588\",\"39\",\"1\",\"Training\",\"Stims/Figures/86-C-30-1.bmp\",\"pa:pata\",\"Right\",\"39\",\"7\",\"3\",\"7\",\"P\",\"J\",\"99\"
\"\",\"\",\"approach-retreat\",\"103\",\"921279\",\"0.0-103.0\",\"\",\"\",\"2-4\",\"4564\",\"39\",\"1\",\"Training\",\"Stims/Figures/86-J-0-1.bmp\",\"pa:kata\",\"Left\",\"39\",\"7\",\"4\",\"7\",\"P\",\"J\",\"100\"
\"\",\"\",\"approach-retreat\",\"104\",\"927514\",\"0.0-104.0\",\"\",\"\",\"2-4\",\"4727\",\"38\",\"1\",\"Training\",\"Stims/Figures/128-C-30-3.bmp\",\"mama:la\",\"Up\",\"38\",\"7\",\"5\",\"7\",\"S\",\"J\",\"101\"
\"\",\"\",\"approach-retreat\",\"105\",\"934141\",\"0.0-105.0\",\"\",\"\",\"2-4\",\"5118\",\"40\",\"1\",\"Training\",\"Stims/Figures/74-C-20-4.bmp\",\"ma:mala\",\"Down\",\"40\",\"7\",\"6\",\"7\",\"S\",\"J\",\"102\"
\"\",\"\",\"approach-retreat\",\"106\",\"940357\",\"0.0-106.0\",\"\",\"\",\"2-4\",\"4708\",\"40\",\"1\",\"Training\",\"Stims/Figures/7-C-20-4.bmp\",\"ma:lana\",\"Down\",\"40\",\"7\",\"7\",\"7\",\"S\",\"J\",\"103\"
\"\",\"\",\"approach-retreat\",\"107\",\"946436\",\"0.0-107.0\",\"\",\"\",\"2-4\",\"4572\",\"39\",\"1\",\"Training\",\"Stims/Figures/7-J-10-4.bmp\",\"malala\",\"Left\",\"39\",\"7\",\"8\",\"7\",\"S\",\"J\",\"104\"
\"\",\"\",\"approach-retreat\",\"108\",\"952641\",\"0.0-108.0\",\"\",\"\",\"2-4\",\"4697\",\"38\",\"1\",\"Training\",\"Stims/Figures/100-C-30-3.bmp\",\"na:mala\",\"Up\",\"38\",\"7\",\"9\",\"7\",\"S\",\"J\",\"105\"
\"\",\"\",\"approach-retreat\",\"109\",\"959927\",\"0.0-109.0\",\"\",\"\",\"2-4\",\"5778\",\"37\",\"1\",\"Training\",\"Stims/Figures/100-J-10-3.bmp\",\"mamana\",\"Right\",\"37\",\"7\",\"10\",\"7\",\"S\",\"J\",\"106\"
\"\",\"\",\"approach-retreat\",\"110\",\"966022\",\"0.0-110.0\",\"\",\"\",\"2-4\",\"4587\",\"37\",\"1\",\"Training\",\"Stims/Figures/139-J-0-2.bmp\",\"paka:ta\",\"Right\",\"37\",\"7\",\"11\",\"7\",\"P\",\"J\",\"107\"
\"\",\"\",\"approach-retreat\",\"111\",\"973371\",\"0.0-111.0\",\"\",\"\",\"2-4\",\"5842\",\"39\",\"0\",\"Training\",\"Stims/Figures/128-J-10-3.bmp\",\"na:mana\",\"Right\",\"37\",\"7\",\"12\",\"7\",\"S\",\"J\",\"108\"
\"\",\"\",\"approach-retreat\",\"112\",\"979739\",\"0.0-112.0\",\"\",\"\",\"2-4\",\"4859\",\"37\",\"1\",\"Training\",\"Stims/Figures/139-C-20-2.bmp\",\"tapa:ta\",\"Left\",\"37\",\"7\",\"13\",\"7\",\"P\",\"J\",\"109\"
\"\",\"\",\"approach-retreat\",\"113\",\"985591\",\"0.0-113.0\",\"\",\"\",\"2-4\",\"4343\",\"38\",\"1\",\"Training\",\"Stims/Figures/118-J-0-2.bmp\",\"ta:ka:ta\",\"Down\",\"38\",\"7\",\"14\",\"7\",\"P\",\"J\",\"110\"
\"\",\"\",\"approach-retreat\",\"114\",\"991342\",\"0.0-114.0\",\"\",\"\",\"2-4\",\"4243\",\"37\",\"1\",\"Training\",\"Stims/Figures/93-C-30-1.bmp\",\"pa:pa:ta\",\"Left\",\"37\",\"7\",\"15\",\"7\",\"P\",\"J\",\"111\"
\"\",\"\",\"approach-retreat\",\"115\",\"997111\",\"0.0-115.0\",\"\",\"\",\"2-4\",\"4261\",\"38\",\"1\",\"Training\",\"Stims/Figures/118-C-20-2.bmp\",\"pa:pa:ka\",\"Up\",\"38\",\"7\",\"16\",\"7\",\"P\",\"J\",\"112\"
\"\",\"\",\"approach-retreat\",\"116\",\"1002984\",\"0.0-116.0\",\"\",\"\",\"2-4\",\"4365\",\"37\",\"0\",\"Training\",\"Stims/Figures/128-J-10-3.bmp\",\"na:mana\",\"Left\",\"39\",\"8\",\"1\",\"7\",\"S\",\"J\",\"113\"
\"\",\"\",\"approach-retreat\",\"117\",\"1008794\",\"0.0-117.0\",\"\",\"\",\"2-4\",\"4301\",\"39\",\"1\",\"Training\",\"Stims/Figures/100-C-30-3.bmp\",\"na:mala\",\"Right\",\"39\",\"8\",\"2\",\"7\",\"S\",\"J\",\"114\"
\"\",\"\",\"approach-retreat\",\"118\",\"1015037\",\"0.0-118.0\",\"\",\"\",\"2-4\",\"4735\",\"40\",\"1\",\"Training\",\"Stims/Figures/7-C-20-4.bmp\",\"ma:lana\",\"Down\",\"40\",\"8\",\"3\",\"7\",\"S\",\"J\",\"115\"
\"\",\"\",\"approach-retreat\",\"119\",\"1022183\",\"0.0-119.0\",\"\",\"\",\"2-4\",\"5639\",\"38\",\"1\",\"Training\",\"Stims/Figures/118-J-0-2.bmp\",\"ta:ka:ta\",\"Down\",\"38\",\"8\",\"4\",\"7\",\"P\",\"J\",\"116\"
\"\",\"\",\"approach-retreat\",\"120\",\"1028980\",\"0.0-120.0\",\"\",\"\",\"2-4\",\"5288\",\"39\",\"1\",\"Training\",\"Stims/Figures/128-C-30-3.bmp\",\"mama:la\",\"Right\",\"39\",\"8\",\"5\",\"7\",\"S\",\"J\",\"117\"
\"\",\"\",\"approach-retreat\",\"121\",\"1035153\",\"0.0-121.0\",\"\",\"\",\"2-4\",\"4666\",\"38\",\"1\",\"Training\",\"Stims/Figures/7-J-10-4.bmp\",\"malala\",\"Down\",\"38\",\"8\",\"6\",\"7\",\"S\",\"J\",\"118\"
\"\",\"\",\"approach-retreat\",\"122\",\"1041234\",\"0.0-122.0\",\"\",\"\",\"2-4\",\"4574\",\"40\",\"1\",\"Training\",\"Stims/Figures/74-C-20-4.bmp\",\"ma:mala\",\"Down\",\"40\",\"8\",\"7\",\"7\",\"S\",\"J\",\"119\"
\"\",\"\",\"approach-retreat\",\"123\",\"1047855\",\"0.0-123.0\",\"\",\"\",\"2-4\",\"5112\",\"40\",\"1\",\"Training\",\"Stims/Figures/86-J-0-1.bmp\",\"pa:kata\",\"Up\",\"40\",\"8\",\"8\",\"7\",\"P\",\"J\",\"120\"
\"\",\"\",\"approach-retreat\",\"124\",\"1054440\",\"0.0-124.0\",\"\",\"\",\"2-4\",\"5077\",\"38\",\"0\",\"Training\",\"Stims/Figures/100-J-10-3.bmp\",\"mamana\",\"Up\",\"40\",\"8\",\"9\",\"7\",\"S\",\"J\",\"121\"
\"\",\"\",\"approach-retreat\",\"125\",\"1060065\",\"0.0-125.0\",\"\",\"\",\"2-4\",\"4118\",\"37\",\"1\",\"Training\",\"Stims/Figures/93-C-30-1.bmp\",\"pa:pa:ta\",\"Left\",\"37\",\"8\",\"10\",\"7\",\"P\",\"J\",\"122\"
\"\",\"\",\"approach-retreat\",\"126\",\"1065655\",\"0.0-126.0\",\"\",\"\",\"2-4\",\"4080\",\"37\",\"1\",\"Training\",\"Stims/Figures/139-J-0-2.bmp\",\"paka:ta\",\"Right\",\"37\",\"8\",\"11\",\"7\",\"P\",\"J\",\"123\"
\"\",\"\",\"approach-retreat\",\"127\",\"1071366\",\"0.0-127.0\",\"\",\"\",\"2-4\",\"4202\",\"37\",\"1\",\"Training\",\"Stims/Figures/139-C-20-2.bmp\",\"tapa:ta\",\"Left\",\"37\",\"8\",\"12\",\"7\",\"P\",\"J\",\"124\"
\"\",\"\",\"approach-retreat\",\"128\",\"1076805\",\"0.0-128.0\",\"\",\"\",\"2-4\",\"3932\",\"38\",\"1\",\"Training\",\"Stims/Figures/86-C-30-1.bmp\",\"pa:pata\",\"Up\",\"38\",\"8\",\"13\",\"7\",\"P\",\"J\",\"125\"
\"\",\"\",\"approach-retreat\",\"129\",\"1082468\",\"0.0-129.0\",\"\",\"\",\"2-4\",\"4153\",\"37\",\"0\",\"Training\",\"Stims/Figures/74-J-10-4.bmp\",\"mala:la\",\"Left\",\"39\",\"8\",\"14\",\"7\",\"S\",\"J\",\"126\"
\"\",\"\",\"approach-retreat\",\"130\",\"1088273\",\"0.0-130.0\",\"\",\"\",\"2-4\",\"4298\",\"39\",\"1\",\"Training\",\"Stims/Figures/118-C-20-2.bmp\",\"pa:pa:ka\",\"Right\",\"39\",\"8\",\"15\",\"7\",\"P\",\"J\",\"127\"
\"\",\"\",\"approach-retreat\",\"131\",\"1094659\",\"0.0-131.0\",\"\",\"\",\"2-4\",\"4878\",\"40\",\"1\",\"Training\",\"Stims/Figures/93-J-0-1.bmp\",\"papa:ka\",\"Up\",\"40\",\"8\",\"16\",\"7\",\"P\",\"J\",\"128\"
\"\",\"\",\"approach-retreat\",\"132\",\"1100836\",\"0.0-132.0\",\"\",\"\",\"2-4\",\"4669\",\"38\",\"1\",\"Training\",\"Stims/Figures/139-C-20-2.bmp\",\"tapa:ta\",\"Up\",\"38\",\"9\",\"1\",\"7\",\"P\",\"J\",\"129\"
\"\",\"\",\"approach-retreat\",\"133\",\"1109858\",\"0.0-133.0\",\"\",\"\",\"2-4\",\"7514\",\"39\",\"1\",\"Training\",\"Stims/Figures/7-J-10-4.bmp\",\"malala\",\"Left\",\"39\",\"9\",\"2\",\"7\",\"S\",\"J\",\"130\"
\"\",\"\",\"approach-retreat\",\"134\",\"1115500\",\"0.0-134.0\",\"\",\"\",\"2-4\",\"4135\",\"37\",\"1\",\"Training\",\"Stims/Figures/93-J-0-1.bmp\",\"papa:ka\",\"Right\",\"37\",\"9\",\"3\",\"7\",\"P\",\"J\",\"131\"
\"\",\"\",\"approach-retreat\",\"135\",\"1121211\",\"0.0-135.0\",\"\",\"\",\"2-4\",\"4201\",\"40\",\"1\",\"Training\",\"Stims/Figures/100-J-10-3.bmp\",\"mamana\",\"Up\",\"40\",\"9\",\"4\",\"7\",\"S\",\"J\",\"132\"
\"\",\"\",\"approach-retreat\",\"136\",\"1127228\",\"0.0-136.0\",\"\",\"\",\"2-4\",\"4509\",\"37\",\"1\",\"Training\",\"Stims/Figures/74-C-20-4.bmp\",\"ma:mala\",\"Left\",\"37\",\"9\",\"5\",\"7\",\"S\",\"J\",\"133\"
\"\",\"\",\"approach-retreat\",\"137\",\"1133237\",\"0.0-137.0\",\"\",\"\",\"2-4\",\"4500\",\"39\",\"0\",\"Training\",\"Stims/Figures/74-J-10-4.bmp\",\"mala:la\",\"Right\",\"37\",\"9\",\"6\",\"7\",\"S\",\"J\",\"134\"
\"\",\"\",\"approach-retreat\",\"138\",\"1138883\",\"0.0-138.0\",\"\",\"\",\"2-4\",\"4137\",\"39\",\"1\",\"Training\",\"Stims/Figures/118-C-20-2.bmp\",\"pa:pa:ka\",\"Right\",\"39\",\"9\",\"7\",\"7\",\"P\",\"J\",\"135\"
\"\",\"\",\"approach-retreat\",\"139\",\"1144687\",\"0.0-139.0\",\"\",\"\",\"2-4\",\"4298\",\"40\",\"1\",\"Training\",\"Stims/Figures/86-J-0-1.bmp\",\"pa:kata\",\"Up\",\"40\",\"9\",\"8\",\"7\",\"P\",\"J\",\"136\"
\"\",\"\",\"approach-retreat\",\"140\",\"1150874\",\"0.0-140.0\",\"\",\"\",\"2-4\",\"4677\",\"38\",\"1\",\"Training\",\"Stims/Figures/86-C-30-1.bmp\",\"pa:pata\",\"Up\",\"38\",\"9\",\"9\",\"7\",\"P\",\"J\",\"137\"
\"\",\"\",\"approach-retreat\",\"141\",\"1157137\",\"0.0-141.0\",\"\",\"\",\"2-4\",\"4755\",\"40\",\"1\",\"Training\",\"Stims/Figures/128-C-30-3.bmp\",\"mama:la\",\"Down\",\"40\",\"9\",\"10\",\"7\",\"S\",\"J\",\"138\"
\"\",\"\",\"approach-retreat\",\"142\",\"1163445\",\"0.0-142.0\",\"\",\"\",\"2-4\",\"4801\",\"39\",\"1\",\"Training\",\"Stims/Figures/118-J-0-2.bmp\",\"ta:ka:ta\",\"Left\",\"39\",\"9\",\"11\",\"7\",\"P\",\"J\",\"139\"
\"\",\"\",\"approach-retreat\",\"143\",\"1169284\",\"0.0-143.0\",\"\",\"\",\"2-4\",\"4330\",\"39\",\"0\",\"Training\",\"Stims/Figures/128-J-10-3.bmp\",\"na:mana\",\"Right\",\"37\",\"9\",\"12\",\"7\",\"S\",\"J\",\"140\"
\"\",\"\",\"approach-retreat\",\"144\",\"1175192\",\"0.0-144.0\",\"\",\"\",\"2-4\",\"4400\",\"37\",\"1\",\"Training\",\"Stims/Figures/7-C-20-4.bmp\",\"ma:lana\",\"Left\",\"37\",\"9\",\"13\",\"7\",\"S\",\"J\",\"141\"
\"\",\"\",\"approach-retreat\",\"145\",\"1181214\",\"0.0-145.0\",\"\",\"\",\"2-4\",\"4514\",\"40\",\"1\",\"Training\",\"Stims/Figures/93-C-30-1.bmp\",\"pa:pa:ta\",\"Down\",\"40\",\"9\",\"14\",\"7\",\"P\",\"J\",\"142\"
\"\",\"\",\"approach-retreat\",\"146\",\"1187187\",\"0.0-146.0\",\"\",\"\",\"2-4\",\"4466\",\"40\",\"1\",\"Training\",\"Stims/Figures/100-C-30-3.bmp\",\"na:mala\",\"Down\",\"40\",\"9\",\"15\",\"7\",\"S\",\"J\",\"143\"
\"\",\"\",\"approach-retreat\",\"147\",\"1193930\",\"0.0-147.0\",\"\",\"\",\"2-4\",\"5235\",\"38\",\"1\",\"Training\",\"Stims/Figures/139-J-0-2.bmp\",\"paka:ta\",\"Down\",\"38\",\"9\",\"16\",\"7\",\"P\",\"J\",\"144\"
\"28945\",\"\",\"instructions\",\"148\",\"1222876\",\"0.0-148.0\",\"[{\"\"page_index\"\":0,\"\"viewing_time\"\":28945}]\",\"\",\"\",\"\",\"\",\"\",\"\",\"\",\"\",\"\",\"\",\"\",\"\",\"\",\"\",\"\",\"\"
\"\",\"\",\"approach-retreat\",\"149\",\"1229039\",\"0.0-149.0\",\"\",\"\",\"2-4\",\"4657\",\"38\",\"1\",\"Testing\",\"Stims/Figures/44-C-30-3.bmp\",\"na:la:la\",\"Up\",\"38\",\"1\",\"1\",\"7\",\"S\",\"J\",\"1\"
\"\",\"\",\"approach-retreat\",\"150\",\"1234871\",\"0.0-150.0\",\"\",\"\",\"2-4\",\"4327\",\"40\",\"1\",\"Testing\",\"Stims/Figures/100-C-30-3.bmp\",\"na:mala\",\"Down\",\"40\",\"1\",\"2\",\"7\",\"S\",\"J\",\"2\"
\"\",\"\",\"approach-retreat\",\"151\",\"1240596\",\"0.0-151.0\",\"\",\"\",\"2-4\",\"4218\",\"39\",\"1\",\"Testing\",\"Stims/Figures/93-C-30-1.bmp\",\"pa:pa:ta\",\"Right\",\"39\",\"1\",\"3\",\"7\",\"P\",\"J\",\"3\"
\"\",\"\",\"approach-retreat\",\"152\",\"1246505\",\"0.0-152.0\",\"\",\"\",\"2-4\",\"4402\",\"39\",\"1\",\"Testing\",\"Stims/Figures/94-C-20-2.bmp\",\"ta:kaka\",\"Right\",\"39\",\"1\",\"4\",\"7\",\"P\",\"J\",\"4\"
\"\",\"\",\"approach-retreat\",\"153\",\"1253016\",\"0.0-153.0\",\"\",\"\",\"2-4\",\"5004\",\"38\",\"1\",\"Testing\",\"Stims/Figures/44-J-10-3.bmp\",\"na:lana\",\"Down\",\"38\",\"1\",\"5\",\"7\",\"S\",\"J\",\"5\"
\"\",\"\",\"approach-retreat\",\"154\",\"1259011\",\"0.0-154.0\",\"\",\"\",\"2-4\",\"4486\",\"37\",\"1\",\"Testing\",\"Stims/Figures/139-J-0-2.bmp\",\"paka:ta\",\"Right\",\"37\",\"1\",\"6\",\"7\",\"P\",\"J\",\"6\"
\"\",\"\",\"approach-retreat\",\"155\",\"1266968\",\"0.0-155.0\",\"\",\"\",\"2-4\",\"6449\",\"38\",\"1\",\"Testing\",\"Stims/Figures/128-J-10-3.bmp\",\"na:mana\",\"Down\",\"38\",\"1\",\"7\",\"7\",\"S\",\"J\",\"7\"
\"\",\"\",\"approach-retreat\",\"156\",\"1272971\",\"0.0-156.0\",\"\",\"\",\"2-4\",\"4498\",\"37\",\"1\",\"Testing\",\"Stims/Figures/86-J-0-1.bmp\",\"pa:kata\",\"Right\",\"37\",\"1\",\"8\",\"7\",\"P\",\"J\",\"8\"
\"\",\"\",\"approach-retreat\",\"157\",\"1279331\",\"0.0-157.0\",\"\",\"\",\"2-4\",\"4854\",\"39\",\"1\",\"Testing\",\"Stims/Figures/7-J-10-4.bmp\",\"malala\",\"Left\",\"39\",\"1\",\"9\",\"7\",\"S\",\"J\",\"9\"
\"\",\"\",\"approach-retreat\",\"158\",\"1286343\",\"0.0-158.0\",\"\",\"\",\"2-4\",\"5506\",\"38\",\"1\",\"Testing\",\"Stims/Figures/86-C-30-1.bmp\",\"pa:pata\",\"Up\",\"38\",\"1\",\"10\",\"7\",\"P\",\"J\",\"10\"
\"\",\"\",\"approach-retreat\",\"159\",\"1292505\",\"0.0-159.0\",\"\",\"\",\"2-4\",\"4655\",\"40\",\"1\",\"Testing\",\"Stims/Figures/71-J-0-1.bmp\",\"pa:kaka\",\"Up\",\"40\",\"1\",\"11\",\"7\",\"P\",\"J\",\"11\"
\"\",\"\",\"approach-retreat\",\"160\",\"1298915\",\"0.0-160.0\",\"\",\"\",\"2-4\",\"4902\",\"38\",\"1\",\"Testing\",\"Stims/Figures/118-C-20-2.bmp\",\"pa:pa:ka\",\"Up\",\"38\",\"1\",\"12\",\"7\",\"P\",\"J\",\"12\"
\"\",\"\",\"approach-retreat\",\"161\",\"1304714\",\"0.0-161.0\",\"\",\"\",\"2-4\",\"4293\",\"39\",\"1\",\"Testing\",\"Stims/Figures/94-J-0-2.bmp\",\"ta:pa:ka\",\"Left\",\"39\",\"1\",\"13\",\"7\",\"P\",\"J\",\"13\"
\"\",\"\",\"approach-retreat\",\"162\",\"1312132\",\"0.0-162.0\",\"\",\"\",\"2-4\",\"5912\",\"37\",\"1\",\"Testing\",\"Stims/Figures/7-C-20-4.bmp\",\"ma:lana\",\"Left\",\"37\",\"1\",\"14\",\"7\",\"S\",\"J\",\"14\"
\"\",\"\",\"approach-retreat\",\"163\",\"1318379\",\"0.0-163.0\",\"\",\"\",\"2-4\",\"4740\",\"40\",\"1\",\"Testing\",\"Stims/Figures/128-C-30-3.bmp\",\"mama:la\",\"Down\",\"40\",\"1\",\"15\",\"7\",\"S\",\"J\",\"15\"
\"\",\"\",\"approach-retreat\",\"164\",\"1326489\",\"0.0-164.0\",\"\",\"\",\"2-4\",\"6604\",\"40\",\"1\",\"Testing\",\"Stims/Figures/100-J-10-3.bmp\",\"mamana\",\"Up\",\"40\",\"1\",\"16\",\"7\",\"S\",\"J\",\"16\"
\"\",\"\",\"approach-retreat\",\"165\",\"1332755\",\"0.0-165.0\",\"\",\"\",\"2-4\",\"4757\",\"40\",\"1\",\"Testing\",\"Stims/Figures/139-C-20-2.bmp\",\"tapa:ta\",\"Down\",\"40\",\"1\",\"17\",\"7\",\"P\",\"J\",\"17\"
\"\",\"\",\"approach-retreat\",\"166\",\"1338704\",\"0.0-166.0\",\"\",\"\",\"2-4\",\"4442\",\"38\",\"1\",\"Testing\",\"Stims/Figures/118-J-0-2.bmp\",\"ta:ka:ta\",\"Down\",\"38\",\"1\",\"18\",\"7\",\"P\",\"J\",\"18\"
\"\",\"\",\"approach-retreat\",\"167\",\"1344743\",\"0.0-167.0\",\"\",\"\",\"2-4\",\"4526\",\"37\",\"1\",\"Testing\",\"Stims/Figures/71-C-30-1.bmp\",\"ta:paka\",\"Left\",\"37\",\"1\",\"19\",\"7\",\"P\",\"J\",\"19\"
\"\",\"\",\"approach-retreat\",\"168\",\"1350576\",\"0.0-168.0\",\"\",\"\",\"2-4\",\"4326\",\"39\",\"1\",\"Testing\",\"Stims/Figures/74-C-20-4.bmp\",\"ma:mala\",\"Right\",\"39\",\"1\",\"20\",\"7\",\"S\",\"J\",\"20\"
\"\",\"\",\"approach-retreat\",\"169\",\"1358919\",\"0.0-169.0\",\"\",\"\",\"2-4\",\"6838\",\"37\",\"0\",\"Testing\",\"Stims/Figures/87-J-10-4.bmp\",\"mamala\",\"Left\",\"39\",\"1\",\"21\",\"7\",\"S\",\"J\",\"21\"
\"\",\"\",\"approach-retreat\",\"170\",\"1365096\",\"0.0-170.0\",\"\",\"\",\"2-4\",\"4671\",\"37\",\"1\",\"Testing\",\"Stims/Figures/87-C-20-4.bmp\",\"namala\",\"Left\",\"37\",\"1\",\"22\",\"7\",\"S\",\"J\",\"22\"
\"\",\"\",\"approach-retreat\",\"171\",\"1370921\",\"0.0-171.0\",\"\",\"\",\"2-4\",\"4318\",\"40\",\"1\",\"Testing\",\"Stims/Figures/74-J-10-4.bmp\",\"mala:la\",\"Up\",\"40\",\"1\",\"23\",\"7\",\"S\",\"J\",\"23\"
\"\",\"\",\"approach-retreat\",\"172\",\"1378589\",\"0.0-172.0\",\"\",\"\",\"2-4\",\"6163\",\"37\",\"1\",\"Testing\",\"Stims/Figures/93-J-0-1.bmp\",\"papa:ka\",\"Right\",\"37\",\"1\",\"24\",\"7\",\"P\",\"J\",\"24\"
\"\",\"\",\"approach-retreat\",\"173\",\"1386294\",\"0.0-173.0\",\"\",\"\",\"2-4\",\"6200\",\"38\",\"1\",\"Testing\",\"Stims/Figures/100-C-30-3.bmp\",\"na:mala\",\"Up\",\"38\",\"2\",\"1\",\"7\",\"S\",\"J\",\"25\"
\"\",\"\",\"approach-retreat\",\"174\",\"1392238\",\"0.0-174.0\",\"\",\"\",\"2-4\",\"4438\",\"37\",\"1\",\"Testing\",\"Stims/Figures/7-C-20-4.bmp\",\"ma:lana\",\"Left\",\"37\",\"2\",\"2\",\"7\",\"S\",\"J\",\"26\"
\"\",\"\",\"approach-retreat\",\"175\",\"1398807\",\"0.0-175.0\",\"\",\"\",\"2-4\",\"5061\",\"39\",\"1\",\"Testing\",\"Stims/Figures/74-C-20-4.bmp\",\"ma:mala\",\"Right\",\"39\",\"2\",\"3\",\"7\",\"S\",\"J\",\"27\"
\"\",\"\",\"approach-retreat\",\"176\",\"1405554\",\"0.0-176.0\",\"\",\"\",\"2-4\",\"5241\",\"40\",\"1\",\"Testing\",\"Stims/Figures/94-C-20-2.bmp\",\"ta:kaka\",\"Down\",\"40\",\"2\",\"4\",\"7\",\"P\",\"J\",\"28\"
\"\",\"\",\"approach-retreat\",\"177\",\"1411520\",\"0.0-177.0\",\"\",\"\",\"2-4\",\"4459\",\"39\",\"1\",\"Testing\",\"Stims/Figures/93-J-0-1.bmp\",\"papa:ka\",\"Left\",\"39\",\"2\",\"5\",\"7\",\"P\",\"J\",\"29\"
\"\",\"\",\"approach-retreat\",\"178\",\"1418036\",\"0.0-178.0\",\"\",\"\",\"2-4\",\"5008\",\"37\",\"1\",\"Testing\",\"Stims/Figures/7-J-10-4.bmp\",\"malala\",\"Right\",\"37\",\"2\",\"6\",\"7\",\"S\",\"J\",\"30\"
\"\",\"\",\"approach-retreat\",\"179\",\"1424633\",\"0.0-179.0\",\"\",\"\",\"2-4\",\"5092\",\"39\",\"1\",\"Testing\",\"Stims/Figures/94-J-0-2.bmp\",\"ta:pa:ka\",\"Left\",\"39\",\"2\",\"7\",\"7\",\"P\",\"J\",\"31\"
\"\",\"\",\"approach-retreat\",\"180\",\"1430955\",\"0.0-180.0\",\"\",\"\",\"2-4\",\"4815\",\"40\",\"1\",\"Testing\",\"Stims/Figures/44-C-30-3.bmp\",\"na:la:la\",\"Down\",\"40\",\"2\",\"8\",\"7\",\"S\",\"J\",\"32\"
\"\",\"\",\"approach-retreat\",\"181\",\"1436623\",\"0.0-181.0\",\"\",\"\",\"2-4\",\"4161\",\"37\",\"1\",\"Testing\",\"Stims/Figures/118-J-0-2.bmp\",\"ta:ka:ta\",\"Right\",\"37\",\"2\",\"9\",\"7\",\"P\",\"J\",\"33\"
\"\",\"\",\"approach-retreat\",\"182\",\"1443140\",\"0.0-182.0\",\"\",\"\",\"2-4\",\"5010\",\"40\",\"1\",\"Testing\",\"Stims/Figures/71-C-30-1.bmp\",\"ta:paka\",\"Down\",\"40\",\"2\",\"10\",\"7\",\"P\",\"J\",\"34\"
\"\",\"\",\"approach-retreat\",\"183\",\"1449653\",\"0.0-183.0\",\"\",\"\",\"2-4\",\"5007\",\"38\",\"1\",\"Testing\",\"Stims/Figures/71-J-0-1.bmp\",\"pa:kaka\",\"Down\",\"38\",\"2\",\"11\",\"7\",\"P\",\"J\",\"35\"
\"\",\"\",\"approach-retreat\",\"184\",\"1456354\",\"0.0-184.0\",\"\",\"\",\"2-4\",\"5195\",\"39\",\"0\",\"Testing\",\"Stims/Figures/87-J-10-4.bmp\",\"mamala\",\"Right\",\"37\",\"2\",\"12\",\"7\",\"S\",\"J\",\"36\"
\"\",\"\",\"approach-retreat\",\"185\",\"1462447\",\"0.0-185.0\",\"\",\"\",\"2-4\",\"4586\",\"37\",\"1\",\"Testing\",\"Stims/Figures/93-C-30-1.bmp\",\"pa:pa:ta\",\"Left\",\"37\",\"2\",\"13\",\"7\",\"P\",\"J\",\"37\"
\"\",\"\",\"approach-retreat\",\"186\",\"1468877\",\"0.0-186.0\",\"\",\"\",\"2-4\",\"4923\",\"39\",\"1\",\"Testing\",\"Stims/Figures/86-J-0-1.bmp\",\"pa:kata\",\"Left\",\"39\",\"2\",\"14\",\"7\",\"P\",\"J\",\"38\"
\"\",\"\",\"approach-retreat\",\"187\",\"1476050\",\"0.0-187.0\",\"\",\"\",\"2-4\",\"5667\",\"38\",\"0\",\"Testing\",\"Stims/Figures/128-J-10-3.bmp\",\"na:mana\",\"Up\",\"40\",\"2\",\"15\",\"7\",\"S\",\"J\",\"39\"
\"\",\"\",\"approach-retreat\",\"188\",\"1481919\",\"0.0-188.0\",\"\",\"\",\"2-4\",\"4362\",\"38\",\"1\",\"Testing\",\"Stims/Figures/74-J-10-4.bmp\",\"mala:la\",\"Down\",\"38\",\"2\",\"16\",\"7\",\"S\",\"J\",\"40\"
\"\",\"\",\"approach-retreat\",\"189\",\"1491847\",\"0.0-189.0\",\"\",\"\",\"2-4\",\"8423\",\"38\",\"1\",\"Testing\",\"Stims/Figures/139-C-20-2.bmp\",\"tapa:ta\",\"Up\",\"38\",\"2\",\"17\",\"7\",\"P\",\"J\",\"41\"
\"\",\"\",\"approach-retreat\",\"190\",\"1498657\",\"0.0-190.0\",\"\",\"\",\"2-4\",\"5303\",\"40\",\"0\",\"Testing\",\"Stims/Figures/118-C-20-2.bmp\",\"pa:pa:ka\",\"Up\",\"38\",\"2\",\"18\",\"7\",\"P\",\"J\",\"42\"
\"\",\"\",\"approach-retreat\",\"191\",\"1507082\",\"0.0-191.0\",\"\",\"\",\"2-4\",\"6920\",\"39\",\"1\",\"Testing\",\"Stims/Figures/87-C-20-4.bmp\",\"namala\",\"Right\",\"39\",\"2\",\"19\",\"7\",\"S\",\"J\",\"43\"
\"\",\"\",\"approach-retreat\",\"192\",\"1512911\",\"0.0-192.0\",\"\",\"\",\"2-4\",\"4321\",\"39\",\"1\",\"Testing\",\"Stims/Figures/128-C-30-3.bmp\",\"mama:la\",\"Right\",\"39\",\"2\",\"20\",\"7\",\"S\",\"J\",\"44\"
\"\",\"\",\"approach-retreat\",\"193\",\"1520303\",\"0.0-193.0\",\"\",\"\",\"2-4\",\"5887\",\"38\",\"1\",\"Testing\",\"Stims/Figures/100-J-10-3.bmp\",\"mamana\",\"Down\",\"38\",\"2\",\"21\",\"7\",\"S\",\"J\",\"45\"
\"\",\"\",\"approach-retreat\",\"194\",\"1526448\",\"0.0-194.0\",\"\",\"\",\"2-4\",\"4638\",\"38\",\"1\",\"Testing\",\"Stims/Figures/86-C-30-1.bmp\",\"pa:pata\",\"Up\",\"38\",\"2\",\"22\",\"7\",\"P\",\"J\",\"46\"
\"\",\"\",\"approach-retreat\",\"195\",\"1533668\",\"0.0-195.0\",\"\",\"\",\"2-4\",\"5714\",\"40\",\"1\",\"Testing\",\"Stims/Figures/139-J-0-2.bmp\",\"paka:ta\",\"Up\",\"40\",\"2\",\"23\",\"7\",\"P\",\"J\",\"47\"
\"\",\"\",\"approach-retreat\",\"196\",\"1540458\",\"0.0-196.0\",\"\",\"\",\"2-4\",\"5284\",\"39\",\"1\",\"Testing\",\"Stims/Figures/44-J-10-3.bmp\",\"na:lana\",\"Left\",\"39\",\"2\",\"24\",\"7\",\"S\",\"J\",\"48\"
\"\",\"\",\"approach-retreat\",\"197\",\"1548204\",\"0.0-197.0\",\"\",\"\",\"2-4\",\"6240\",\"40\",\"1\",\"Testing\",\"Stims/Figures/139-J-0-2.bmp\",\"paka:ta\",\"Up\",\"40\",\"3\",\"1\",\"7\",\"P\",\"J\",\"49\"
\"\",\"\",\"approach-retreat\",\"198\",\"1556302\",\"0.0-198.0\",\"\",\"\",\"2-4\",\"6592\",\"40\",\"1\",\"Testing\",\"Stims/Figures/44-C-30-3.bmp\",\"na:la:la\",\"Down\",\"40\",\"3\",\"2\",\"7\",\"S\",\"J\",\"50\"
\"\",\"\",\"approach-retreat\",\"199\",\"1563011\",\"0.0-199.0\",\"\",\"\",\"2-4\",\"5203\",\"39\",\"0\",\"Testing\",\"Stims/Figures/128-J-10-3.bmp\",\"na:mana\",\"Right\",\"37\",\"3\",\"3\",\"7\",\"S\",\"J\",\"51\"
\"\",\"\",\"approach-retreat\",\"200\",\"1571690\",\"0.0-200.0\",\"\",\"\",\"2-4\",\"7173\",\"39\",\"1\",\"Testing\",\"Stims/Figures/94-C-20-2.bmp\",\"ta:kaka\",\"Right\",\"39\",\"3\",\"4\",\"7\",\"P\",\"J\",\"52\"
\"\",\"\",\"approach-retreat\",\"201\",\"1577633\",\"0.0-201.0\",\"\",\"\",\"2-4\",\"4435\",\"40\",\"1\",\"Testing\",\"Stims/Figures/87-C-20-4.bmp\",\"namala\",\"Down\",\"40\",\"3\",\"5\",\"7\",\"S\",\"J\",\"53\"
\"\",\"\",\"approach-retreat\",\"202\",\"1584036\",\"0.0-202.0\",\"\",\"\",\"2-4\",\"4898\",\"38\",\"1\",\"Testing\",\"Stims/Figures/86-J-0-1.bmp\",\"pa:kata\",\"Down\",\"38\",\"3\",\"6\",\"7\",\"P\",\"J\",\"54\"
\"\",\"\",\"approach-retreat\",\"203\",\"1591243\",\"0.0-203.0\",\"\",\"\",\"2-4\",\"5700\",\"39\",\"1\",\"Testing\",\"Stims/Figures/74-J-10-4.bmp\",\"mala:la\",\"Left\",\"39\",\"3\",\"7\",\"7\",\"S\",\"J\",\"55\"
\"\",\"\",\"approach-retreat\",\"204\",\"1598072\",\"0.0-204.0\",\"\",\"\",\"2-4\",\"5322\",\"37\",\"1\",\"Testing\",\"Stims/Figures/86-C-30-1.bmp\",\"pa:pata\",\"Left\",\"37\",\"3\",\"8\",\"7\",\"P\",\"J\",\"56\"
\"\",\"\",\"approach-retreat\",\"205\",\"1605690\",\"0.0-205.0\",\"\",\"\",\"2-4\",\"6112\",\"37\",\"1\",\"Testing\",\"Stims/Figures/118-C-20-2.bmp\",\"pa:pa:ka\",\"Left\",\"37\",\"3\",\"9\",\"7\",\"P\",\"J\",\"57\"
\"\",\"\",\"approach-retreat\",\"206\",\"1611443\",\"0.0-206.0\",\"\",\"\",\"2-4\",\"4247\",\"38\",\"1\",\"Testing\",\"Stims/Figures/139-C-20-2.bmp\",\"tapa:ta\",\"Up\",\"38\",\"3\",\"10\",\"7\",\"P\",\"J\",\"58\"
\"\",\"\",\"approach-retreat\",\"207\",\"1617320\",\"0.0-207.0\",\"\",\"\",\"2-4\",\"4370\",\"38\",\"1\",\"Testing\",\"Stims/Figures/74-C-20-4.bmp\",\"ma:mala\",\"Up\",\"38\",\"3\",\"11\",\"7\",\"S\",\"J\",\"59\"
\"\",\"\",\"approach-retreat\",\"208\",\"1624919\",\"0.0-208.0\",\"\",\"\",\"2-4\",\"6092\",\"38\",\"1\",\"Testing\",\"Stims/Figures/100-J-10-3.bmp\",\"mamana\",\"Down\",\"38\",\"3\",\"12\",\"7\",\"S\",\"J\",\"60\"
\"\",\"\",\"approach-retreat\",\"209\",\"1631528\",\"0.0-209.0\",\"\",\"\",\"2-4\",\"5102\",\"40\",\"1\",\"Testing\",\"Stims/Figures/93-J-0-1.bmp\",\"papa:ka\",\"Up\",\"40\",\"3\",\"13\",\"7\",\"P\",\"J\",\"61\"
\"\",\"\",\"approach-retreat\",\"210\",\"1637431\",\"0.0-210.0\",\"\",\"\",\"2-4\",\"4396\",\"39\",\"1\",\"Testing\",\"Stims/Figures/7-J-10-4.bmp\",\"malala\",\"Left\",\"39\",\"3\",\"14\",\"7\",\"S\",\"J\",\"62\"
\"\",\"\",\"approach-retreat\",\"211\",\"1643607\",\"0.0-211.0\",\"\",\"\",\"2-4\",\"4670\",\"40\",\"1\",\"Testing\",\"Stims/Figures/118-J-0-2.bmp\",\"ta:ka:ta\",\"Up\",\"40\",\"3\",\"15\",\"7\",\"P\",\"J\",\"63\"
\"\",\"\",\"approach-retreat\",\"212\",\"1651586\",\"0.0-212.0\",\"\",\"\",\"2-4\",\"6472\",\"38\",\"0\",\"Testing\",\"Stims/Figures/87-J-10-4.bmp\",\"mamala\",\"Up\",\"40\",\"3\",\"16\",\"7\",\"S\",\"J\",\"64\"
\"\",\"\",\"approach-retreat\",\"213\",\"1657546\",\"0.0-213.0\",\"\",\"\",\"2-4\",\"4454\",\"37\",\"1\",\"Testing\",\"Stims/Figures/128-C-30-3.bmp\",\"mama:la\",\"Left\",\"37\",\"3\",\"17\",\"7\",\"S\",\"J\",\"65\"
\"\",\"\",\"approach-retreat\",\"214\",\"1666514\",\"0.0-214.0\",\"\",\"\",\"2-4\",\"7463\",\"40\",\"1\",\"Testing\",\"Stims/Figures/71-C-30-1.bmp\",\"ta:paka\",\"Down\",\"40\",\"3\",\"18\",\"7\",\"P\",\"J\",\"66\"
\"\",\"\",\"approach-retreat\",\"215\",\"1672376\",\"0.0-215.0\",\"\",\"\",\"2-4\",\"4355\",\"39\",\"1\",\"Testing\",\"Stims/Figures/100-C-30-3.bmp\",\"na:mala\",\"Right\",\"39\",\"3\",\"19\",\"7\",\"S\",\"J\",\"67\"
\"\",\"\",\"approach-retreat\",\"216\",\"1678675\",\"0.0-216.0\",\"\",\"\",\"2-4\",\"4793\",\"38\",\"1\",\"Testing\",\"Stims/Figures/94-J-0-2.bmp\",\"ta:pa:ka\",\"Down\",\"38\",\"3\",\"20\",\"7\",\"P\",\"J\",\"68\"
\"\",\"\",\"approach-retreat\",\"217\",\"1685030\",\"0.0-217.0\",\"\",\"\",\"2-4\",\"4848\",\"39\",\"1\",\"Testing\",\"Stims/Figures/44-J-10-3.bmp\",\"na:lana\",\"Left\",\"39\",\"3\",\"21\",\"7\",\"S\",\"J\",\"69\"
\"\",\"\",\"approach-retreat\",\"218\",\"1690785\",\"0.0-218.0\",\"\",\"\",\"2-4\",\"4248\",\"39\",\"1\",\"Testing\",\"Stims/Figures/93-C-30-1.bmp\",\"pa:pa:ta\",\"Right\",\"39\",\"3\",\"22\",\"7\",\"P\",\"J\",\"70\"
\"\",\"\",\"approach-retreat\",\"219\",\"1696994\",\"0.0-219.0\",\"\",\"\",\"2-4\",\"4702\",\"37\",\"1\",\"Testing\",\"Stims/Figures/71-J-0-1.bmp\",\"pa:kaka\",\"Right\",\"37\",\"3\",\"23\",\"7\",\"P\",\"J\",\"71\"
\"\",\"\",\"approach-retreat\",\"220\",\"1702785\",\"0.0-220.0\",\"\",\"\",\"2-4\",\"4284\",\"39\",\"1\",\"Testing\",\"Stims/Figures/7-C-20-4.bmp\",\"ma:lana\",\"Right\",\"39\",\"3\",\"24\",\"7\",\"S\",\"J\",\"72\"
\"\",\"\",\"approach-retreat\",\"221\",\"1708612\",\"0.0-221.0\",\"\",\"\",\"2-4\",\"4318\",\"39\",\"0\",\"Testing\",\"Stims/Figures/87-J-10-4.bmp\",\"mamala\",\"Right\",\"37\",\"4\",\"1\",\"7\",\"S\",\"J\",\"73\"
\"\",\"\",\"approach-retreat\",\"222\",\"1714429\",\"0.0-222.0\",\"\",\"\",\"2-4\",\"4310\",\"39\",\"0\",\"Testing\",\"Stims/Figures/128-J-10-3.bmp\",\"na:mana\",\"Right\",\"37\",\"4\",\"2\",\"7\",\"S\",\"J\",\"74\"
\"\",\"\",\"approach-retreat\",\"223\",\"1720905\",\"0.0-223.0\",\"\",\"\",\"2-4\",\"4969\",\"37\",\"1\",\"Testing\",\"Stims/Figures/71-C-30-1.bmp\",\"ta:paka\",\"Left\",\"37\",\"4\",\"3\",\"7\",\"P\",\"J\",\"75\"
\"\",\"\",\"approach-retreat\",\"224\",\"1727213\",\"0.0-224.0\",\"\",\"\",\"2-4\",\"4799\",\"38\",\"1\",\"Testing\",\"Stims/Figures/93-J-0-1.bmp\",\"papa:ka\",\"Down\",\"38\",\"4\",\"4\",\"7\",\"P\",\"J\",\"76\"
\"\",\"\",\"approach-retreat\",\"225\",\"1733532\",\"0.0-225.0\",\"\",\"\",\"2-4\",\"4812\",\"40\",\"1\",\"Testing\",\"Stims/Figures/74-J-10-4.bmp\",\"mala:la\",\"Up\",\"40\",\"4\",\"5\",\"7\",\"S\",\"J\",\"77\"
\"\",\"\",\"approach-retreat\",\"226\",\"1741763\",\"0.0-226.0\",\"\",\"\",\"2-4\",\"6724\",\"38\",\"1\",\"Testing\",\"Stims/Figures/94-J-0-2.bmp\",\"ta:pa:ka\",\"Down\",\"38\",\"4\",\"6\",\"7\",\"P\",\"J\",\"78\"
\"\",\"\",\"approach-retreat\",\"227\",\"1747340\",\"0.0-227.0\",\"\",\"\",\"2-4\",\"4069\",\"40\",\"1\",\"Testing\",\"Stims/Figures/100-C-30-3.bmp\",\"na:mala\",\"Down\",\"40\",\"4\",\"7\",\"7\",\"S\",\"J\",\"79\"
\"\",\"\",\"approach-retreat\",\"228\",\"1754026\",\"0.0-228.0\",\"\",\"\",\"2-4\",\"5180\",\"40\",\"1\",\"Testing\",\"Stims/Figures/86-C-30-1.bmp\",\"pa:pata\",\"Down\",\"40\",\"4\",\"8\",\"7\",\"P\",\"J\",\"80\"
\"\",\"\",\"approach-retreat\",\"229\",\"1760078\",\"0.0-229.0\",\"\",\"\",\"2-4\",\"4545\",\"38\",\"1\",\"Testing\",\"Stims/Figures/7-C-20-4.bmp\",\"ma:lana\",\"Up\",\"38\",\"4\",\"9\",\"7\",\"S\",\"J\",\"81\"
\"\",\"\",\"approach-retreat\",\"230\",\"1765953\",\"0.0-230.0\",\"\",\"\",\"2-4\",\"4367\",\"37\",\"1\",\"Testing\",\"Stims/Figures/118-C-20-2.bmp\",\"pa:pa:ka\",\"Left\",\"37\",\"4\",\"10\",\"7\",\"P\",\"J\",\"82\"
\"\",\"\",\"approach-retreat\",\"231\",\"1772262\",\"0.0-231.0\",\"\",\"\",\"2-4\",\"4803\",\"40\",\"1\",\"Testing\",\"Stims/Figures/7-J-10-4.bmp\",\"malala\",\"Up\",\"40\",\"4\",\"11\",\"7\",\"S\",\"J\",\"83\"
\"\",\"\",\"approach-retreat\",\"232\",\"1778597\",\"0.0-232.0\",\"\",\"\",\"2-4\",\"4828\",\"39\",\"1\",\"Testing\",\"Stims/Figures/118-J-0-2.bmp\",\"ta:ka:ta\",\"Left\",\"39\",\"4\",\"12\",\"7\",\"P\",\"J\",\"84\"
\"\",\"\",\"approach-retreat\",\"233\",\"1784612\",\"0.0-233.0\",\"\",\"\",\"2-4\",\"4508\",\"37\",\"1\",\"Testing\",\"Stims/Figures/128-C-30-3.bmp\",\"mama:la\",\"Left\",\"37\",\"4\",\"13\",\"7\",\"S\",\"J\",\"85\"
\"\",\"\",\"approach-retreat\",\"234\",\"1790736\",\"0.0-234.0\",\"\",\"\",\"2-4\",\"4617\",\"40\",\"1\",\"Testing\",\"Stims/Figures/74-C-20-4.bmp\",\"ma:mala\",\"Down\",\"40\",\"4\",\"14\",\"7\",\"S\",\"J\",\"86\"
\"\",\"\",\"approach-retreat\",\"235\",\"1798746\",\"0.0-235.0\",\"\",\"\",\"2-4\",\"6504\",\"37\",\"1\",\"Testing\",\"Stims/Figures/44-C-30-3.bmp\",\"na:la:la\",\"Left\",\"37\",\"4\",\"15\",\"7\",\"S\",\"J\",\"87\"
\"\",\"\",\"approach-retreat\",\"236\",\"1804817\",\"0.0-236.0\",\"\",\"\",\"2-4\",\"4564\",\"37\",\"1\",\"Testing\",\"Stims/Figures/139-J-0-2.bmp\",\"paka:ta\",\"Right\",\"37\",\"4\",\"16\",\"7\",\"P\",\"J\",\"88\"
\"\",\"\",\"approach-retreat\",\"237\",\"1810894\",\"0.0-237.0\",\"\",\"\",\"2-4\",\"4571\",\"37\",\"1\",\"Testing\",\"Stims/Figures/86-J-0-1.bmp\",\"pa:kata\",\"Right\",\"37\",\"4\",\"17\",\"7\",\"P\",\"J\",\"89\"
\"\",\"\",\"approach-retreat\",\"238\",\"1816751\",\"0.0-238.0\",\"\",\"\",\"2-4\",\"4350\",\"38\",\"1\",\"Testing\",\"Stims/Figures/93-C-30-1.bmp\",\"pa:pa:ta\",\"Up\",\"38\",\"4\",\"18\",\"7\",\"P\",\"J\",\"90\"
\"\",\"\",\"approach-retreat\",\"239\",\"1822528\",\"0.0-239.0\",\"\",\"\",\"2-4\",\"4271\",\"39\",\"1\",\"Testing\",\"Stims/Figures/94-C-20-2.bmp\",\"ta:kaka\",\"Right\",\"39\",\"4\",\"19\",\"7\",\"P\",\"J\",\"91\"
\"\",\"\",\"approach-retreat\",\"240\",\"1828427\",\"0.0-240.0\",\"\",\"\",\"2-4\",\"4393\",\"40\",\"1\",\"Testing\",\"Stims/Figures/87-C-20-4.bmp\",\"namala\",\"Down\",\"40\",\"4\",\"20\",\"7\",\"S\",\"J\",\"92\"
\"\",\"\",\"approach-retreat\",\"241\",\"1834762\",\"0.0-241.0\",\"\",\"\",\"2-4\",\"4828\",\"40\",\"1\",\"Testing\",\"Stims/Figures/44-J-10-3.bmp\",\"na:lana\",\"Up\",\"40\",\"4\",\"21\",\"7\",\"S\",\"J\",\"93\"
\"\",\"\",\"approach-retreat\",\"242\",\"1840936\",\"0.0-242.0\",\"\",\"\",\"2-4\",\"4668\",\"38\",\"1\",\"Testing\",\"Stims/Figures/139-C-20-2.bmp\",\"tapa:ta\",\"Up\",\"38\",\"4\",\"22\",\"7\",\"P\",\"J\",\"94\"
\"\",\"\",\"approach-retreat\",\"243\",\"1847727\",\"0.0-243.0\",\"\",\"\",\"2-4\",\"5285\",\"37\",\"0\",\"Testing\",\"Stims/Figures/100-J-10-3.bmp\",\"mamana\",\"Left\",\"39\",\"4\",\"23\",\"7\",\"S\",\"J\",\"95\"
\"\",\"\",\"approach-retreat\",\"244\",\"1853730\",\"0.0-244.0\",\"\",\"\",\"2-4\",\"4496\",\"37\",\"1\",\"Testing\",\"Stims/Figures/71-J-0-1.bmp\",\"pa:kaka\",\"Right\",\"37\",\"4\",\"24\",\"7\",\"P\",\"J\",\"96\"
\"\",\"\",\"survey-text\",\"245\",\"1875415\",\"0.0-245.0\",\"\",\"\",\"2-4\",\"26180\",\"37\",\"1\",\"Testing\",\"Stims/Figures/71-J-0-1.bmp\",\"pa:kaka\",\"Right\",\"37\",\"4\",\"24\",\"7\",\"P\",\"J\",\"\"
