"rt","key_press","trial_type","trial_index","time_elapsed","internal_node_id","view_history","responses","Id","Rt","ResKeyCode","ResCorr","TrialType2","Image","Label","Location","CorrectResponse","Block","BlockTrial","Condition","LabelType","Subcondition","trialNum"
"246386","32","text","0","246389","0.0-0.0-0.0","","","","","","","","","","","","","","","","",""
"162298","","instructions","1","408690","0.0-1.0","[{""page_index"":0,""viewing_time"":162298}]","","","","","","","","","","","","","","","",""
"59462","","survey-multi-choice","2","468179","0.0-2.0","","{""Q0"":""Da"",""Q1"":""Da"",""Q2"":""Da"",""Q3"":""Da"",""Q4"":""Da"",""Q5"":""Da""}","","","","","","","","","","","","","","",""
"","","bio","3","498535","0.0-3.0","","{""age"":""19"",""gender"":""f"",""specify"":""""}","","","","","","","","","","","","","","",""
"","","approach-retreat","4","533797","0.0-4.0","","","2-5","33752","39","1","Training","Stims/Figures/94-J-0-2.bmp","za:saza","Right","39","1","1","3B","C2","C","1"
"","","approach-retreat","5","551563","0.0-5.0","","","2-5","16260","39","0","Training","Stims/Figures/87-J-10-4.bmp","za:saza","Left","37","1","2","3B","C2","C","2"
"","","approach-retreat","6","560641","0.0-6.0","","","2-5","7571","37","1","Training","Stims/Figures/94-C-20-2.bmp","fa:fava","Right","37","1","3","3B","C1","C","3"
"","","approach-retreat","7","570725","0.0-7.0","","","2-5","8578","37","1","Training","Stims/Figures/102-J-10-4.bmp","za:saza","Left","37","1","4","3B","C2","C","4"
"","","approach-retreat","8","577784","0.0-8.0","","","2-5","5551","38","1","Training","Stims/Figures/71-J-0-1.bmp","za:saza","Up","38","1","5","3B","C2","C","5"
"","","approach-retreat","9","586713","0.0-9.0","","","2-5","7424","38","1","Training","Stims/Figures/100-J-10-3.bmp","za:saza","Up","38","1","6","3B","C2","C","6"
"","","approach-retreat","10","594798","0.0-10.0","","","2-5","6578","38","0","Training","Stims/Figures/71-C-30-1.bmp","fa:fava","Up","40","1","7","3B","C1","C","7"
"","","approach-retreat","11","602823","0.0-11.0","","","2-5","6519","40","1","Training","Stims/Figures/93-J-0-1.bmp","za:saza","Down","40","1","8","3B","C2","C","8"
"","","approach-retreat","12","610653","0.0-12.0","","","2-5","6324","38","1","Training","Stims/Figures/111-C-30-3.bmp","fa:fava","Down","38","1","9","3B","C1","C","9"
"","","approach-retreat","13","617509","0.0-13.0","","","2-5","5349","37","1","Training","Stims/Figures/111-J-10-3.bmp","za:saza","Left","37","1","10","3B","C2","C","10"
"","","approach-retreat","14","623447","0.0-14.0","","","2-5","4431","39","1","Training","Stims/Figures/100-C-30-3.bmp","fa:fava","Left","39","1","11","3B","C1","C","11"
"","","approach-retreat","15","629706","0.0-15.0","","","2-5","4754","37","1","Training","Stims/Figures/118-C-20-2.bmp","fa:fava","Right","37","1","12","3B","C1","C","12"
"","","approach-retreat","16","636258","0.0-16.0","","","2-5","5046","38","1","Training","Stims/Figures/102-C-20-4.bmp","fa:fava","Down","38","1","13","3B","C1","C","13"
"","","approach-retreat","17","642488","0.0-17.0","","","2-5","4724","38","1","Training","Stims/Figures/93-C-30-1.bmp","fa:fava","Down","38","1","14","3B","C1","C","14"
"","","approach-retreat","18","648972","0.0-18.0","","","2-5","4976","39","1","Training","Stims/Figures/118-J-0-2.bmp","za:saza","Right","39","1","15","3B","C2","C","15"
"","","approach-retreat","19","657811","0.0-19.0","","","2-5","7334","40","1","Training","Stims/Figures/87-C-20-4.bmp","fa:fava","Up","40","1","16","3B","C1","C","16"
"","","approach-retreat","20","664229","0.0-20.0","","","2-5","4912","37","1","Training","Stims/Figures/94-C-20-2.bmp","fa:fava","Right","37","2","1","3B","C1","C","17"
"","","approach-retreat","21","672374","0.0-21.0","","","2-5","6640","37","1","Training","Stims/Figures/93-J-0-1.bmp","za:saza","Left","37","2","2","3B","C2","C","18"
"","","approach-retreat","22","678839","0.0-22.0","","","2-5","4958","39","1","Training","Stims/Figures/71-C-30-1.bmp","fa:fava","Left","39","2","3","3B","C1","C","19"
"","","approach-retreat","23","687572","0.0-23.0","","","2-5","7225","40","1","Training","Stims/Figures/71-J-0-1.bmp","za:saza","Down","40","2","4","3B","C2","C","20"
"","","approach-retreat","24","694311","0.0-24.0","","","2-5","5233","38","1","Training","Stims/Figures/102-C-20-4.bmp","fa:fava","Down","38","2","5","3B","C1","C","21"
"","","approach-retreat","25","700292","0.0-25.0","","","2-5","4474","38","1","Training","Stims/Figures/93-C-30-1.bmp","fa:fava","Down","38","2","6","3B","C1","C","22"
"","","approach-retreat","26","707208","0.0-26.0","","","2-5","5410","39","1","Training","Stims/Figures/118-J-0-2.bmp","za:saza","Right","39","2","7","3B","C2","C","23"
"","","approach-retreat","27","713745","0.0-27.0","","","2-5","5032","38","1","Training","Stims/Figures/111-J-10-3.bmp","za:saza","Up","38","2","8","3B","C2","C","24"
"","","approach-retreat","28","720593","0.0-28.0","","","2-5","5341","39","1","Training","Stims/Figures/100-J-10-3.bmp","za:saza","Right","39","2","9","3B","C2","C","25"
"","","approach-retreat","29","727097","0.0-29.0","","","2-5","4998","40","1","Training","Stims/Figures/111-C-30-3.bmp","fa:fava","Up","40","2","10","3B","C1","C","26"
"","","approach-retreat","30","733982","0.0-30.0","","","2-5","5380","39","1","Training","Stims/Figures/102-J-10-4.bmp","za:saza","Right","39","2","11","3B","C2","C","27"
"","","approach-retreat","31","740608","0.0-31.0","","","2-5","5119","40","1","Training","Stims/Figures/94-J-0-2.bmp","za:saza","Down","40","2","12","3B","C2","C","28"
"","","approach-retreat","32","750727","0.0-32.0","","","2-5","8612","38","1","Training","Stims/Figures/87-J-10-4.bmp","za:saza","Up","38","2","13","3B","C2","C","29"
"","","approach-retreat","33","761224","0.0-33.0","","","2-5","8991","39","1","Training","Stims/Figures/87-C-20-4.bmp","fa:fava","Left","39","2","14","3B","C1","C","30"
"","","approach-retreat","34","767844","0.0-34.0","","","2-5","5115","39","1","Training","Stims/Figures/100-C-30-3.bmp","fa:fava","Left","39","2","15","3B","C1","C","31"
"","","approach-retreat","35","773850","0.0-35.0","","","2-5","4501","40","1","Training","Stims/Figures/118-C-20-2.bmp","fa:fava","Up","40","2","16","3B","C1","C","32"
"","","approach-retreat","36","782113","0.0-36.0","","","2-5","6756","40","1","Training","Stims/Figures/100-J-10-3.bmp","za:saza","Down","40","3","1","3B","C2","C","33"
"","","approach-retreat","37","789390","0.0-37.0","","","2-5","5772","40","1","Training","Stims/Figures/87-C-20-4.bmp","fa:fava","Up","40","3","2","3B","C1","C","34"
"","","approach-retreat","38","797731","0.0-38.0","","","2-5","6834","38","1","Training","Stims/Figures/111-C-30-3.bmp","fa:fava","Down","38","3","3","3B","C1","C","35"
"","","approach-retreat","39","804151","0.0-39.0","","","2-5","4914","38","1","Training","Stims/Figures/94-J-0-2.bmp","za:saza","Up","38","3","4","3B","C2","C","36"
"","","approach-retreat","40","810594","0.0-40.0","","","2-5","4937","40","1","Training","Stims/Figures/71-C-30-1.bmp","fa:fava","Up","40","3","5","3B","C1","C","37"
"","","approach-retreat","41","817333","0.0-41.0","","","2-5","5232","38","1","Training","Stims/Figures/93-C-30-1.bmp","fa:fava","Down","38","3","6","3B","C1","C","38"
"","","approach-retreat","42","823430","0.0-42.0","","","2-5","4589","39","1","Training","Stims/Figures/100-C-30-3.bmp","fa:fava","Left","39","3","7","3B","C1","C","39"
"","","approach-retreat","43","830408","0.0-43.0","","","2-5","5473","37","1","Training","Stims/Figures/94-C-20-2.bmp","fa:fava","Right","37","3","8","3B","C1","C","40"
"","","approach-retreat","44","837966","0.0-44.0","","","2-5","6052","39","1","Training","Stims/Figures/93-J-0-1.bmp","za:saza","Right","39","3","9","3B","C2","C","41"
"","","approach-retreat","45","844939","0.0-45.0","","","2-5","5467","39","1","Training","Stims/Figures/102-C-20-4.bmp","fa:fava","Left","39","3","10","3B","C1","C","42"
"","","approach-retreat","46","851110","0.0-46.0","","","2-5","4665","38","1","Training","Stims/Figures/118-J-0-2.bmp","za:saza","Up","38","3","11","3B","C2","C","43"
"","","approach-retreat","47","857083","0.0-47.0","","","2-5","4467","39","1","Training","Stims/Figures/111-J-10-3.bmp","za:saza","Right","39","3","12","3B","C2","C","44"
"","","approach-retreat","48","864089","0.0-48.0","","","2-5","5500","37","1","Training","Stims/Figures/71-J-0-1.bmp","za:saza","Left","37","3","13","3B","C2","C","45"
"","","approach-retreat","49","870359","0.0-49.0","","","2-5","4763","37","1","Training","Stims/Figures/118-C-20-2.bmp","fa:fava","Right","37","3","14","3B","C1","C","46"
"","","approach-retreat","50","876480","0.0-50.0","","","2-5","4615","40","1","Training","Stims/Figures/87-J-10-4.bmp","za:saza","Down","40","3","15","3B","C2","C","47"
"","","approach-retreat","51","882920","0.0-51.0","","","2-5","4935","37","1","Training","Stims/Figures/102-J-10-4.bmp","za:saza","Left","37","3","16","3B","C2","C","48"
"","","approach-retreat","52","888853","0.0-52.0","","","2-5","4426","38","1","Training","Stims/Figures/87-C-20-4.bmp","fa:fava","Down","38","4","1","3B","C1","C","49"
"","","approach-retreat","53","894954","0.0-53.0","","","2-5","4595","37","1","Training","Stims/Figures/100-J-10-3.bmp","za:saza","Left","37","4","2","3B","C2","C","50"
"","","approach-retreat","54","902427","0.0-54.0","","","2-5","5968","38","1","Training","Stims/Figures/111-C-30-3.bmp","fa:fava","Down","38","4","3","3B","C1","C","51"
"","","approach-retreat","55","908598","0.0-55.0","","","2-5","4667","39","1","Training","Stims/Figures/102-C-20-4.bmp","fa:fava","Left","39","4","4","3B","C1","C","52"
"","","approach-retreat","56","915868","0.0-56.0","","","2-5","5764","39","1","Training","Stims/Figures/93-J-0-1.bmp","za:saza","Right","39","4","5","3B","C2","C","53"
"","","approach-retreat","57","921815","0.0-57.0","","","2-5","4438","38","1","Training","Stims/Figures/94-C-20-2.bmp","fa:fava","Down","38","4","6","3B","C1","C","54"
"","","approach-retreat","58","929277","0.0-58.0","","","2-5","5957","37","1","Training","Stims/Figures/71-J-0-1.bmp","za:saza","Left","37","4","7","3B","C2","C","55"
"","","approach-retreat","59","936004","0.0-59.0","","","2-5","5221","38","1","Training","Stims/Figures/102-J-10-4.bmp","za:saza","Up","38","4","8","3B","C2","C","56"
"","","approach-retreat","60","942192","0.0-60.0","","","2-5","4681","38","1","Training","Stims/Figures/87-J-10-4.bmp","za:saza","Up","38","4","9","3B","C2","C","57"
"","","approach-retreat","61","949377","0.0-61.0","","","2-5","5679","39","1","Training","Stims/Figures/93-C-30-1.bmp","fa:fava","Left","39","4","10","3B","C1","C","58"
"","","approach-retreat","62","957459","0.0-62.0","","","2-5","6577","37","1","Training","Stims/Figures/100-C-30-3.bmp","fa:fava","Right","37","4","11","3B","C1","C","59"
"","","approach-retreat","63","963732","0.0-63.0","","","2-5","4768","38","1","Training","Stims/Figures/118-C-20-2.bmp","fa:fava","Down","38","4","12","3B","C1","C","60"
"","","approach-retreat","64","975356","0.0-64.0","","","2-5","10118","39","1","Training","Stims/Figures/118-J-0-2.bmp","za:saza","Right","39","4","13","3B","C2","C","61"
"","","approach-retreat","65","982156","0.0-65.0","","","2-5","5295","40","1","Training","Stims/Figures/71-C-30-1.bmp","fa:fava","Up","40","4","14","3B","C1","C","62"
"","","approach-retreat","66","989041","0.0-66.0","","","2-5","5379","38","1","Training","Stims/Figures/111-J-10-3.bmp","za:saza","Up","38","4","15","3B","C2","C","63"
"","","approach-retreat","67","995018","0.0-67.0","","","2-5","4470","39","1","Training","Stims/Figures/94-J-0-2.bmp","za:saza","Right","39","4","16","3B","C2","C","64"
"","","approach-retreat","68","1001703","0.0-68.0","","","2-5","5178","37","1","Training","Stims/Figures/100-C-30-3.bmp","fa:fava","Right","37","5","1","3B","C1","C","65"
"","","approach-retreat","69","1007836","0.0-69.0","","","2-5","4627","39","1","Training","Stims/Figures/102-C-20-4.bmp","fa:fava","Left","39","5","2","3B","C1","C","66"
"","","approach-retreat","70","1013674","0.0-70.0","","","2-5","4333","40","1","Training","Stims/Figures/93-J-0-1.bmp","za:saza","Down","40","5","3","3B","C2","C","67"
"","","approach-retreat","71","1019548","0.0-71.0","","","2-5","4369","40","1","Training","Stims/Figures/100-J-10-3.bmp","za:saza","Down","40","5","4","3B","C2","C","68"
"","","approach-retreat","72","1025470","0.0-72.0","","","2-5","4417","38","1","Training","Stims/Figures/71-C-30-1.bmp","fa:fava","Down","38","5","5","3B","C1","C","69"
"","","approach-retreat","73","1032307","0.0-73.0","","","2-5","5330","40","1","Training","Stims/Figures/87-C-20-4.bmp","fa:fava","Up","40","5","6","3B","C1","C","70"
"","","approach-retreat","74","1040904","0.0-74.0","","","2-5","7092","38","1","Training","Stims/Figures/102-J-10-4.bmp","za:saza","Up","38","5","7","3B","C2","C","71"
"","","approach-retreat","75","1046793","0.0-75.0","","","2-5","4382","37","1","Training","Stims/Figures/118-C-20-2.bmp","fa:fava","Right","37","5","8","3B","C1","C","72"
"","","approach-retreat","76","1053741","0.0-76.0","","","2-5","5443","39","1","Training","Stims/Figures/94-C-20-2.bmp","fa:fava","Left","39","5","9","3B","C1","C","73"
"","","approach-retreat","77","1060693","0.0-77.0","","","2-5","5447","39","1","Training","Stims/Figures/111-J-10-3.bmp","za:saza","Right","39","5","10","3B","C2","C","74"
"","","approach-retreat","78","1066431","0.0-78.0","","","2-5","4232","40","1","Training","Stims/Figures/71-J-0-1.bmp","za:saza","Down","40","5","11","3B","C2","C","75"
"","","approach-retreat","79","1072414","0.0-79.0","","","2-5","4477","37","1","Training","Stims/Figures/94-J-0-2.bmp","za:saza","Left","37","5","12","3B","C2","C","76"
"","","approach-retreat","80","1078807","0.0-80.0","","","2-5","4887","38","1","Training","Stims/Figures/87-J-10-4.bmp","za:saza","Up","38","5","13","3B","C2","C","77"
"","","approach-retreat","81","1085619","0.0-81.0","","","2-5","5306","37","1","Training","Stims/Figures/111-C-30-3.bmp","fa:fava","Right","37","5","14","3B","C1","C","78"
"","","approach-retreat","82","1091855","0.0-82.0","","","2-5","4730","38","1","Training","Stims/Figures/118-J-0-2.bmp","za:saza","Up","38","5","15","3B","C2","C","79"
"","","approach-retreat","83","1098876","0.0-83.0","","","2-5","5516","39","1","Training","Stims/Figures/93-C-30-1.bmp","fa:fava","Left","39","5","16","3B","C1","C","80"
"","","approach-retreat","84","1106014","0.0-84.0","","","2-5","5633","40","1","Training","Stims/Figures/93-J-0-1.bmp","za:saza","Down","40","6","1","3B","C2","C","81"
"","","approach-retreat","85","1113754","0.0-85.0","","","2-5","6233","37","1","Training","Stims/Figures/93-C-30-1.bmp","fa:fava","Right","37","6","2","3B","C1","C","82"
"","","approach-retreat","86","1119743","0.0-86.0","","","2-5","4484","37","1","Training","Stims/Figures/100-C-30-3.bmp","fa:fava","Right","37","6","3","3B","C1","C","83"
"","","approach-retreat","87","1125902","0.0-87.0","","","2-5","4619","40","1","Training","Stims/Figures/87-C-20-4.bmp","fa:fava","Up","40","6","4","3B","C1","C","84"
"","","approach-retreat","88","1132050","0.0-88.0","","","2-5","4643","37","1","Training","Stims/Figures/118-J-0-2.bmp","za:saza","Left","37","6","5","3B","C2","C","85"
"","","approach-retreat","89","1138092","0.0-89.0","","","2-5","4536","40","1","Training","Stims/Figures/118-C-20-2.bmp","fa:fava","Up","40","6","6","3B","C1","C","86"
"","","approach-retreat","90","1146936","0.0-90.0","","","2-5","7338","39","1","Training","Stims/Figures/100-J-10-3.bmp","za:saza","Right","39","6","7","3B","C2","C","87"
"","","approach-retreat","91","1152944","0.0-91.0","","","2-5","4500","39","1","Training","Stims/Figures/94-C-20-2.bmp","fa:fava","Left","39","6","8","3B","C1","C","88"
"","","approach-retreat","92","1159047","0.0-92.0","","","2-5","4597","40","1","Training","Stims/Figures/102-J-10-4.bmp","za:saza","Down","40","6","9","3B","C2","C","89"
"","","approach-retreat","93","1165085","0.0-93.0","","","2-5","4532","38","1","Training","Stims/Figures/94-J-0-2.bmp","za:saza","Up","38","6","10","3B","C2","C","90"
"","","approach-retreat","94","1171306","0.0-94.0","","","2-5","4713","40","1","Training","Stims/Figures/111-J-10-3.bmp","za:saza","Down","40","6","11","3B","C2","C","91"
"","","approach-retreat","95","1178487","0.0-95.0","","","2-5","5674","40","1","Training","Stims/Figures/111-C-30-3.bmp","fa:fava","Up","40","6","12","3B","C1","C","92"
"","","approach-retreat","96","1184329","0.0-96.0","","","2-5","4335","37","1","Training","Stims/Figures/102-C-20-4.bmp","fa:fava","Right","37","6","13","3B","C1","C","93"
"","","approach-retreat","97","1190847","0.0-97.0","","","2-5","5011","37","1","Training","Stims/Figures/71-J-0-1.bmp","za:saza","Left","37","6","14","3B","C2","C","94"
"","","approach-retreat","98","1198090","0.0-98.0","","","2-5","5739","40","1","Training","Stims/Figures/87-J-10-4.bmp","za:saza","Down","40","6","15","3B","C2","C","95"
"","","approach-retreat","99","1204939","0.0-99.0","","","2-5","5344","39","1","Training","Stims/Figures/71-C-30-1.bmp","fa:fava","Left","39","6","16","3B","C1","C","96"
"","","approach-retreat","100","1212162","0.0-100.0","","","2-5","5716","40","1","Training","Stims/Figures/111-C-30-3.bmp","fa:fava","Up","40","7","1","3B","C1","C","97"
"","","approach-retreat","101","1218067","0.0-101.0","","","2-5","4398","38","1","Training","Stims/Figures/94-J-0-2.bmp","za:saza","Up","38","7","2","3B","C2","C","98"
"","","approach-retreat","102","1224787","0.0-102.0","","","2-5","5215","37","1","Training","Stims/Figures/93-J-0-1.bmp","za:saza","Left","37","7","3","3B","C2","C","99"
"","","approach-retreat","103","1230694","0.0-103.0","","","2-5","4401","39","1","Training","Stims/Figures/71-J-0-1.bmp","za:saza","Right","39","7","4","3B","C2","C","100"
"","","approach-retreat","104","1236352","0.0-104.0","","","2-5","4152","40","1","Training","Stims/Figures/94-C-20-2.bmp","fa:fava","Up","40","7","5","3B","C1","C","101"
"","","approach-retreat","105","1244983","0.0-105.0","","","2-5","7124","40","1","Training","Stims/Figures/87-J-10-4.bmp","za:saza","Down","40","7","6","3B","C2","C","102"
"","","approach-retreat","106","1251230","0.0-106.0","","","2-5","4742","39","1","Training","Stims/Figures/100-J-10-3.bmp","za:saza","Right","39","7","7","3B","C2","C","103"
"","","approach-retreat","107","1256880","0.0-107.0","","","2-5","4143","37","1","Training","Stims/Figures/87-C-20-4.bmp","fa:fava","Right","37","7","8","3B","C1","C","104"
"","","approach-retreat","108","1262763","0.0-108.0","","","2-5","4377","38","1","Training","Stims/Figures/93-C-30-1.bmp","fa:fava","Down","38","7","9","3B","C1","C","105"
"","","approach-retreat","109","1268675","0.0-109.0","","","2-5","4405","37","1","Training","Stims/Figures/118-J-0-2.bmp","za:saza","Left","37","7","10","3B","C2","C","106"
"","","approach-retreat","110","1274806","0.0-110.0","","","2-5","4625","38","1","Training","Stims/Figures/100-C-30-3.bmp","fa:fava","Down","38","7","11","3B","C1","C","107"
"","","approach-retreat","111","1280655","0.0-111.0","","","2-5","4344","37","1","Training","Stims/Figures/118-C-20-2.bmp","fa:fava","Right","37","7","12","3B","C1","C","108"
"","","approach-retreat","112","1287839","0.0-112.0","","","2-5","5678","39","1","Training","Stims/Figures/102-C-20-4.bmp","fa:fava","Left","39","7","13","3B","C1","C","109"
"","","approach-retreat","113","1294046","0.0-113.0","","","2-5","4701","37","1","Training","Stims/Figures/111-J-10-3.bmp","za:saza","Left","37","7","14","3B","C2","C","110"
"","","approach-retreat","114","1301794","0.0-114.0","","","2-5","6243","40","1","Training","Stims/Figures/102-J-10-4.bmp","za:saza","Down","40","7","15","3B","C2","C","111"
"","","approach-retreat","115","1307618","0.0-115.0","","","2-5","4319","40","1","Training","Stims/Figures/71-C-30-1.bmp","fa:fava","Up","40","7","16","3B","C1","C","112"
"","","approach-retreat","116","1313673","0.0-116.0","","","2-5","4549","39","1","Training","Stims/Figures/87-C-20-4.bmp","fa:fava","Left","39","8","1","3B","C1","C","113"
"","","approach-retreat","117","1320334","0.0-117.0","","","2-5","5154","37","1","Training","Stims/Figures/111-C-30-3.bmp","fa:fava","Right","37","8","2","3B","C1","C","114"
"","","approach-retreat","118","1326506","0.0-118.0","","","2-5","4668","37","1","Training","Stims/Figures/102-C-20-4.bmp","fa:fava","Right","37","8","3","3B","C1","C","115"
"","","approach-retreat","119","1332514","0.0-119.0","","","2-5","4500","38","1","Training","Stims/Figures/71-J-0-1.bmp","za:saza","Up","38","8","4","3B","C2","C","116"
"","","approach-retreat","120","1338301","0.0-120.0","","","2-5","4282","40","1","Training","Stims/Figures/93-C-30-1.bmp","fa:fava","Up","40","8","5","3B","C1","C","117"
"","","approach-retreat","121","1344632","0.0-121.0","","","2-5","4825","40","1","Training","Stims/Figures/94-J-0-2.bmp","za:saza","Down","40","8","6","3B","C2","C","118"
"","","approach-retreat","122","1351235","0.0-122.0","","","2-5","5096","37","1","Training","Stims/Figures/94-C-20-2.bmp","fa:fava","Right","37","8","7","3B","C1","C","119"
"","","approach-retreat","123","1357710","0.0-123.0","","","2-5","4968","39","1","Training","Stims/Figures/100-C-30-3.bmp","fa:fava","Left","39","8","8","3B","C1","C","120"
"","","approach-retreat","124","1364332","0.0-124.0","","","2-5","5116","37","1","Training","Stims/Figures/100-J-10-3.bmp","za:saza","Left","37","8","9","3B","C2","C","121"
"","","approach-retreat","125","1371098","0.0-125.0","","","2-5","5260","40","1","Training","Stims/Figures/102-J-10-4.bmp","za:saza","Down","40","8","10","3B","C2","C","122"
"","","approach-retreat","126","1377002","0.0-126.0","","","2-5","4399","39","1","Training","Stims/Figures/118-C-20-2.bmp","fa:fava","Left","39","8","11","3B","C1","C","123"
"","","approach-retreat","127","1383405","0.0-127.0","","","2-5","4896","38","1","Training","Stims/Figures/93-J-0-1.bmp","za:saza","Up","38","8","12","3B","C2","C","124"
"","","approach-retreat","128","1392971","0.0-128.0","","","2-5","8061","38","1","Training","Stims/Figures/71-C-30-1.bmp","fa:fava","Down","38","8","13","3B","C1","C","125"
"","","approach-retreat","129","1399268","0.0-129.0","","","2-5","4791","40","1","Training","Stims/Figures/111-J-10-3.bmp","za:saza","Down","40","8","14","3B","C2","C","126"
"","","approach-retreat","130","1405705","0.0-130.0","","","2-5","4931","39","1","Training","Stims/Figures/87-J-10-4.bmp","za:saza","Right","39","8","15","3B","C2","C","127"
"","","approach-retreat","131","1412016","0.0-131.0","","","2-5","4806","38","1","Training","Stims/Figures/118-J-0-2.bmp","za:saza","Up","38","8","16","3B","C2","C","128"
"","","approach-retreat","132","1417988","0.0-132.0","","","2-5","4465","39","1","Training","Stims/Figures/118-J-0-2.bmp","za:saza","Right","39","9","1","3B","C2","C","129"
"","","approach-retreat","133","1424992","0.0-133.0","","","2-5","5499","39","1","Training","Stims/Figures/93-C-30-1.bmp","fa:fava","Left","39","9","2","3B","C1","C","130"
"","","approach-retreat","134","1433521","0.0-134.0","","","2-5","7024","40","1","Training","Stims/Figures/111-C-30-3.bmp","fa:fava","Up","40","9","3","3B","C1","C","131"
"","","approach-retreat","135","1440246","0.0-135.0","","","2-5","5218","39","1","Training","Stims/Figures/71-J-0-1.bmp","za:saza","Right","39","9","4","3B","C2","C","132"
"","","approach-retreat","136","1445999","0.0-136.0","","","2-5","4248","38","1","Training","Stims/Figures/102-C-20-4.bmp","fa:fava","Down","38","9","5","3B","C1","C","133"
"","","approach-retreat","137","1452212","0.0-137.0","","","2-5","4704","38","1","Training","Stims/Figures/93-J-0-1.bmp","za:saza","Up","38","9","6","3B","C2","C","134"
"","","approach-retreat","138","1458280","0.0-138.0","","","2-5","4561","39","1","Training","Stims/Figures/87-C-20-4.bmp","fa:fava","Left","39","9","7","3B","C1","C","135"
"","","approach-retreat","139","1467555","0.0-139.0","","","2-5","7768","39","1","Training","Stims/Figures/102-J-10-4.bmp","za:saza","Right","39","9","8","3B","C2","C","136"
"","","approach-retreat","140","1473952","0.0-140.0","","","2-5","4890","39","1","Training","Stims/Figures/100-C-30-3.bmp","fa:fava","Left","39","9","9","3B","C1","C","137"
"","","approach-retreat","141","1480157","0.0-141.0","","","2-5","4697","37","1","Training","Stims/Figures/111-J-10-3.bmp","za:saza","Left","37","9","10","3B","C2","C","138"
"","","approach-retreat","142","1486205","0.0-142.0","","","2-5","4543","38","1","Training","Stims/Figures/94-C-20-2.bmp","fa:fava","Down","38","9","11","3B","C1","C","139"
"","","approach-retreat","143","1492629","0.0-143.0","","","2-5","4918","39","1","Training","Stims/Figures/100-J-10-3.bmp","za:saza","Right","39","9","12","3B","C2","C","140"
"","","approach-retreat","144","1499851","0.0-144.0","","","2-5","5716","38","1","Training","Stims/Figures/118-C-20-2.bmp","fa:fava","Down","38","9","13","3B","C1","C","141"
"","","approach-retreat","145","1506911","0.0-145.0","","","2-5","5555","40","1","Training","Stims/Figures/71-C-30-1.bmp","fa:fava","Up","40","9","14","3B","C1","C","142"
"","","approach-retreat","146","1513096","0.0-146.0","","","2-5","4678","38","1","Training","Stims/Figures/94-J-0-2.bmp","za:saza","Up","38","9","15","3B","C2","C","143"
"","","approach-retreat","147","1523810","0.0-147.0","","","2-5","9207","40","1","Training","Stims/Figures/87-J-10-4.bmp","za:saza","Down","40","9","16","3B","C2","C","144"
"34858","","instructions","148","1558668","0.0-148.0","[{""page_index"":0,""viewing_time"":34857}]","","","","","","","","","","","","","","","",""
"","","approach-retreat","149","1568701","0.0-149.0","","","2-5","8528","40","1","Testing","Stims/Figures/102-C-20-4.bmp","fa:fava","Up","40","1","1","3B","C1","C","1"
"","","approach-retreat","150","1577202","0.0-150.0","","","2-5","6992","39","1","Testing","Stims/Figures/118-J-0-2.bmp","za:saza","Right","39","1","2","3B","C2","C","2"
"","","approach-retreat","151","1585360","0.0-151.0","","","2-5","6651","40","1","Testing","Stims/Figures/57-J-0-1.bmp","za:saza","Down","40","1","3","3B","C2","C","3"
"","","approach-retreat","152","1591400","0.0-152.0","","","2-5","4536","39","1","Testing","Stims/Figures/94-C-20-2.bmp","fa:fava","Left","39","1","4","3B","C1","C","4"
"","","approach-retreat","153","1599986","0.0-153.0","","","2-5","7080","38","1","Testing","Stims/Figures/19-C-20-4.bmp","fa:fava","Down","38","1","5","3B","C1","C","5"
"","","approach-retreat","154","1605749","0.0-154.0","","","2-5","4258","39","1","Testing","Stims/Figures/71-C-30-1.bmp","fa:fava","Left","39","1","6","3B","C1","C","6"
"","","approach-retreat","155","1611775","0.0-155.0","","","2-5","4520","39","1","Testing","Stims/Figures/93-C-30-1.bmp","fa:fava","Left","39","1","7","3B","C1","C","7"
"","","approach-retreat","156","1621322","0.0-156.0","","","2-5","8043","38","1","Testing","Stims/Figures/87-C-20-4.bmp","fa:fava","Down","38","1","8","3B","C1","C","8"
"","","approach-retreat","157","1628073","0.0-157.0","","","2-5","5247","38","1","Testing","Stims/Figures/71-J-0-1.bmp","za:saza","Up","38","1","9","3B","C2","C","9"
"","","approach-retreat","158","1634330","0.0-158.0","","","2-5","4752","37","1","Testing","Stims/Figures/139-C-20-2.bmp","fa:fava","Right","37","1","10","3B","C1","C","10"
"","","approach-retreat","159","1640479","0.0-159.0","","","2-5","4644","40","1","Testing","Stims/Figures/44-J-10-3.bmp","za:saza","Down","40","1","11","3B","C2","C","11"
"","","approach-retreat","160","1646790","0.0-160.0","","","2-5","4805","37","1","Testing","Stims/Figures/139-J-0-2.bmp","za:saza","Left","37","1","12","3B","C2","C","12"
"","","approach-retreat","161","1653275","0.0-161.0","","","2-5","4980","40","1","Testing","Stims/Figures/111-C-30-3.bmp","fa:fava","Up","40","1","13","3B","C1","C","13"
"","","approach-retreat","162","1659242","0.0-162.0","","","2-5","4463","40","1","Testing","Stims/Figures/118-C-20-2.bmp","fa:fava","Up","40","1","14","3B","C1","C","14"
"","","approach-retreat","163","1665475","0.0-163.0","","","2-5","4728","40","1","Testing","Stims/Figures/44-C-30-3.bmp","fa:fava","Up","40","1","15","3B","C1","C","15"
"","","approach-retreat","164","1675645","0.0-164.0","","","2-5","8666","37","1","Testing","Stims/Figures/57-C-30-1.bmp","fa:fava","Right","37","1","16","3B","C1","C","16"
"","","approach-retreat","165","1681507","0.0-165.0","","","2-5","4355","39","1","Testing","Stims/Figures/94-J-0-2.bmp","za:saza","Right","39","1","17","3B","C2","C","17"
"","","approach-retreat","166","1687398","0.0-166.0","","","2-5","4386","38","1","Testing","Stims/Figures/102-J-10-4.bmp","za:saza","Up","38","1","18","3B","C2","C","18"
"","","approach-retreat","167","1693632","0.0-167.0","","","2-5","4728","37","1","Testing","Stims/Figures/93-J-0-1.bmp","za:saza","Left","37","1","19","3B","C2","C","19"
"","","approach-retreat","168","1699497","0.0-168.0","","","2-5","4359","37","1","Testing","Stims/Figures/100-J-10-3.bmp","za:saza","Left","37","1","20","3B","C2","C","20"
"","","approach-retreat","169","1705864","0.0-169.0","","","2-5","4861","40","1","Testing","Stims/Figures/87-J-10-4.bmp","za:saza","Down","40","1","21","3B","C2","C","21"
"","","approach-retreat","170","1711995","0.0-170.0","","","2-5","4626","37","1","Testing","Stims/Figures/100-C-30-3.bmp","fa:fava","Right","37","1","22","3B","C1","C","22"
"","","approach-retreat","171","1718130","0.0-171.0","","","2-5","4631","40","1","Testing","Stims/Figures/111-J-10-3.bmp","za:saza","Down","40","1","23","3B","C2","C","23"
"","","approach-retreat","172","1726989","0.0-172.0","","","2-5","7354","39","1","Testing","Stims/Figures/19-J-10-4.bmp","za:saza","Right","39","1","24","3B","C2","C","24"
"","","approach-retreat","173","1733028","0.0-173.0","","","2-5","4534","40","1","Testing","Stims/Figures/102-C-20-4.bmp","fa:fava","Up","40","2","1","3B","C1","C","25"
"","","approach-retreat","174","1739945","0.0-174.0","","","2-5","5411","40","0","Testing","Stims/Figures/19-J-10-4.bmp","za:saza","Up","38","2","2","3B","C2","C","26"
"","","approach-retreat","175","1745960","0.0-175.0","","","2-5","4511","38","1","Testing","Stims/Figures/19-C-20-4.bmp","fa:fava","Down","38","2","3","3B","C1","C","27"
"","","approach-retreat","176","1751853","0.0-176.0","","","2-5","4387","40","1","Testing","Stims/Figures/93-C-30-1.bmp","fa:fava","Up","40","2","4","3B","C1","C","28"
"","","approach-retreat","177","1757755","0.0-177.0","","","2-5","4399","38","1","Testing","Stims/Figures/87-C-20-4.bmp","fa:fava","Down","38","2","5","3B","C1","C","29"
"","","approach-retreat","178","1764542","0.0-178.0","","","2-5","5281","37","1","Testing","Stims/Figures/100-C-30-3.bmp","fa:fava","Right","37","2","6","3B","C1","C","30"
"","","approach-retreat","179","1770400","0.0-179.0","","","2-5","4354","38","1","Testing","Stims/Figures/44-J-10-3.bmp","za:saza","Up","38","2","7","3B","C2","C","31"
"","","approach-retreat","180","1776620","0.0-180.0","","","2-5","4714","37","1","Testing","Stims/Figures/139-J-0-2.bmp","za:saza","Left","37","2","8","3B","C2","C","32"
"","","approach-retreat","181","1782930","0.0-181.0","","","2-5","4805","38","1","Testing","Stims/Figures/111-J-10-3.bmp","za:saza","Up","38","2","9","3B","C2","C","33"
"","","approach-retreat","182","1790831","0.0-182.0","","","2-5","6397","39","1","Testing","Stims/Figures/118-C-20-2.bmp","fa:fava","Left","39","2","10","3B","C1","C","34"
"","","approach-retreat","183","1796674","0.0-183.0","","","2-5","4337","37","1","Testing","Stims/Figures/93-J-0-1.bmp","za:saza","Left","37","2","11","3B","C2","C","35"
"","","approach-retreat","184","1804562","0.0-184.0","","","2-5","6383","39","1","Testing","Stims/Figures/57-C-30-1.bmp","fa:fava","Left","39","2","12","3B","C1","C","36"
"","","approach-retreat","185","1811485","0.0-185.0","","","2-5","5416","37","1","Testing","Stims/Figures/44-C-30-3.bmp","fa:fava","Right","37","2","13","3B","C1","C","37"
"","","approach-retreat","186","1817357","0.0-186.0","","","2-5","4369","40","1","Testing","Stims/Figures/57-J-0-1.bmp","za:saza","Down","40","2","14","3B","C2","C","38"
"","","approach-retreat","187","1823341","0.0-187.0","","","2-5","4479","40","1","Testing","Stims/Figures/102-J-10-4.bmp","za:saza","Down","40","2","15","3B","C2","C","39"
"","","approach-retreat","188","1829058","0.0-188.0","","","2-5","4211","39","1","Testing","Stims/Figures/71-C-30-1.bmp","fa:fava","Left","39","2","16","3B","C1","C","40"
"","","approach-retreat","189","1835011","0.0-189.0","","","2-5","4446","37","1","Testing","Stims/Figures/94-C-20-2.bmp","fa:fava","Right","37","2","17","3B","C1","C","41"
"","","approach-retreat","190","1840780","0.0-190.0","","","2-5","4265","40","1","Testing","Stims/Figures/71-J-0-1.bmp","za:saza","Down","40","2","18","3B","C2","C","42"
"","","approach-retreat","191","1846863","0.0-191.0","","","2-5","4577","37","1","Testing","Stims/Figures/87-J-10-4.bmp","za:saza","Left","37","2","19","3B","C2","C","43"
"","","approach-retreat","192","1852918","0.0-192.0","","","2-5","4551","40","1","Testing","Stims/Figures/94-J-0-2.bmp","za:saza","Down","40","2","20","3B","C2","C","44"
"","","approach-retreat","193","1859422","0.0-193.0","","","2-5","4999","39","1","Testing","Stims/Figures/100-J-10-3.bmp","za:saza","Right","39","2","21","3B","C2","C","45"
"","","approach-retreat","194","1865785","0.0-194.0","","","2-5","4858","40","1","Testing","Stims/Figures/139-C-20-2.bmp","fa:fava","Up","40","2","22","3B","C1","C","46"
"","","approach-retreat","195","1872119","0.0-195.0","","","2-5","4828","39","1","Testing","Stims/Figures/118-J-0-2.bmp","za:saza","Right","39","2","23","3B","C2","C","47"
"","","approach-retreat","196","1877942","0.0-196.0","","","2-5","4320","37","1","Testing","Stims/Figures/111-C-30-3.bmp","fa:fava","Right","37","2","24","3B","C1","C","48"
"","","approach-retreat","197","1883821","0.0-197.0","","","2-5","4374","38","1","Testing","Stims/Figures/139-C-20-2.bmp","fa:fava","Down","38","3","1","3B","C1","C","49"
"","","approach-retreat","198","1889875","0.0-198.0","","","2-5","4549","40","1","Testing","Stims/Figures/93-C-30-1.bmp","fa:fava","Up","40","3","2","3B","C1","C","50"
"","","approach-retreat","199","1895937","0.0-199.0","","","2-5","4557","38","1","Testing","Stims/Figures/44-C-30-3.bmp","fa:fava","Down","38","3","3","3B","C1","C","51"
"","","approach-retreat","200","1902011","0.0-200.0","","","2-5","4568","37","1","Testing","Stims/Figures/111-J-10-3.bmp","za:saza","Left","37","3","4","3B","C2","C","52"
"","","approach-retreat","201","1907916","0.0-201.0","","","2-5","4400","39","1","Testing","Stims/Figures/71-J-0-1.bmp","za:saza","Right","39","3","5","3B","C2","C","53"
"","","approach-retreat","202","1913673","0.0-202.0","","","2-5","4251","38","1","Testing","Stims/Figures/111-C-30-3.bmp","fa:fava","Down","38","3","6","3B","C1","C","54"
"","","approach-retreat","203","1919707","0.0-203.0","","","2-5","4528","39","1","Testing","Stims/Figures/94-J-0-2.bmp","za:saza","Right","39","3","7","3B","C2","C","55"
"","","approach-retreat","204","1925439","0.0-204.0","","","2-5","4227","40","1","Testing","Stims/Figures/19-C-20-4.bmp","fa:fava","Up","40","3","8","3B","C1","C","56"
"","","approach-retreat","205","1931502","0.0-205.0","","","2-5","4557","38","1","Testing","Stims/Figures/102-J-10-4.bmp","za:saza","Up","38","3","9","3B","C2","C","57"
"","","approach-retreat","206","1937615","0.0-206.0","","","2-5","4609","37","1","Testing","Stims/Figures/139-J-0-2.bmp","za:saza","Left","37","3","10","3B","C2","C","58"
"","","approach-retreat","207","1943548","0.0-207.0","","","2-5","4429","38","1","Testing","Stims/Figures/93-J-0-1.bmp","za:saza","Up","38","3","11","3B","C2","C","59"
"","","approach-retreat","208","1949178","0.0-208.0","","","2-5","4125","38","1","Testing","Stims/Figures/44-J-10-3.bmp","za:saza","Up","38","3","12","3B","C2","C","60"
"","","approach-retreat","209","1955134","0.0-209.0","","","2-5","4450","39","1","Testing","Stims/Figures/118-J-0-2.bmp","za:saza","Right","39","3","13","3B","C2","C","61"
"","","approach-retreat","210","1961176","0.0-210.0","","","2-5","4537","39","1","Testing","Stims/Figures/57-C-30-1.bmp","fa:fava","Left","39","3","14","3B","C1","C","62"
"","","approach-retreat","211","1967947","0.0-211.0","","","2-5","5264","40","1","Testing","Stims/Figures/94-C-20-2.bmp","fa:fava","Up","40","3","15","3B","C1","C","63"
"","","approach-retreat","212","1974172","0.0-212.0","","","2-5","4720","37","1","Testing","Stims/Figures/102-C-20-4.bmp","fa:fava","Right","37","3","16","3B","C1","C","64"
"","","approach-retreat","213","1980467","0.0-213.0","","","2-5","4790","37","1","Testing","Stims/Figures/57-J-0-1.bmp","za:saza","Left","37","3","17","3B","C2","C","65"
"","","approach-retreat","214","1987466","0.0-214.0","","","2-5","5494","37","1","Testing","Stims/Figures/118-C-20-2.bmp","fa:fava","Right","37","3","18","3B","C1","C","66"
"","","approach-retreat","215","1994146","0.0-215.0","","","2-5","5174","37","1","Testing","Stims/Figures/100-C-30-3.bmp","fa:fava","Right","37","3","19","3B","C1","C","67"
"","","approach-retreat","216","2001134","0.0-216.0","","","2-5","5482","37","1","Testing","Stims/Figures/100-J-10-3.bmp","za:saza","Left","37","3","20","3B","C2","C","68"
"","","approach-retreat","217","2007081","0.0-217.0","","","2-5","4442","40","1","Testing","Stims/Figures/87-J-10-4.bmp","za:saza","Down","40","3","21","3B","C2","C","69"
"","","approach-retreat","218","2013015","0.0-218.0","","","2-5","4429","39","1","Testing","Stims/Figures/71-C-30-1.bmp","fa:fava","Left","39","3","22","3B","C1","C","70"
"","","approach-retreat","219","2023321","0.0-219.0","","","2-5","8799","40","1","Testing","Stims/Figures/19-J-10-4.bmp","za:saza","Down","40","3","23","3B","C2","C","71"
"","","approach-retreat","220","2029986","0.0-220.0","","","2-5","5160","38","1","Testing","Stims/Figures/87-C-20-4.bmp","fa:fava","Down","38","3","24","3B","C1","C","72"
"","","approach-retreat","221","2038726","0.0-221.0","","","2-5","7236","39","0","Testing","Stims/Figures/19-J-10-4.bmp","za:saza","Left","37","4","1","3B","C2","C","73"
"","","approach-retreat","222","2045547","0.0-222.0","","","2-5","5315","40","1","Testing","Stims/Figures/102-J-10-4.bmp","za:saza","Down","40","4","2","3B","C2","C","74"
"","","approach-retreat","223","2051546","0.0-223.0","","","2-5","4495","40","1","Testing","Stims/Figures/118-J-0-2.bmp","za:saza","Down","40","4","3","3B","C2","C","75"
"","","approach-retreat","224","2057411","0.0-224.0","","","2-5","4360","37","1","Testing","Stims/Figures/100-J-10-3.bmp","za:saza","Left","37","4","4","3B","C2","C","76"
"","","approach-retreat","225","2064105","0.0-225.0","","","2-5","5188","38","1","Testing","Stims/Figures/57-J-0-1.bmp","za:saza","Up","38","4","5","3B","C2","C","77"
"","","approach-retreat","226","2069854","0.0-226.0","","","2-5","4243","40","1","Testing","Stims/Figures/100-C-30-3.bmp","fa:fava","Up","40","4","6","3B","C1","C","78"
"","","approach-retreat","227","2075911","0.0-227.0","","","2-5","4551","40","1","Testing","Stims/Figures/57-C-30-1.bmp","fa:fava","Up","40","4","7","3B","C1","C","79"
"","","approach-retreat","228","2086469","0.0-228.0","","","2-5","9053","38","1","Testing","Stims/Figures/139-C-20-2.bmp","fa:fava","Down","38","4","8","3B","C1","C","80"
"","","approach-retreat","229","2092611","0.0-229.0","","","2-5","4638","37","1","Testing","Stims/Figures/71-J-0-1.bmp","za:saza","Left","37","4","9","3B","C2","C","81"
"","","approach-retreat","230","2098358","0.0-230.0","","","2-5","4241","40","1","Testing","Stims/Figures/44-C-30-3.bmp","fa:fava","Up","40","4","10","3B","C1","C","82"
"","","approach-retreat","231","2104842","0.0-231.0","","","2-5","4980","39","1","Testing","Stims/Figures/44-J-10-3.bmp","za:saza","Right","39","4","11","3B","C2","C","83"
"","","approach-retreat","232","2110982","0.0-232.0","","","2-5","4634","39","1","Testing","Stims/Figures/111-C-30-3.bmp","fa:fava","Left","39","4","12","3B","C1","C","84"
"","","approach-retreat","233","2117096","0.0-233.0","","","2-5","4608","37","1","Testing","Stims/Figures/102-C-20-4.bmp","fa:fava","Right","37","4","13","3B","C1","C","85"
"","","approach-retreat","234","2123221","0.0-234.0","","","2-5","4620","37","1","Testing","Stims/Figures/87-J-10-4.bmp","za:saza","Left","37","4","14","3B","C2","C","86"
"","","approach-retreat","235","2129266","0.0-235.0","","","2-5","4540","39","1","Testing","Stims/Figures/93-C-30-1.bmp","fa:fava","Left","39","4","15","3B","C1","C","87"
"","","approach-retreat","236","2135073","0.0-236.0","","","2-5","4300","38","1","Testing","Stims/Figures/111-J-10-3.bmp","za:saza","Up","38","4","16","3B","C2","C","88"
"","","approach-retreat","237","2141063","0.0-237.0","","","2-5","4485","38","1","Testing","Stims/Figures/71-C-30-1.bmp","fa:fava","Down","38","4","17","3B","C1","C","89"
"","","approach-retreat","238","2147344","0.0-238.0","","","2-5","4775","39","1","Testing","Stims/Figures/93-J-0-1.bmp","za:saza","Right","39","4","18","3B","C2","C","90"
"","","approach-retreat","239","2153267","0.0-239.0","","","2-5","4419","37","1","Testing","Stims/Figures/118-C-20-2.bmp","fa:fava","Right","37","4","19","3B","C1","C","91"
"","","approach-retreat","240","2159094","0.0-240.0","","","2-5","4322","37","1","Testing","Stims/Figures/19-C-20-4.bmp","fa:fava","Right","37","4","20","3B","C1","C","92"
"","","approach-retreat","241","2165070","0.0-241.0","","","2-5","4472","39","1","Testing","Stims/Figures/94-J-0-2.bmp","za:saza","Right","39","4","21","3B","C2","C","93"
"","","approach-retreat","242","2171160","0.0-242.0","","","2-5","4585","40","1","Testing","Stims/Figures/139-J-0-2.bmp","za:saza","Down","40","4","22","3B","C2","C","94"
"","","approach-retreat","243","2177545","0.0-243.0","","","2-5","4881","38","1","Testing","Stims/Figures/87-C-20-4.bmp","fa:fava","Down","38","4","23","3B","C1","C","95"
"","","approach-retreat","244","2183892","0.0-244.0","","","2-5","4842","40","1","Testing","Stims/Figures/94-C-20-2.bmp","fa:fava","Up","40","4","24","3B","C1","C","96"
"204051","","survey-text","245","2387947","0.0-245.0","","{""Q0"":""1031/2018""}","","","","","","","","","","","","","","",""
