"rt","key_press","trial_type","trial_index","time_elapsed","internal_node_id","view_history","responses","Id","Rt","ResKeyCode","ResCorr","TrialType2","Image","Label","Location","CorrectResponse","Block","BlockTrial","Condition","LabelType","Subcondition","trialNum"
"3649","32","text","0","3679","0.0-0.0-0.0","","","","","","","","","","","","","","","","",""
"101752","","instructions","1","105444","0.0-1.0","[{""page_index"":0,""viewing_time"":101749}]","","","","","","","","","","","","","","","",""
"29189","","survey-multi-choice","2","134871","0.0-2.0","","{""Q0"":""Da"",""Q1"":""Da"",""Q2"":""Da"",""Q3"":""Da"",""Q4"":""Da"",""Q5"":""Da""}","","","","","","","","","","","","","","",""
"","","bio","3","146619","0.0-3.0","","{""age"":""19"",""gender"":""f"",""specify"":""""}","","","","","","","","","","","","","","",""
"","","approach-retreat","4","159415","0.0-4.0","","","2-4","11205","39","0","Training","Stims/Figures/71-C-30-1.bmp","fa:fa:va","Left","37","1","1","8","C1","J","1"
"","","approach-retreat","5","169089","0.0-5.0","","","2-4","8101","37","1","Training","Stims/Figures/111-J-10-3.bmp","za:saha","Right","37","1","2","8","C2","J","2"
"","","approach-retreat","6","176853","0.0-6.0","","","2-4","6220","40","1","Training","Stims/Figures/74-J-10-4.bmp","zasaha","Up","40","1","3","8","C2","J","3"
"","","approach-retreat","7","185582","0.0-7.0","","","2-4","7175","38","0","Training","Stims/Figures/111-C-30-3.bmp","sa:sa:ha","Down","40","1","4","8","C2","J","4"
"","","approach-retreat","8","192184","0.0-8.0","","","2-4","5057","38","1","Training","Stims/Figures/27-J-0-1.bmp","vafa:sha","Down","38","1","5","8","C1","J","5"
"","","approach-retreat","9","200800","0.0-9.0","","","2-4","7072","38","1","Training","Stims/Figures/19-C-20-4.bmp","zasa:za","Up","38","1","6","8","C2","J","6"
"","","approach-retreat","10","209583","0.0-10.0","","","2-4","7238","38","0","Training","Stims/Figures/94-J-0-2.bmp","fafa:sha","Up","40","1","7","8","C1","J","7"
"","","approach-retreat","11","216875","0.0-11.0","","","2-4","5731","37","1","Training","Stims/Figures/94-C-20-2.bmp","va:fa:va","Left","37","1","8","8","C1","J","8"
"","","approach-retreat","12","223446","0.0-12.0","","","2-4","5022","38","1","Training","Stims/Figures/85-J-0-2.bmp","fasha:va","Down","38","1","9","8","C1","J","9"
"","","approach-retreat","13","231356","0.0-13.0","","","2-4","6364","40","0","Training","Stims/Figures/144-J-10-3.bmp","sa:saza","Down","38","1","10","8","C2","J","10"
"","","approach-retreat","14","238555","0.0-14.0","","","2-4","5641","37","1","Training","Stims/Figures/144-C-30-3.bmp","zasaza","Left","37","1","11","8","C2","J","11"
"","","approach-retreat","15","244748","0.0-15.0","","","2-4","4648","37","1","Training","Stims/Figures/71-J-0-1.bmp","fa:fa:sha","Right","37","1","12","8","C1","J","12"
"","","approach-retreat","16","252624","0.0-16.0","","","2-4","6333","39","1","Training","Stims/Figures/19-J-10-4.bmp","za:ha:za","Left","39","1","13","8","C2","J","13"
"","","approach-retreat","17","259392","0.0-17.0","","","2-4","5217","37","0","Training","Stims/Figures/27-C-30-1.bmp","fa:sha:va","Right","39","1","14","8","C1","J","14"
"","","approach-retreat","18","273056","0.0-18.0","","","2-4","12120","40","0","Training","Stims/Figures/74-C-20-4.bmp","za:ha:ha","Up","38","1","15","8","C2","J","15"
"","","approach-retreat","19","279570","0.0-19.0","","","2-4","4968","39","1","Training","Stims/Figures/85-C-20-2.bmp","fafava","Right","39","1","16","8","C1","J","16"
"","","approach-retreat","20","285715","0.0-20.0","","","2-4","4604","39","0","Training","Stims/Figures/111-J-10-3.bmp","za:saha","Right","37","2","1","8","C2","J","17"
"","","approach-retreat","21","291675","0.0-21.0","","","2-4","4412","39","1","Training","Stims/Figures/71-J-0-1.bmp","fa:fa:sha","Left","39","2","2","8","C1","J","18"
"","","approach-retreat","22","297764","0.0-22.0","","","2-4","4540","38","1","Training","Stims/Figures/94-J-0-2.bmp","fafa:sha","Down","38","2","3","8","C1","J","19"
"","","approach-retreat","23","305699","0.0-23.0","","","2-4","6388","37","0","Training","Stims/Figures/19-C-20-4.bmp","zasa:za","Right","39","2","4","8","C2","J","20"
"","","approach-retreat","24","312638","0.0-24.0","","","2-4","5392","38","0","Training","Stims/Figures/19-J-10-4.bmp","za:ha:za","Up","40","2","5","8","C2","J","21"
"","","approach-retreat","25","319931","0.0-25.0","","","2-4","5745","40","1","Training","Stims/Figures/144-J-10-3.bmp","sa:saza","Up","40","2","6","8","C2","J","22"
"","","approach-retreat","26","326892","0.0-26.0","","","2-4","5417","40","1","Training","Stims/Figures/94-C-20-2.bmp","va:fa:va","Down","40","2","7","8","C1","J","23"
"","","approach-retreat","27","333276","0.0-27.0","","","2-4","4843","38","1","Training","Stims/Figures/74-J-10-4.bmp","zasaha","Down","38","2","8","8","C2","J","24"
"","","approach-retreat","28","339871","0.0-28.0","","","2-4","5051","40","1","Training","Stims/Figures/27-J-0-1.bmp","vafa:sha","Up","40","2","9","8","C1","J","25"
"","","approach-retreat","29","346293","0.0-29.0","","","2-4","4873","37","0","Training","Stims/Figures/71-C-30-1.bmp","fa:fa:va","Right","39","2","10","8","C1","J","26"
"","","approach-retreat","30","353776","0.0-30.0","","","2-4","5936","39","1","Training","Stims/Figures/85-J-0-2.bmp","fasha:va","Left","39","2","11","8","C1","J","27"
"","","approach-retreat","31","364755","0.0-31.0","","","2-4","9435","39","0","Training","Stims/Figures/85-C-20-2.bmp","fafava","Left","37","2","12","8","C1","J","28"
"","","approach-retreat","32","377304","0.0-32.0","","","2-4","11003","37","0","Training","Stims/Figures/74-C-20-4.bmp","za:ha:ha","Right","39","2","13","8","C2","J","29"
"","","approach-retreat","33","384300","0.0-33.0","","","2-4","5451","37","1","Training","Stims/Figures/144-C-30-3.bmp","zasaza","Left","37","2","14","8","C2","J","30"
"","","approach-retreat","34","391730","0.0-34.0","","","2-4","5887","38","0","Training","Stims/Figures/111-C-30-3.bmp","sa:sa:ha","Down","40","2","15","8","C2","J","31"
"","","approach-retreat","35","397774","0.0-35.0","","","2-4","4502","40","0","Training","Stims/Figures/27-C-30-1.bmp","fa:sha:va","Up","38","2","16","8","C1","J","32"
"","","approach-retreat","36","403978","0.0-36.0","","","2-4","4660","40","1","Training","Stims/Figures/27-J-0-1.bmp","vafa:sha","Up","40","3","1","8","C1","J","33"
"","","approach-retreat","37","413538","0.0-37.0","","","2-4","8016","38","0","Training","Stims/Figures/144-J-10-3.bmp","sa:saza","Up","40","3","2","8","C2","J","34"
"","","approach-retreat","38","421060","0.0-38.0","","","2-4","5974","39","1","Training","Stims/Figures/71-J-0-1.bmp","fa:fa:sha","Left","39","3","3","8","C1","J","35"
"","","approach-retreat","39","428594","0.0-39.0","","","2-4","5980","40","1","Training","Stims/Figures/144-C-30-3.bmp","zasaza","Down","40","3","4","8","C2","J","36"
"","","approach-retreat","40","434471","0.0-40.0","","","2-4","4330","39","1","Training","Stims/Figures/74-J-10-4.bmp","zasaha","Left","39","3","5","8","C2","J","37"
"","","approach-retreat","41","440768","0.0-41.0","","","2-4","4738","38","0","Training","Stims/Figures/85-C-20-2.bmp","fafava","Down","40","3","6","8","C1","J","38"
"","","approach-retreat","42","448690","0.0-42.0","","","2-4","6375","37","1","Training","Stims/Figures/74-C-20-4.bmp","za:ha:ha","Left","37","3","7","8","C2","J","39"
"","","approach-retreat","43","458365","0.0-43.0","","","2-4","8130","37","1","Training","Stims/Figures/111-J-10-3.bmp","za:saha","Right","37","3","8","8","C2","J","40"
"","","approach-retreat","44","464593","0.0-44.0","","","2-4","4680","40","1","Training","Stims/Figures/85-J-0-2.bmp","fasha:va","Up","40","3","9","8","C1","J","41"
"","","approach-retreat","45","473311","0.0-45.0","","","2-4","7161","37","0","Training","Stims/Figures/27-C-30-1.bmp","fa:sha:va","Right","39","3","10","8","C1","J","42"
"","","approach-retreat","46","480009","0.0-46.0","","","2-4","5155","40","1","Training","Stims/Figures/19-C-20-4.bmp","zasa:za","Down","40","3","11","8","C2","J","43"
"","","approach-retreat","47","486282","0.0-47.0","","","2-4","4723","39","0","Training","Stims/Figures/94-C-20-2.bmp","va:fa:va","Left","37","3","12","8","C1","J","44"
"","","approach-retreat","48","492352","0.0-48.0","","","2-4","4526","40","1","Training","Stims/Figures/111-C-30-3.bmp","sa:sa:ha","Down","40","3","13","8","C2","J","45"
"","","approach-retreat","49","498597","0.0-49.0","","","2-4","4701","39","0","Training","Stims/Figures/19-J-10-4.bmp","za:ha:za","Right","37","3","14","8","C2","J","46"
"","","approach-retreat","50","504963","0.0-50.0","","","2-4","4799","40","1","Training","Stims/Figures/94-J-0-2.bmp","fafa:sha","Up","40","3","15","8","C1","J","47"
"","","approach-retreat","51","513346","0.0-51.0","","","2-4","6843","37","0","Training","Stims/Figures/71-C-30-1.bmp","fa:fa:va","Right","39","3","16","8","C1","J","48"
"","","approach-retreat","52","521802","0.0-52.0","","","2-4","6909","38","1","Training","Stims/Figures/74-J-10-4.bmp","zasaha","Down","38","4","1","8","C2","J","49"
"","","approach-retreat","53","530159","0.0-53.0","","","2-4","6815","38","1","Training","Stims/Figures/85-C-20-2.bmp","fafava","Up","38","4","2","8","C1","J","50"
"","","approach-retreat","54","538750","0.0-54.0","","","2-4","7044","37","1","Training","Stims/Figures/27-C-30-1.bmp","fa:sha:va","Left","37","4","3","8","C1","J","51"
"","","approach-retreat","55","545271","0.0-55.0","","","2-4","4977","39","1","Training","Stims/Figures/144-C-30-3.bmp","zasaza","Right","39","4","4","8","C2","J","52"
"","","approach-retreat","56","552615","0.0-56.0","","","2-4","5794","37","1","Training","Stims/Figures/94-C-20-2.bmp","va:fa:va","Left","37","4","5","8","C1","J","53"
"","","approach-retreat","57","560286","0.0-57.0","","","2-4","6127","40","0","Training","Stims/Figures/74-C-20-4.bmp","za:ha:ha","Up","38","4","6","8","C2","J","54"
"","","approach-retreat","58","566575","0.0-58.0","","","2-4","4740","37","0","Training","Stims/Figures/111-J-10-3.bmp","za:saha","Left","39","4","7","8","C2","J","55"
"","","approach-retreat","59","572920","0.0-59.0","","","2-4","4800","39","1","Training","Stims/Figures/19-C-20-4.bmp","zasa:za","Right","39","4","8","8","C2","J","56"
"","","approach-retreat","60","580005","0.0-60.0","","","2-4","5539","38","1","Training","Stims/Figures/71-J-0-1.bmp","fa:fa:sha","Down","38","4","9","8","C1","J","57"
"","","approach-retreat","61","586412","0.0-61.0","","","2-4","4858","38","0","Training","Stims/Figures/19-J-10-4.bmp","za:ha:za","Up","40","4","10","8","C2","J","58"
"","","approach-retreat","62","593134","0.0-62.0","","","2-4","5162","37","1","Training","Stims/Figures/94-J-0-2.bmp","fafa:sha","Right","37","4","11","8","C1","J","59"
"","","approach-retreat","63","600074","0.0-63.0","","","2-4","5395","39","0","Training","Stims/Figures/144-J-10-3.bmp","sa:saza","Right","37","4","12","8","C2","J","60"
"","","approach-retreat","64","607629","0.0-64.0","","","2-4","6012","40","1","Training","Stims/Figures/111-C-30-3.bmp","sa:sa:ha","Down","40","4","13","8","C2","J","61"
"","","approach-retreat","65","614246","0.0-65.0","","","2-4","5061","40","1","Training","Stims/Figures/71-C-30-1.bmp","fa:fa:va","Down","40","4","14","8","C1","J","62"
"","","approach-retreat","66","625431","0.0-66.0","","","2-4","9641","40","1","Training","Stims/Figures/27-J-0-1.bmp","vafa:sha","Up","40","4","15","8","C1","J","63"
"","","approach-retreat","67","631767","0.0-67.0","","","2-4","4787","37","0","Training","Stims/Figures/85-J-0-2.bmp","fasha:va","Left","39","4","16","8","C1","J","64"
"","","approach-retreat","68","638139","0.0-68.0","","","2-4","4824","40","1","Training","Stims/Figures/94-J-0-2.bmp","fafa:sha","Up","40","5","1","8","C1","J","65"
"","","approach-retreat","69","645297","0.0-69.0","","","2-4","5616","39","0","Training","Stims/Figures/74-J-10-4.bmp","zasaha","Right","37","5","2","8","C2","J","66"
"","","approach-retreat","70","654082","0.0-70.0","","","2-4","7213","38","0","Training","Stims/Figures/111-J-10-3.bmp","za:saha","Up","40","5","3","8","C2","J","67"
"","","approach-retreat","71","660580","0.0-71.0","","","2-4","4958","39","1","Training","Stims/Figures/144-C-30-3.bmp","zasaza","Right","39","5","4","8","C2","J","68"
"","","approach-retreat","72","667001","0.0-72.0","","","2-4","4883","37","0","Training","Stims/Figures/85-C-20-2.bmp","fafava","Right","39","5","5","8","C1","J","69"
"","","approach-retreat","73","674376","0.0-73.0","","","2-4","5820","39","1","Training","Stims/Figures/85-J-0-2.bmp","fasha:va","Left","39","5","6","8","C1","J","70"
"","","approach-retreat","74","681415","0.0-74.0","","","2-4","5484","37","0","Training","Stims/Figures/111-C-30-3.bmp","sa:sa:ha","Right","39","5","7","8","C2","J","71"
"","","approach-retreat","75","689127","0.0-75.0","","","2-4","6167","39","1","Training","Stims/Figures/27-J-0-1.bmp","vafa:sha","Left","39","5","8","8","C1","J","72"
"","","approach-retreat","76","695339","0.0-76.0","","","2-4","4653","38","0","Training","Stims/Figures/94-C-20-2.bmp","va:fa:va","Down","40","5","9","8","C1","J","73"
"","","approach-retreat","77","703397","0.0-77.0","","","2-4","6511","38","0","Training","Stims/Figures/74-C-20-4.bmp","za:ha:ha","Down","40","5","10","8","C2","J","74"
"","","approach-retreat","78","717671","0.0-78.0","","","2-4","12731","40","1","Training","Stims/Figures/19-J-10-4.bmp","za:ha:za","Up","40","5","11","8","C2","J","75"
"","","approach-retreat","79","724108","0.0-79.0","","","2-4","4890","40","0","Training","Stims/Figures/19-C-20-4.bmp","zasa:za","Up","38","5","12","8","C2","J","76"
"","","approach-retreat","80","730309","0.0-80.0","","","2-4","4635","38","0","Training","Stims/Figures/27-C-30-1.bmp","fa:sha:va","Down","40","5","13","8","C1","J","77"
"","","approach-retreat","81","736682","0.0-81.0","","","2-4","4829","39","0","Training","Stims/Figures/71-C-30-1.bmp","fa:fa:va","Left","37","5","14","8","C1","J","78"
"","","approach-retreat","82","746359","0.0-82.0","","","2-4","8115","38","1","Training","Stims/Figures/144-J-10-3.bmp","sa:saza","Down","38","5","15","8","C2","J","79"
"","","approach-retreat","83","752294","0.0-83.0","","","2-4","4383","39","1","Training","Stims/Figures/71-J-0-1.bmp","fa:fa:sha","Left","39","5","16","8","C1","J","80"
"","","approach-retreat","84","758397","0.0-84.0","","","2-4","4543","38","1","Training","Stims/Figures/94-J-0-2.bmp","fafa:sha","Down","38","6","1","8","C1","J","81"
"","","approach-retreat","85","768768","0.0-85.0","","","2-4","8817","39","0","Training","Stims/Figures/19-C-20-4.bmp","zasa:za","Left","37","6","2","8","C2","J","82"
"","","approach-retreat","86","775641","0.0-86.0","","","2-4","5321","37","1","Training","Stims/Figures/74-J-10-4.bmp","zasaha","Right","37","6","3","8","C2","J","83"
"","","approach-retreat","87","783229","0.0-87.0","","","2-4","6038","40","0","Training","Stims/Figures/71-C-30-1.bmp","fa:fa:va","Up","38","6","4","8","C1","J","84"
"","","approach-retreat","88","791491","0.0-88.0","","","2-4","6706","39","0","Training","Stims/Figures/74-C-20-4.bmp","za:ha:ha","Left","37","6","5","8","C2","J","85"
"","","approach-retreat","89","798500","0.0-89.0","","","2-4","5463","37","0","Training","Stims/Figures/144-C-30-3.bmp","zasaza","Right","39","6","6","8","C2","J","86"
"","","approach-retreat","90","804759","0.0-90.0","","","2-4","4686","37","0","Training","Stims/Figures/85-C-20-2.bmp","fafava","Right","39","6","7","8","C1","J","87"
"","","approach-retreat","91","814472","0.0-91.0","","","2-4","8152","39","0","Training","Stims/Figures/27-C-30-1.bmp","fa:sha:va","Left","37","6","8","8","C1","J","88"
"","","approach-retreat","92","821715","0.0-92.0","","","2-4","5699","40","1","Training","Stims/Figures/19-J-10-4.bmp","za:ha:za","Up","40","6","9","8","C2","J","89"
"","","approach-retreat","93","829768","0.0-93.0","","","2-4","6487","38","1","Training","Stims/Figures/111-C-30-3.bmp","sa:sa:ha","Up","38","6","10","8","C2","J","90"
"","","approach-retreat","94","836812","0.0-94.0","","","2-4","5498","39","0","Training","Stims/Figures/111-J-10-3.bmp","za:saha","Right","37","6","11","8","C2","J","91"
"","","approach-retreat","95","843513","0.0-95.0","","","2-4","5154","38","1","Training","Stims/Figures/71-J-0-1.bmp","fa:fa:sha","Down","38","6","12","8","C1","J","92"
"","","approach-retreat","96","850199","0.0-96.0","","","2-4","5145","39","0","Training","Stims/Figures/94-C-20-2.bmp","va:fa:va","Left","37","6","13","8","C1","J","93"
"","","approach-retreat","97","856978","0.0-97.0","","","2-4","5239","40","0","Training","Stims/Figures/27-J-0-1.bmp","vafa:sha","Down","38","6","14","8","C1","J","94"
"","","approach-retreat","98","862938","0.0-98.0","","","2-4","4420","38","1","Training","Stims/Figures/85-J-0-2.bmp","fasha:va","Down","38","6","15","8","C1","J","95"
"","","approach-retreat","99","869009","0.0-99.0","","","2-4","4530","40","1","Training","Stims/Figures/144-J-10-3.bmp","sa:saza","Up","40","6","16","8","C2","J","96"
"","","approach-retreat","100","874995","0.0-100.0","","","2-4","4446","38","1","Training","Stims/Figures/94-J-0-2.bmp","fafa:sha","Down","38","7","1","8","C1","J","97"
"","","approach-retreat","101","883513","0.0-101.0","","","2-4","6975","40","0","Training","Stims/Figures/74-C-20-4.bmp","za:ha:ha","Up","38","7","2","8","C2","J","98"
"","","approach-retreat","102","890148","0.0-102.0","","","2-4","5087","40","0","Training","Stims/Figures/144-J-10-3.bmp","sa:saza","Down","38","7","3","8","C2","J","99"
"","","approach-retreat","103","896962","0.0-103.0","","","2-4","5269","38","0","Training","Stims/Figures/85-C-20-2.bmp","fafava","Down","40","7","4","8","C1","J","100"
"","","approach-retreat","104","903522","0.0-104.0","","","2-4","5014","39","1","Training","Stims/Figures/111-J-10-3.bmp","za:saha","Left","39","7","5","8","C2","J","101"
"","","approach-retreat","105","909488","0.0-105.0","","","2-4","4409","37","1","Training","Stims/Figures/71-J-0-1.bmp","fa:fa:sha","Right","37","7","6","8","C1","J","102"
"","","approach-retreat","106","919146","0.0-106.0","","","2-4","8115","37","0","Training","Stims/Figures/27-C-30-1.bmp","fa:sha:va","Right","39","7","7","8","C1","J","103"
"","","approach-retreat","107","927019","0.0-107.0","","","2-4","6331","37","1","Training","Stims/Figures/144-C-30-3.bmp","zasaza","Left","37","7","8","8","C2","J","104"
"","","approach-retreat","108","933902","0.0-108.0","","","2-4","5332","38","1","Training","Stims/Figures/85-J-0-2.bmp","fasha:va","Down","38","7","9","8","C1","J","105"
"","","approach-retreat","109","941885","0.0-109.0","","","2-4","6436","38","0","Training","Stims/Figures/74-J-10-4.bmp","zasaha","Up","40","7","10","8","C2","J","106"
"","","approach-retreat","110","951355","0.0-110.0","","","2-4","7913","39","1","Training","Stims/Figures/27-J-0-1.bmp","vafa:sha","Left","39","7","11","8","C1","J","107"
"","","approach-retreat","111","958722","0.0-111.0","","","2-4","5825","37","0","Training","Stims/Figures/19-C-20-4.bmp","zasa:za","Right","39","7","12","8","C2","J","108"
"","","approach-retreat","112","964951","0.0-112.0","","","2-4","4687","40","0","Training","Stims/Figures/111-C-30-3.bmp","sa:sa:ha","Up","38","7","13","8","C2","J","109"
"","","approach-retreat","113","974020","0.0-113.0","","","2-4","7524","37","1","Training","Stims/Figures/19-J-10-4.bmp","za:ha:za","Right","37","7","14","8","C2","J","110"
"","","approach-retreat","114","981146","0.0-114.0","","","2-4","5582","40","0","Training","Stims/Figures/71-C-30-1.bmp","fa:fa:va","Up","38","7","15","8","C1","J","111"
"","","approach-retreat","115","988547","0.0-115.0","","","2-4","5850","39","0","Training","Stims/Figures/94-C-20-2.bmp","va:fa:va","Left","37","7","16","8","C1","J","112"
"","","approach-retreat","116","999347","0.0-116.0","","","2-4","9256","40","1","Training","Stims/Figures/27-J-0-1.bmp","vafa:sha","Up","40","8","1","8","C1","J","113"
"","","approach-retreat","117","1005376","0.0-117.0","","","2-4","4481","37","0","Training","Stims/Figures/111-C-30-3.bmp","sa:sa:ha","Right","39","8","2","8","C2","J","114"
"","","approach-retreat","118","1011462","0.0-118.0","","","2-4","4514","39","1","Training","Stims/Figures/19-J-10-4.bmp","za:ha:za","Left","39","8","3","8","C2","J","115"
"","","approach-retreat","119","1019539","0.0-119.0","","","2-4","6516","38","0","Training","Stims/Figures/27-C-30-1.bmp","fa:sha:va","Down","40","8","4","8","C1","J","116"
"","","approach-retreat","120","1025645","0.0-120.0","","","2-4","4563","40","0","Training","Stims/Figures/71-C-30-1.bmp","fa:fa:va","Up","38","8","5","8","C1","J","117"
"","","approach-retreat","121","1033472","0.0-121.0","","","2-4","6278","39","0","Training","Stims/Figures/144-J-10-3.bmp","sa:saza","Right","37","8","6","8","C2","J","118"
"","","approach-retreat","122","1039570","0.0-122.0","","","2-4","4553","37","1","Training","Stims/Figures/19-C-20-4.bmp","zasa:za","Left","37","8","7","8","C2","J","119"
"","","approach-retreat","123","1046564","0.0-123.0","","","2-4","5447","40","0","Training","Stims/Figures/74-C-20-4.bmp","za:ha:ha","Up","38","8","8","8","C2","J","120"
"","","approach-retreat","124","1052832","0.0-124.0","","","2-4","4726","38","1","Training","Stims/Figures/74-J-10-4.bmp","zasaha","Down","38","8","9","8","C2","J","121"
"","","approach-retreat","125","1058844","0.0-125.0","","","2-4","4467","39","0","Training","Stims/Figures/85-C-20-2.bmp","fafava","Left","37","8","10","8","C1","J","122"
"","","approach-retreat","126","1065132","0.0-126.0","","","2-4","4742","40","0","Training","Stims/Figures/144-C-30-3.bmp","zasaza","Up","38","8","11","8","C2","J","123"
"","","approach-retreat","127","1072577","0.0-127.0","","","2-4","5878","38","0","Training","Stims/Figures/94-C-20-2.bmp","va:fa:va","Down","40","8","12","8","C1","J","124"
"","","approach-retreat","128","1086587","0.0-128.0","","","2-4","12471","37","1","Training","Stims/Figures/85-J-0-2.bmp","fasha:va","Right","37","8","13","8","C1","J","125"
"","","approach-retreat","129","1093094","0.0-129.0","","","2-4","4961","38","1","Training","Stims/Figures/111-J-10-3.bmp","za:saha","Down","38","8","14","8","C2","J","126"
"","","approach-retreat","130","1104727","0.0-130.0","","","2-4","10083","37","1","Training","Stims/Figures/71-J-0-1.bmp","fa:fa:sha","Right","37","8","15","8","C1","J","127"
"","","approach-retreat","131","1111432","0.0-131.0","","","2-4","5154","39","1","Training","Stims/Figures/94-J-0-2.bmp","fafa:sha","Left","39","8","16","8","C1","J","128"
"","","approach-retreat","132","1122842","0.0-132.0","","","2-4","9867","40","0","Training","Stims/Figures/27-C-30-1.bmp","fa:sha:va","Up","38","9","1","8","C1","J","129"
"","","approach-retreat","133","1128910","0.0-133.0","","","2-4","4526","38","1","Training","Stims/Figures/85-J-0-2.bmp","fasha:va","Down","38","9","2","8","C1","J","130"
"","","approach-retreat","134","1137425","0.0-134.0","","","2-4","6968","39","0","Training","Stims/Figures/74-J-10-4.bmp","zasaha","Right","37","9","3","8","C2","J","131"
"","","approach-retreat","135","1145094","0.0-135.0","","","2-4","6125","39","1","Training","Stims/Figures/71-J-0-1.bmp","fa:fa:sha","Left","39","9","4","8","C1","J","132"
"","","approach-retreat","136","1156006","0.0-136.0","","","2-4","9368","40","0","Training","Stims/Figures/111-J-10-3.bmp","za:saha","Down","38","9","5","8","C2","J","133"
"","","approach-retreat","137","1163681","0.0-137.0","","","2-4","6122","40","0","Training","Stims/Figures/85-C-20-2.bmp","fafava","Up","38","9","6","8","C1","J","134"
"","","approach-retreat","138","1182398","0.0-138.0","","","2-4","17174","37","0","Training","Stims/Figures/94-C-20-2.bmp","va:fa:va","Right","39","9","7","8","C1","J","135"
"","","approach-retreat","139","1188271","0.0-139.0","","","2-4","4331","37","1","Training","Stims/Figures/94-J-0-2.bmp","fafa:sha","Right","37","9","8","8","C1","J","136"
"","","approach-retreat","140","1195906","0.0-140.0","","","2-4","6092","39","0","Training","Stims/Figures/144-C-30-3.bmp","zasaza","Left","37","9","9","8","C2","J","137"
"","","approach-retreat","141","1202114","0.0-141.0","","","2-4","4664","37","0","Training","Stims/Figures/111-C-30-3.bmp","sa:sa:ha","Right","39","9","10","8","C2","J","138"
"","","approach-retreat","142","1208381","0.0-142.0","","","2-4","4726","38","0","Training","Stims/Figures/19-C-20-4.bmp","zasa:za","Down","40","9","11","8","C2","J","139"
"","","approach-retreat","143","1217270","0.0-143.0","","","2-4","7320","38","0","Training","Stims/Figures/71-C-30-1.bmp","fa:fa:va","Down","40","9","12","8","C1","J","140"
"","","approach-retreat","144","1225765","0.0-144.0","","","2-4","6946","37","0","Training","Stims/Figures/144-J-10-3.bmp","sa:saza","Left","39","9","13","8","C2","J","141"
"","","approach-retreat","145","1233626","0.0-145.0","","","2-4","6314","40","0","Training","Stims/Figures/74-C-20-4.bmp","za:ha:ha","Up","38","9","14","8","C2","J","142"
"","","approach-retreat","146","1243849","0.0-146.0","","","2-4","8681","40","1","Training","Stims/Figures/27-J-0-1.bmp","vafa:sha","Up","40","9","15","8","C1","J","143"
"","","approach-retreat","147","1250580","0.0-147.0","","","2-4","5185","37","0","Training","Stims/Figures/19-J-10-4.bmp","za:ha:za","Left","39","9","16","8","C2","J","144"
"29949","","instructions","148","1280532","0.0-148.0","[{""page_index"":0,""viewing_time"":29946}]","","","","","","","","","","","","","","","",""
"","","approach-retreat","149","1287967","0.0-149.0","","","2-4","5903","39","0","Testing","Stims/Figures/85-J-0-2.bmp","fasha:va","Right","37","1","1","8","C1","J","1"
"","","approach-retreat","150","1294859","0.0-150.0","","","2-4","5356","40","1","Testing","Stims/Figures/128-C-30-3.bmp","sahaza","Down","40","1","2","8","C2","J","2"
"","","approach-retreat","151","1301867","0.0-151.0","","","2-4","5471","37","0","Testing","Stims/Figures/85-C-20-2.bmp","fafava","Right","39","1","3","8","C1","J","3"
"","","approach-retreat","152","1308234","0.0-152.0","","","2-4","4833","38","0","Testing","Stims/Figures/84-J-0-2.bmp","va:shava","Up","40","1","4","8","C1","J","4"
"","","approach-retreat","153","1314759","0.0-153.0","","","2-4","4988","37","0","Testing","Stims/Figures/94-C-20-2.bmp","va:fa:va","Right","39","1","5","8","C1","J","5"
"","","approach-retreat","154","1321686","0.0-154.0","","","2-4","5392","38","1","Testing","Stims/Figures/94-J-0-2.bmp","fafa:sha","Down","38","1","6","8","C1","J","6"
"","","approach-retreat","155","1327538","0.0-155.0","","","2-4","4321","40","0","Testing","Stims/Figures/74-J-10-4.bmp","zasaha","Down","38","1","7","8","C2","J","7"
"","","approach-retreat","156","1335831","0.0-156.0","","","2-4","6764","39","1","Testing","Stims/Figures/111-J-10-3.bmp","za:saha","Left","39","1","8","8","C2","J","8"
"","","approach-retreat","157","1342279","0.0-157.0","","","2-4","4915","37","0","Testing","Stims/Figures/71-J-0-1.bmp","fa:fa:sha","Left","39","1","9","8","C1","J","9"
"","","approach-retreat","158","1348259","0.0-158.0","","","2-4","4440","40","1","Testing","Stims/Figures/144-C-30-3.bmp","zasaza","Down","40","1","10","8","C2","J","10"
"","","approach-retreat","159","1354503","0.0-159.0","","","2-4","4711","39","0","Testing","Stims/Figures/57-C-30-1.bmp","fasha:sha","Left","37","1","11","8","C1","J","11"
"","","approach-retreat","160","1361172","0.0-160.0","","","2-4","5134","39","0","Testing","Stims/Figures/111-C-30-3.bmp","sa:sa:ha","Left","37","1","12","8","C2","J","12"
"","","approach-retreat","161","1367238","0.0-161.0","","","2-4","4535","39","0","Testing","Stims/Figures/27-J-0-1.bmp","vafa:sha","Right","37","1","13","8","C1","J","13"
"","","approach-retreat","162","1373585","0.0-162.0","","","2-4","4811","39","0","Testing","Stims/Figures/128-J-10-3.bmp","sa:sa:za","Right","37","1","14","8","C2","J","14"
"","","approach-retreat","163","1379878","0.0-163.0","","","2-4","4761","38","1","Testing","Stims/Figures/7-C-20-4.bmp","sa:haza","Up","38","1","15","8","C2","J","15"
"","","approach-retreat","164","1386486","0.0-164.0","","","2-4","5073","39","0","Testing","Stims/Figures/84-C-20-2.bmp","fa:fasha","Left","37","1","16","8","C1","J","16"
"","","approach-retreat","165","1393278","0.0-165.0","","","2-4","5247","40","0","Testing","Stims/Figures/74-C-20-4.bmp","za:ha:ha","Up","38","1","17","8","C2","J","17"
"","","approach-retreat","166","1399918","0.0-166.0","","","2-4","5103","38","0","Testing","Stims/Figures/144-J-10-3.bmp","sa:saza","Up","40","1","18","8","C2","J","18"
"","","approach-retreat","167","1410405","0.0-167.0","","","2-4","8926","38","0","Testing","Stims/Figures/57-J-0-1.bmp","vasha:sha","Up","40","1","19","8","C1","J","19"
"","","approach-retreat","168","1416866","0.0-168.0","","","2-4","4925","39","0","Testing","Stims/Figures/71-C-30-1.bmp","fa:fa:va","Left","37","1","20","8","C1","J","20"
"","","approach-retreat","169","1423965","0.0-169.0","","","2-4","5564","37","1","Testing","Stims/Figures/19-J-10-4.bmp","za:ha:za","Right","37","1","21","8","C2","J","21"
"","","approach-retreat","170","1431496","0.0-170.0","","","2-4","5989","40","0","Testing","Stims/Figures/7-J-10-4.bmp","sasa:ha","Down","38","1","22","8","C2","J","22"
"","","approach-retreat","171","1439945","0.0-171.0","","","2-4","6905","38","0","Testing","Stims/Figures/19-C-20-4.bmp","zasa:za","Down","40","1","23","8","C2","J","23"
"","","approach-retreat","172","1448441","0.0-172.0","","","2-4","6956","40","0","Testing","Stims/Figures/27-C-30-1.bmp","fa:sha:va","Up","38","1","24","8","C1","J","24"
"","","approach-retreat","173","1456005","0.0-173.0","","","2-4","6032","39","1","Testing","Stims/Figures/27-J-0-1.bmp","vafa:sha","Left","39","2","1","8","C1","J","25"
"","","approach-retreat","174","1462729","0.0-174.0","","","2-4","5191","38","0","Testing","Stims/Figures/19-C-20-4.bmp","zasa:za","Down","40","2","2","8","C2","J","26"
"","","approach-retreat","175","1468741","0.0-175.0","","","2-4","4484","37","0","Testing","Stims/Figures/57-C-30-1.bmp","fasha:sha","Right","39","2","3","8","C1","J","27"
"","","approach-retreat","176","1475316","0.0-176.0","","","2-4","5038","39","1","Testing","Stims/Figures/84-J-0-2.bmp","va:shava","Left","39","2","4","8","C1","J","28"
"","","approach-retreat","177","1481195","0.0-177.0","","","2-4","4345","40","0","Testing","Stims/Figures/94-J-0-2.bmp","fafa:sha","Down","38","2","5","8","C1","J","29"
"","","approach-retreat","178","1487663","0.0-178.0","","","2-4","4933","38","1","Testing","Stims/Figures/71-C-30-1.bmp","fa:fa:va","Up","38","2","6","8","C1","J","30"
"","","approach-retreat","179","1494043","0.0-179.0","","","2-4","4848","38","1","Testing","Stims/Figures/84-C-20-2.bmp","fa:fasha","Up","38","2","7","8","C1","J","31"
"","","approach-retreat","180","1500736","0.0-180.0","","","2-4","5157","40","0","Testing","Stims/Figures/128-J-10-3.bmp","sa:sa:za","Down","38","2","8","8","C2","J","32"
"","","approach-retreat","181","1507181","0.0-181.0","","","2-4","4909","39","1","Testing","Stims/Figures/71-J-0-1.bmp","fa:fa:sha","Left","39","2","9","8","C1","J","33"
"","","approach-retreat","182","1514296","0.0-182.0","","","2-4","5584","39","1","Testing","Stims/Figures/85-C-20-2.bmp","fafava","Right","39","2","10","8","C1","J","34"
"","","approach-retreat","183","1521071","0.0-183.0","","","2-4","5243","40","0","Testing","Stims/Figures/144-C-30-3.bmp","zasaza","Up","38","2","11","8","C2","J","35"
"","","approach-retreat","184","1527255","0.0-184.0","","","2-4","4651","38","0","Testing","Stims/Figures/27-C-30-1.bmp","fa:sha:va","Down","40","2","12","8","C1","J","36"
"","","approach-retreat","185","1533263","0.0-185.0","","","2-4","4475","39","1","Testing","Stims/Figures/19-J-10-4.bmp","za:ha:za","Left","39","2","13","8","C2","J","37"
"","","approach-retreat","186","1539259","0.0-186.0","","","2-4","4464","40","1","Testing","Stims/Figures/111-J-10-3.bmp","za:saha","Up","40","2","14","8","C2","J","38"
"","","approach-retreat","187","1545301","0.0-187.0","","","2-4","4507","38","0","Testing","Stims/Figures/7-J-10-4.bmp","sasa:ha","Up","40","2","15","8","C2","J","39"
"","","approach-retreat","188","1553447","0.0-188.0","","","2-4","6615","37","1","Testing","Stims/Figures/85-J-0-2.bmp","fasha:va","Right","37","2","16","8","C1","J","40"
"","","approach-retreat","189","1559653","0.0-189.0","","","2-4","4673","39","0","Testing","Stims/Figures/144-J-10-3.bmp","sa:saza","Right","37","2","17","8","C2","J","41"
"","","approach-retreat","190","1566661","0.0-190.0","","","2-4","5474","38","0","Testing","Stims/Figures/57-J-0-1.bmp","vasha:sha","Up","40","2","18","8","C1","J","42"
"","","approach-retreat","191","1573805","0.0-191.0","","","2-4","5591","40","1","Testing","Stims/Figures/128-C-30-3.bmp","sahaza","Down","40","2","19","8","C2","J","43"
"","","approach-retreat","192","1584201","0.0-192.0","","","2-4","8863","38","0","Testing","Stims/Figures/7-C-20-4.bmp","sa:haza","Down","40","2","20","8","C2","J","44"
"","","approach-retreat","193","1591068","0.0-193.0","","","2-4","5337","37","0","Testing","Stims/Figures/94-C-20-2.bmp","va:fa:va","Right","39","2","21","8","C1","J","45"
"","","approach-retreat","194","1597283","0.0-194.0","","","2-4","4684","39","0","Testing","Stims/Figures/74-C-20-4.bmp","za:ha:ha","Left","37","2","22","8","C2","J","46"
"","","approach-retreat","195","1603156","0.0-195.0","","","2-4","4339","37","0","Testing","Stims/Figures/111-C-30-3.bmp","sa:sa:ha","Right","39","2","23","8","C2","J","47"
"","","approach-retreat","196","1611039","0.0-196.0","","","2-4","6349","39","1","Testing","Stims/Figures/74-J-10-4.bmp","zasaha","Left","39","2","24","8","C2","J","48"
"","","approach-retreat","197","1618947","0.0-197.0","","","2-4","6373","40","1","Testing","Stims/Figures/57-C-30-1.bmp","fasha:sha","Down","40","3","1","8","C1","J","49"
"","","approach-retreat","198","1626293","0.0-198.0","","","2-4","5814","40","0","Testing","Stims/Figures/7-C-20-4.bmp","sa:haza","Up","38","3","2","8","C2","J","50"
"","","approach-retreat","199","1632918","0.0-199.0","","","2-4","5090","39","1","Testing","Stims/Figures/111-C-30-3.bmp","sa:sa:ha","Right","39","3","3","8","C2","J","51"
"","","approach-retreat","200","1639667","0.0-200.0","","","2-4","5217","40","1","Testing","Stims/Figures/71-C-30-1.bmp","fa:fa:va","Down","40","3","4","8","C1","J","52"
"","","approach-retreat","201","1646664","0.0-201.0","","","2-4","5461","39","0","Testing","Stims/Figures/84-C-20-2.bmp","fa:fasha","Left","37","3","5","8","C1","J","53"
"","","approach-retreat","202","1653241","0.0-202.0","","","2-4","5044","39","1","Testing","Stims/Figures/144-C-30-3.bmp","zasaza","Right","39","3","6","8","C2","J","54"
"","","approach-retreat","203","1659317","0.0-203.0","","","2-4","4544","39","1","Testing","Stims/Figures/111-J-10-3.bmp","za:saha","Left","39","3","7","8","C2","J","55"
"","","approach-retreat","204","1665529","0.0-204.0","","","2-4","4681","40","0","Testing","Stims/Figures/94-C-20-2.bmp","va:fa:va","Up","38","3","8","8","C1","J","56"
"","","approach-retreat","205","1671662","0.0-205.0","","","2-4","4601","40","1","Testing","Stims/Figures/19-J-10-4.bmp","za:ha:za","Up","40","3","9","8","C2","J","57"
"","","approach-retreat","206","1680886","0.0-206.0","","","2-4","7689","38","0","Testing","Stims/Figures/19-C-20-4.bmp","zasa:za","Down","40","3","10","8","C2","J","58"
"","","approach-retreat","207","1687050","0.0-207.0","","","2-4","4629","40","0","Testing","Stims/Figures/74-J-10-4.bmp","zasaha","Down","38","3","11","8","C2","J","59"
"","","approach-retreat","208","1693981","0.0-208.0","","","2-4","5398","39","0","Testing","Stims/Figures/144-J-10-3.bmp","sa:saza","Right","37","3","12","8","C2","J","60"
"","","approach-retreat","209","1705455","0.0-209.0","","","2-4","9941","38","0","Testing","Stims/Figures/85-J-0-2.bmp","fasha:va","Up","40","3","13","8","C1","J","61"
"","","approach-retreat","210","1711871","0.0-210.0","","","2-4","4885","39","0","Testing","Stims/Figures/84-J-0-2.bmp","va:shava","Right","37","3","14","8","C1","J","62"
"","","approach-retreat","211","1718762","0.0-211.0","","","2-4","5358","37","0","Testing","Stims/Figures/71-J-0-1.bmp","fa:fa:sha","Left","39","3","15","8","C1","J","63"
"","","approach-retreat","212","1725564","0.0-212.0","","","2-4","5266","39","1","Testing","Stims/Figures/27-C-30-1.bmp","fa:sha:va","Right","39","3","16","8","C1","J","64"
"","","approach-retreat","213","1732229","0.0-213.0","","","2-4","5132","40","0","Testing","Stims/Figures/57-J-0-1.bmp","vasha:sha","Down","38","3","17","8","C1","J","65"
"","","approach-retreat","214","1738067","0.0-214.0","","","2-4","4302","40","0","Testing","Stims/Figures/94-J-0-2.bmp","fafa:sha","Down","38","3","18","8","C1","J","66"
"","","approach-retreat","215","1744042","0.0-215.0","","","2-4","4441","39","0","Testing","Stims/Figures/85-C-20-2.bmp","fafava","Left","37","3","19","8","C1","J","67"
"","","approach-retreat","216","1749870","0.0-216.0","","","2-4","4293","40","1","Testing","Stims/Figures/7-J-10-4.bmp","sasa:ha","Up","40","3","20","8","C2","J","68"
"","","approach-retreat","217","1756861","0.0-217.0","","","2-4","5460","40","0","Testing","Stims/Figures/128-C-30-3.bmp","sahaza","Up","38","3","21","8","C2","J","69"
"","","approach-retreat","218","1763665","0.0-218.0","","","2-4","5268","39","1","Testing","Stims/Figures/74-C-20-4.bmp","za:ha:ha","Right","39","3","22","8","C2","J","70"
"","","approach-retreat","219","1769834","0.0-219.0","","","2-4","4631","37","0","Testing","Stims/Figures/27-J-0-1.bmp","vafa:sha","Left","39","3","23","8","C1","J","71"
"","","approach-retreat","220","1775771","0.0-220.0","","","2-4","4408","37","0","Testing","Stims/Figures/128-J-10-3.bmp","sa:sa:za","Left","39","3","24","8","C2","J","72"
"","","approach-retreat","221","1783568","0.0-221.0","","","2-4","6268","39","0","Testing","Stims/Figures/84-C-20-2.bmp","fa:fasha","Left","37","4","1","8","C1","J","73"
"","","approach-retreat","222","1790425","0.0-222.0","","","2-4","5325","38","1","Testing","Stims/Figures/111-J-10-3.bmp","za:saha","Down","38","4","2","8","C2","J","74"
"","","approach-retreat","223","1796697","0.0-223.0","","","2-4","4741","37","0","Testing","Stims/Figures/7-C-20-4.bmp","sa:haza","Right","39","4","3","8","C2","J","75"
"","","approach-retreat","224","1802510","0.0-224.0","","","2-4","4280","38","1","Testing","Stims/Figures/19-C-20-4.bmp","zasa:za","Up","38","4","4","8","C2","J","76"
"","","approach-retreat","225","1809660","0.0-225.0","","","2-4","5620","40","0","Testing","Stims/Figures/19-J-10-4.bmp","za:ha:za","Down","38","4","5","8","C2","J","77"
"","","approach-retreat","226","1816278","0.0-226.0","","","2-4","5084","38","1","Testing","Stims/Figures/57-C-30-1.bmp","fasha:sha","Up","38","4","6","8","C1","J","78"
"","","approach-retreat","227","1823661","0.0-227.0","","","2-4","5852","40","0","Testing","Stims/Figures/94-J-0-2.bmp","fafa:sha","Down","38","4","7","8","C1","J","79"
"","","approach-retreat","228","1830172","0.0-228.0","","","2-4","4976","37","0","Testing","Stims/Figures/85-J-0-2.bmp","fasha:va","Left","39","4","8","8","C1","J","80"
"","","approach-retreat","229","1836083","0.0-229.0","","","2-4","4379","40","0","Testing","Stims/Figures/111-C-30-3.bmp","sa:sa:ha","Up","38","4","9","8","C2","J","81"
"","","approach-retreat","230","1842453","0.0-230.0","","","2-4","4834","39","0","Testing","Stims/Figures/128-J-10-3.bmp","sa:sa:za","Right","37","4","10","8","C2","J","82"
"","","approach-retreat","231","1852165","0.0-231.0","","","2-4","8171","39","0","Testing","Stims/Figures/71-C-30-1.bmp","fa:fa:va","Left","37","4","11","8","C1","J","83"
"","","approach-retreat","232","1858729","0.0-232.0","","","2-4","5031","40","1","Testing","Stims/Figures/128-C-30-3.bmp","sahaza","Down","40","4","12","8","C2","J","84"
"","","approach-retreat","233","1865731","0.0-233.0","","","2-4","5461","40","0","Testing","Stims/Figures/144-J-10-3.bmp","sa:saza","Down","38","4","13","8","C2","J","85"
"","","approach-retreat","234","1871927","0.0-234.0","","","2-4","4664","39","0","Testing","Stims/Figures/84-J-0-2.bmp","va:shava","Right","37","4","14","8","C1","J","86"
"","","approach-retreat","235","1878844","0.0-235.0","","","2-4","5381","39","0","Testing","Stims/Figures/144-C-30-3.bmp","zasaza","Left","37","4","15","8","C2","J","87"
"","","approach-retreat","236","1885464","0.0-236.0","","","2-4","5086","39","1","Testing","Stims/Figures/74-C-20-4.bmp","za:ha:ha","Right","39","4","16","8","C2","J","88"
"","","approach-retreat","237","1892948","0.0-237.0","","","2-4","5952","38","0","Testing","Stims/Figures/74-J-10-4.bmp","zasaha","Up","40","4","17","8","C2","J","89"
"","","approach-retreat","238","1899036","0.0-238.0","","","2-4","4555","40","0","Testing","Stims/Figures/27-C-30-1.bmp","fa:sha:va","Up","38","4","18","8","C1","J","90"
"","","approach-retreat","239","1904956","0.0-239.0","","","2-4","4389","37","0","Testing","Stims/Figures/57-J-0-1.bmp","vasha:sha","Left","39","4","19","8","C1","J","91"
"","","approach-retreat","240","1911638","0.0-240.0","","","2-4","5147","39","0","Testing","Stims/Figures/27-J-0-1.bmp","vafa:sha","Right","37","4","20","8","C1","J","92"
"","","approach-retreat","241","1919608","0.0-241.0","","","2-4","6437","37","0","Testing","Stims/Figures/85-C-20-2.bmp","fafava","Right","39","4","21","8","C1","J","93"
"","","approach-retreat","242","1927906","0.0-242.0","","","2-4","6765","38","0","Testing","Stims/Figures/94-C-20-2.bmp","va:fa:va","Down","40","4","22","8","C1","J","94"
"","","approach-retreat","243","1934702","0.0-243.0","","","2-4","5264","37","0","Testing","Stims/Figures/7-J-10-4.bmp","sasa:ha","Left","39","4","23","8","C2","J","95"
"","","approach-retreat","244","1944819","0.0-244.0","","","2-4","8583","38","0","Testing","Stims/Figures/71-J-0-1.bmp","fa:fa:sha","Up","40","4","24","8","C1","J","96"
"27574","","survey-text","245","1972418","0.0-245.0","","{""Q0"":""1043/2018""}","","","","","","","","","","","","","","",""
