\"rt\",\"key_press\",\"trial_type\",\"trial_index\",\"time_elapsed\",\"internal_node_id\",\"view_history\",\"responses\",\"Id\",\"Rt\",\"ResKeyCode\",\"ResCorr\",\"TrialType2\",\"Image\",\"Label\",\"Location\",\"CorrectResponse\",\"Block\",\"BlockTrial\",\"Condition\",\"LabelType\",\"Subcondition\",\"trialNum\"
\"34816\",\"32\",\"text\",\"0\",\"34830\",\"0.0-0.0-0.0\",\"\",\"\",\"\",\"\",\"\",\"\",\"\",\"\",\"\",\"\",\"\",\"\",\"\",\"\",\"\",\"\",\"\"
\"92186\",\"\",\"instructions\",\"1\",\"127028\",\"0.0-1.0\",\"[{\"\"page_index\"\":0,\"\"viewing_time\"\":92183}]\",\"\",\"\",\"\",\"\",\"\",\"\",\"\",\"\",\"\",\"\",\"\",\"\",\"\",\"\",\"\",\"\"
\"20499\",\"\",\"survey-multi-choice\",\"2\",\"147603\",\"0.0-2.0\",\"\",\"{\"\"Q0\"\":\"\"Da\"\",\"\"Q1\"\":\"\"Da\"\",\"\"Q2\"\":\"\"Da\"\",\"\"Q3\"\":\"\"Da\"\",\"\"Q4\"\":\"\"Da\"\",\"\"Q5\"\":\"\"Da\"\"}\",\"\",\"\",\"\",\"\",\"\",\"\",\"\",\"\",\"\",\"\",\"\",\"\",\"\",\"\",\"\"
\"\",\"\",\"bio\",\"3\",\"154941\",\"0.0-3.0\",\"\",\"{\"\"age\"\":\"\"20\"\",\"\"gender\"\":\"\"f\"\",\"\"specify\"\":\"\"\"\"}\",\"\",\"\",\"\",\"\",\"\",\"\",\"\",\"\",\"\",\"\",\"\",\"\",\"\",\"\",\"\"
\"\",\"\",\"approach-retreat\",\"4\",\"163267\",\"0.0-4.0\",\"\",\"\",\"1-3\",\"6785\",\"38\",\"0\",\"Training\",\"Stims/Figures/87-J-10-4.bmp\",\"ta:paka\",\"Down\",\"40\",\"1\",\"1\",\"4\",\"P\",\"C\",\"1\"
\"\",\"\",\"approach-retreat\",\"5\",\"169975\",\"0.0-5.0\",\"\",\"\",\"1-3\",\"5162\",\"37\",\"0\",\"Training\",\"Stims/Figures/71-J-0-1.bmp\",\"pakaka\",\"Right\",\"39\",\"1\",\"2\",\"4\",\"P\",\"C\",\"2\"
\"\",\"\",\"approach-retreat\",\"6\",\"176702\",\"0.0-6.0\",\"\",\"\",\"1-3\",\"5175\",\"39\",\"1\",\"Training\",\"Stims/Figures/118-J-0-2.bmp\",\"ta:kata\",\"Right\",\"39\",\"1\",\"3\",\"4\",\"P\",\"C\",\"3\"
\"\",\"\",\"approach-retreat\",\"7\",\"182578\",\"0.0-7.0\",\"\",\"\",\"1-3\",\"4325\",\"37\",\"0\",\"Training\",\"Stims/Figures/118-C-20-2.bmp\",\"na:lala\",\"Left\",\"39\",\"1\",\"4\",\"4\",\"S\",\"C\",\"4\"
\"\",\"\",\"approach-retreat\",\"8\",\"188462\",\"0.0-8.0\",\"\",\"\",\"1-3\",\"4319\",\"38\",\"1\",\"Training\",\"Stims/Figures/128-C-30-3.bmp\",\"ma:mala\",\"Down\",\"38\",\"1\",\"5\",\"4\",\"S\",\"C\",\"5\"
\"\",\"\",\"approach-retreat\",\"9\",\"194784\",\"0.0-9.0\",\"\",\"\",\"1-3\",\"4776\",\"38\",\"1\",\"Training\",\"Stims/Figures/19-J-10-4.bmp\",\"papa:ka\",\"Up\",\"38\",\"1\",\"6\",\"4\",\"P\",\"C\",\"6\"
\"\",\"\",\"approach-retreat\",\"10\",\"200713\",\"0.0-10.0\",\"\",\"\",\"1-3\",\"4378\",\"39\",\"1\",\"Training\",\"Stims/Figures/19-C-20-4.bmp\",\"na:la:la\",\"Left\",\"39\",\"1\",\"7\",\"4\",\"S\",\"C\",\"7\"
\"\",\"\",\"approach-retreat\",\"11\",\"206682\",\"0.0-11.0\",\"\",\"\",\"1-3\",\"4417\",\"38\",\"1\",\"Training\",\"Stims/Figures/139-C-20-2.bmp\",\"na:lana\",\"Down\",\"38\",\"1\",\"8\",\"4\",\"S\",\"C\",\"8\"
\"\",\"\",\"approach-retreat\",\"12\",\"213136\",\"0.0-12.0\",\"\",\"\",\"1-3\",\"4901\",\"39\",\"1\",\"Training\",\"Stims/Figures/86-J-0-1.bmp\",\"taka:ka\",\"Right\",\"39\",\"1\",\"9\",\"4\",\"P\",\"C\",\"9\"
\"\",\"\",\"approach-retreat\",\"13\",\"219247\",\"0.0-13.0\",\"\",\"\",\"1-3\",\"4557\",\"40\",\"1\",\"Training\",\"Stims/Figures/139-J-0-2.bmp\",\"pa:pa:ta\",\"Down\",\"40\",\"1\",\"10\",\"4\",\"P\",\"C\",\"10\"
\"\",\"\",\"approach-retreat\",\"14\",\"226149\",\"0.0-14.0\",\"\",\"\",\"1-3\",\"5356\",\"40\",\"1\",\"Training\",\"Stims/Figures/71-C-30-1.bmp\",\"na:mana\",\"Up\",\"40\",\"1\",\"11\",\"4\",\"S\",\"C\",\"11\"
\"\",\"\",\"approach-retreat\",\"15\",\"233363\",\"0.0-15.0\",\"\",\"\",\"1-3\",\"5673\",\"37\",\"1\",\"Training\",\"Stims/Figures/100-J-10-3.bmp\",\"pa:kaka\",\"Left\",\"37\",\"1\",\"12\",\"4\",\"P\",\"C\",\"12\"
\"\",\"\",\"approach-retreat\",\"16\",\"239843\",\"0.0-16.0\",\"\",\"\",\"1-3\",\"4928\",\"40\",\"1\",\"Training\",\"Stims/Figures/100-C-30-3.bmp\",\"ma:la:na\",\"Up\",\"40\",\"1\",\"13\",\"4\",\"S\",\"C\",\"13\"
\"\",\"\",\"approach-retreat\",\"17\",\"246490\",\"0.0-17.0\",\"\",\"\",\"1-3\",\"5110\",\"40\",\"1\",\"Training\",\"Stims/Figures/87-C-20-4.bmp\",\"namala\",\"Up\",\"40\",\"1\",\"14\",\"4\",\"S\",\"C\",\"14\"
\"\",\"\",\"approach-retreat\",\"18\",\"252591\",\"0.0-18.0\",\"\",\"\",\"1-3\",\"4548\",\"39\",\"1\",\"Training\",\"Stims/Figures/128-J-10-3.bmp\",\"pa:pa:ka\",\"Right\",\"39\",\"1\",\"15\",\"4\",\"P\",\"C\",\"15\"
\"\",\"\",\"approach-retreat\",\"19\",\"259557\",\"0.0-19.0\",\"\",\"\",\"1-3\",\"5409\",\"39\",\"1\",\"Training\",\"Stims/Figures/86-C-30-1.bmp\",\"nama:na\",\"Left\",\"39\",\"1\",\"16\",\"4\",\"S\",\"C\",\"16\"
\"\",\"\",\"approach-retreat\",\"20\",\"265543\",\"0.0-20.0\",\"\",\"\",\"1-3\",\"4430\",\"39\",\"1\",\"Training\",\"Stims/Figures/71-J-0-1.bmp\",\"pakaka\",\"Right\",\"39\",\"2\",\"1\",\"4\",\"P\",\"C\",\"17\"
\"\",\"\",\"approach-retreat\",\"21\",\"272135\",\"0.0-21.0\",\"\",\"\",\"1-3\",\"5060\",\"37\",\"1\",\"Training\",\"Stims/Figures/71-C-30-1.bmp\",\"na:mana\",\"Right\",\"37\",\"2\",\"2\",\"4\",\"S\",\"C\",\"18\"
\"\",\"\",\"approach-retreat\",\"22\",\"278158\",\"0.0-22.0\",\"\",\"\",\"1-3\",\"4482\",\"38\",\"1\",\"Training\",\"Stims/Figures/139-J-0-2.bmp\",\"pa:pa:ta\",\"Up\",\"38\",\"2\",\"3\",\"4\",\"P\",\"C\",\"19\"
\"\",\"\",\"approach-retreat\",\"23\",\"285024\",\"0.0-23.0\",\"\",\"\",\"1-3\",\"5340\",\"38\",\"1\",\"Training\",\"Stims/Figures/139-C-20-2.bmp\",\"na:lana\",\"Down\",\"38\",\"2\",\"4\",\"4\",\"S\",\"C\",\"20\"
\"\",\"\",\"approach-retreat\",\"24\",\"291393\",\"0.0-24.0\",\"\",\"\",\"1-3\",\"4809\",\"38\",\"1\",\"Training\",\"Stims/Figures/100-J-10-3.bmp\",\"pa:kaka\",\"Up\",\"38\",\"2\",\"5\",\"4\",\"P\",\"C\",\"21\"
\"\",\"\",\"approach-retreat\",\"25\",\"297308\",\"0.0-25.0\",\"\",\"\",\"1-3\",\"4364\",\"37\",\"1\",\"Training\",\"Stims/Figures/87-C-20-4.bmp\",\"namala\",\"Right\",\"37\",\"2\",\"6\",\"4\",\"S\",\"C\",\"22\"
\"\",\"\",\"approach-retreat\",\"26\",\"303055\",\"0.0-26.0\",\"\",\"\",\"1-3\",\"4195\",\"39\",\"1\",\"Training\",\"Stims/Figures/128-C-30-3.bmp\",\"ma:mala\",\"Left\",\"39\",\"2\",\"7\",\"4\",\"S\",\"C\",\"23\"
\"\",\"\",\"approach-retreat\",\"27\",\"308957\",\"0.0-27.0\",\"\",\"\",\"1-3\",\"4351\",\"40\",\"1\",\"Training\",\"Stims/Figures/128-J-10-3.bmp\",\"pa:pa:ka\",\"Down\",\"40\",\"2\",\"8\",\"4\",\"P\",\"C\",\"24\"
\"\",\"\",\"approach-retreat\",\"28\",\"315425\",\"0.0-28.0\",\"\",\"\",\"1-3\",\"4917\",\"40\",\"1\",\"Training\",\"Stims/Figures/19-C-20-4.bmp\",\"na:la:la\",\"Up\",\"40\",\"2\",\"9\",\"4\",\"S\",\"C\",\"25\"
\"\",\"\",\"approach-retreat\",\"29\",\"321393\",\"0.0-29.0\",\"\",\"\",\"1-3\",\"4407\",\"37\",\"1\",\"Training\",\"Stims/Figures/19-J-10-4.bmp\",\"papa:ka\",\"Left\",\"37\",\"2\",\"10\",\"4\",\"P\",\"C\",\"26\"
\"\",\"\",\"approach-retreat\",\"30\",\"327456\",\"0.0-30.0\",\"\",\"\",\"1-3\",\"4510\",\"37\",\"1\",\"Training\",\"Stims/Figures/86-J-0-1.bmp\",\"taka:ka\",\"Left\",\"37\",\"2\",\"11\",\"4\",\"P\",\"C\",\"27\"
\"\",\"\",\"approach-retreat\",\"31\",\"333342\",\"0.0-31.0\",\"\",\"\",\"1-3\",\"4332\",\"37\",\"1\",\"Training\",\"Stims/Figures/118-J-0-2.bmp\",\"ta:kata\",\"Left\",\"37\",\"2\",\"12\",\"4\",\"P\",\"C\",\"28\"
\"\",\"\",\"approach-retreat\",\"32\",\"341438\",\"0.0-32.0\",\"\",\"\",\"1-3\",\"6540\",\"40\",\"1\",\"Training\",\"Stims/Figures/86-C-30-1.bmp\",\"nama:na\",\"Up\",\"40\",\"2\",\"13\",\"4\",\"S\",\"C\",\"29\"
\"\",\"\",\"approach-retreat\",\"33\",\"347457\",\"0.0-33.0\",\"\",\"\",\"1-3\",\"4477\",\"40\",\"1\",\"Training\",\"Stims/Figures/87-J-10-4.bmp\",\"ta:paka\",\"Down\",\"40\",\"2\",\"14\",\"4\",\"P\",\"C\",\"30\"
\"\",\"\",\"approach-retreat\",\"34\",\"353806\",\"0.0-34.0\",\"\",\"\",\"1-3\",\"4796\",\"38\",\"1\",\"Training\",\"Stims/Figures/118-C-20-2.bmp\",\"na:lala\",\"Down\",\"38\",\"2\",\"15\",\"4\",\"S\",\"C\",\"31\"
\"\",\"\",\"approach-retreat\",\"35\",\"359786\",\"0.0-35.0\",\"\",\"\",\"1-3\",\"4431\",\"37\",\"1\",\"Training\",\"Stims/Figures/100-C-30-3.bmp\",\"ma:la:na\",\"Right\",\"37\",\"2\",\"16\",\"4\",\"S\",\"C\",\"32\"
\"\",\"\",\"approach-retreat\",\"36\",\"365955\",\"0.0-36.0\",\"\",\"\",\"1-3\",\"4629\",\"39\",\"1\",\"Training\",\"Stims/Figures/19-C-20-4.bmp\",\"na:la:la\",\"Left\",\"39\",\"3\",\"1\",\"4\",\"S\",\"C\",\"33\"
\"\",\"\",\"approach-retreat\",\"37\",\"372241\",\"0.0-37.0\",\"\",\"\",\"1-3\",\"4727\",\"37\",\"1\",\"Training\",\"Stims/Figures/71-C-30-1.bmp\",\"na:mana\",\"Right\",\"37\",\"3\",\"2\",\"4\",\"S\",\"C\",\"34\"
\"\",\"\",\"approach-retreat\",\"38\",\"378243\",\"0.0-38.0\",\"\",\"\",\"1-3\",\"4436\",\"40\",\"1\",\"Training\",\"Stims/Figures/86-C-30-1.bmp\",\"nama:na\",\"Up\",\"40\",\"3\",\"3\",\"4\",\"S\",\"C\",\"35\"
\"\",\"\",\"approach-retreat\",\"39\",\"384749\",\"0.0-39.0\",\"\",\"\",\"1-3\",\"4965\",\"39\",\"1\",\"Training\",\"Stims/Figures/139-C-20-2.bmp\",\"na:lana\",\"Left\",\"39\",\"3\",\"4\",\"4\",\"S\",\"C\",\"36\"
\"\",\"\",\"approach-retreat\",\"40\",\"390877\",\"0.0-40.0\",\"\",\"\",\"1-3\",\"4583\",\"37\",\"1\",\"Training\",\"Stims/Figures/71-J-0-1.bmp\",\"pakaka\",\"Left\",\"37\",\"3\",\"5\",\"4\",\"P\",\"C\",\"37\"
\"\",\"\",\"approach-retreat\",\"41\",\"396883\",\"0.0-41.0\",\"\",\"\",\"1-3\",\"4457\",\"40\",\"1\",\"Training\",\"Stims/Figures/86-J-0-1.bmp\",\"taka:ka\",\"Down\",\"40\",\"3\",\"6\",\"4\",\"P\",\"C\",\"38\"
\"\",\"\",\"approach-retreat\",\"42\",\"402887\",\"0.0-42.0\",\"\",\"\",\"1-3\",\"4468\",\"38\",\"1\",\"Training\",\"Stims/Figures/100-C-30-3.bmp\",\"ma:la:na\",\"Down\",\"38\",\"3\",\"7\",\"4\",\"S\",\"C\",\"39\"
\"\",\"\",\"approach-retreat\",\"43\",\"409352\",\"0.0-43.0\",\"\",\"\",\"1-3\",\"4932\",\"38\",\"1\",\"Training\",\"Stims/Figures/87-J-10-4.bmp\",\"ta:paka\",\"Up\",\"38\",\"3\",\"8\",\"4\",\"P\",\"C\",\"40\"
\"\",\"\",\"approach-retreat\",\"44\",\"415549\",\"0.0-44.0\",\"\",\"\",\"1-3\",\"4646\",\"39\",\"1\",\"Training\",\"Stims/Figures/100-J-10-3.bmp\",\"pa:kaka\",\"Right\",\"39\",\"3\",\"9\",\"4\",\"P\",\"C\",\"41\"
\"\",\"\",\"approach-retreat\",\"45\",\"421837\",\"0.0-45.0\",\"\",\"\",\"1-3\",\"4734\",\"38\",\"1\",\"Training\",\"Stims/Figures/118-C-20-2.bmp\",\"na:lala\",\"Down\",\"38\",\"3\",\"10\",\"4\",\"S\",\"C\",\"42\"
\"\",\"\",\"approach-retreat\",\"46\",\"428319\",\"0.0-46.0\",\"\",\"\",\"1-3\",\"4924\",\"39\",\"1\",\"Training\",\"Stims/Figures/19-J-10-4.bmp\",\"papa:ka\",\"Right\",\"39\",\"3\",\"11\",\"4\",\"P\",\"C\",\"43\"
\"\",\"\",\"approach-retreat\",\"47\",\"434518\",\"0.0-47.0\",\"\",\"\",\"1-3\",\"4644\",\"38\",\"1\",\"Training\",\"Stims/Figures/118-J-0-2.bmp\",\"ta:kata\",\"Up\",\"38\",\"3\",\"12\",\"4\",\"P\",\"C\",\"44\"
\"\",\"\",\"approach-retreat\",\"48\",\"441167\",\"0.0-48.0\",\"\",\"\",\"1-3\",\"5098\",\"40\",\"1\",\"Training\",\"Stims/Figures/87-C-20-4.bmp\",\"namala\",\"Up\",\"40\",\"3\",\"13\",\"4\",\"S\",\"C\",\"45\"
\"\",\"\",\"approach-retreat\",\"49\",\"447036\",\"0.0-49.0\",\"\",\"\",\"1-3\",\"4319\",\"37\",\"1\",\"Training\",\"Stims/Figures/128-C-30-3.bmp\",\"ma:mala\",\"Right\",\"37\",\"3\",\"14\",\"4\",\"S\",\"C\",\"46\"
\"\",\"\",\"approach-retreat\",\"50\",\"453154\",\"0.0-50.0\",\"\",\"\",\"1-3\",\"4570\",\"40\",\"1\",\"Training\",\"Stims/Figures/128-J-10-3.bmp\",\"pa:pa:ka\",\"Down\",\"40\",\"3\",\"15\",\"4\",\"P\",\"C\",\"47\"
\"\",\"\",\"approach-retreat\",\"51\",\"459168\",\"0.0-51.0\",\"\",\"\",\"1-3\",\"4419\",\"37\",\"1\",\"Training\",\"Stims/Figures/139-J-0-2.bmp\",\"pa:pa:ta\",\"Left\",\"37\",\"3\",\"16\",\"4\",\"P\",\"C\",\"48\"
\"\",\"\",\"approach-retreat\",\"52\",\"465219\",\"0.0-52.0\",\"\",\"\",\"1-3\",\"4506\",\"37\",\"1\",\"Training\",\"Stims/Figures/19-C-20-4.bmp\",\"na:la:la\",\"Right\",\"37\",\"4\",\"1\",\"4\",\"S\",\"C\",\"49\"
\"\",\"\",\"approach-retreat\",\"53\",\"471280\",\"0.0-53.0\",\"\",\"\",\"1-3\",\"4517\",\"38\",\"1\",\"Training\",\"Stims/Figures/100-C-30-3.bmp\",\"ma:la:na\",\"Down\",\"38\",\"4\",\"2\",\"4\",\"S\",\"C\",\"50\"
\"\",\"\",\"approach-retreat\",\"54\",\"477288\",\"0.0-54.0\",\"\",\"\",\"1-3\",\"4462\",\"39\",\"1\",\"Training\",\"Stims/Figures/19-J-10-4.bmp\",\"papa:ka\",\"Right\",\"39\",\"4\",\"3\",\"4\",\"P\",\"C\",\"51\"
\"\",\"\",\"approach-retreat\",\"55\",\"483308\",\"0.0-55.0\",\"\",\"\",\"1-3\",\"4479\",\"37\",\"1\",\"Training\",\"Stims/Figures/118-C-20-2.bmp\",\"na:lala\",\"Right\",\"37\",\"4\",\"4\",\"4\",\"S\",\"C\",\"52\"
\"\",\"\",\"approach-retreat\",\"56\",\"490190\",\"0.0-56.0\",\"\",\"\",\"1-3\",\"5332\",\"39\",\"1\",\"Training\",\"Stims/Figures/86-C-30-1.bmp\",\"nama:na\",\"Left\",\"39\",\"4\",\"5\",\"4\",\"S\",\"C\",\"53\"
\"\",\"\",\"approach-retreat\",\"57\",\"496451\",\"0.0-57.0\",\"\",\"\",\"1-3\",\"4710\",\"40\",\"1\",\"Training\",\"Stims/Figures/139-J-0-2.bmp\",\"pa:pa:ta\",\"Down\",\"40\",\"4\",\"6\",\"4\",\"P\",\"C\",\"54\"
\"\",\"\",\"approach-retreat\",\"58\",\"503000\",\"0.0-58.0\",\"\",\"\",\"1-3\",\"5004\",\"38\",\"1\",\"Training\",\"Stims/Figures/86-J-0-1.bmp\",\"taka:ka\",\"Up\",\"38\",\"4\",\"7\",\"4\",\"P\",\"C\",\"55\"
\"\",\"\",\"approach-retreat\",\"59\",\"508902\",\"0.0-59.0\",\"\",\"\",\"1-3\",\"4356\",\"39\",\"1\",\"Training\",\"Stims/Figures/71-C-30-1.bmp\",\"na:mana\",\"Left\",\"39\",\"4\",\"8\",\"4\",\"S\",\"C\",\"56\"
\"\",\"\",\"approach-retreat\",\"60\",\"514918\",\"0.0-60.0\",\"\",\"\",\"1-3\",\"4469\",\"38\",\"1\",\"Training\",\"Stims/Figures/71-J-0-1.bmp\",\"pakaka\",\"Up\",\"38\",\"4\",\"9\",\"4\",\"P\",\"C\",\"57\"
\"\",\"\",\"approach-retreat\",\"61\",\"521204\",\"0.0-61.0\",\"\",\"\",\"1-3\",\"4730\",\"40\",\"1\",\"Training\",\"Stims/Figures/87-C-20-4.bmp\",\"namala\",\"Up\",\"40\",\"4\",\"10\",\"4\",\"S\",\"C\",\"58\"
\"\",\"\",\"approach-retreat\",\"62\",\"527834\",\"0.0-62.0\",\"\",\"\",\"1-3\",\"5084\",\"40\",\"1\",\"Training\",\"Stims/Figures/87-J-10-4.bmp\",\"ta:paka\",\"Down\",\"40\",\"4\",\"11\",\"4\",\"P\",\"C\",\"59\"
\"\",\"\",\"approach-retreat\",\"63\",\"533763\",\"0.0-63.0\",\"\",\"\",\"1-3\",\"4374\",\"37\",\"1\",\"Training\",\"Stims/Figures/118-J-0-2.bmp\",\"ta:kata\",\"Left\",\"37\",\"4\",\"12\",\"4\",\"P\",\"C\",\"60\"
\"\",\"\",\"approach-retreat\",\"64\",\"540648\",\"0.0-64.0\",\"\",\"\",\"1-3\",\"5331\",\"37\",\"1\",\"Training\",\"Stims/Figures/128-C-30-3.bmp\",\"ma:mala\",\"Right\",\"37\",\"4\",\"13\",\"4\",\"S\",\"C\",\"61\"
\"\",\"\",\"approach-retreat\",\"65\",\"546684\",\"0.0-65.0\",\"\",\"\",\"1-3\",\"4496\",\"38\",\"1\",\"Training\",\"Stims/Figures/139-C-20-2.bmp\",\"na:lana\",\"Down\",\"38\",\"4\",\"14\",\"4\",\"S\",\"C\",\"62\"
\"\",\"\",\"approach-retreat\",\"66\",\"552782\",\"0.0-66.0\",\"\",\"\",\"1-3\",\"4550\",\"37\",\"1\",\"Training\",\"Stims/Figures/100-J-10-3.bmp\",\"pa:kaka\",\"Left\",\"37\",\"4\",\"15\",\"4\",\"P\",\"C\",\"63\"
\"\",\"\",\"approach-retreat\",\"67\",\"559194\",\"0.0-67.0\",\"\",\"\",\"1-3\",\"4859\",\"38\",\"1\",\"Training\",\"Stims/Figures/128-J-10-3.bmp\",\"pa:pa:ka\",\"Up\",\"38\",\"4\",\"16\",\"4\",\"P\",\"C\",\"64\"
\"\",\"\",\"approach-retreat\",\"68\",\"565257\",\"0.0-68.0\",\"\",\"\",\"1-3\",\"4519\",\"38\",\"1\",\"Training\",\"Stims/Figures/86-C-30-1.bmp\",\"nama:na\",\"Down\",\"38\",\"5\",\"1\",\"4\",\"S\",\"C\",\"65\"
\"\",\"\",\"approach-retreat\",\"69\",\"572065\",\"0.0-69.0\",\"\",\"\",\"1-3\",\"5257\",\"38\",\"1\",\"Training\",\"Stims/Figures/139-J-0-2.bmp\",\"pa:pa:ta\",\"Up\",\"38\",\"5\",\"2\",\"4\",\"P\",\"C\",\"66\"
\"\",\"\",\"approach-retreat\",\"70\",\"578068\",\"0.0-70.0\",\"\",\"\",\"1-3\",\"4458\",\"37\",\"1\",\"Training\",\"Stims/Figures/139-C-20-2.bmp\",\"na:lana\",\"Right\",\"37\",\"5\",\"3\",\"4\",\"S\",\"C\",\"67\"
\"\",\"\",\"approach-retreat\",\"71\",\"584098\",\"0.0-71.0\",\"\",\"\",\"1-3\",\"4485\",\"37\",\"1\",\"Training\",\"Stims/Figures/118-J-0-2.bmp\",\"ta:kata\",\"Left\",\"37\",\"5\",\"4\",\"4\",\"P\",\"C\",\"68\"
\"\",\"\",\"approach-retreat\",\"72\",\"590023\",\"0.0-72.0\",\"\",\"\",\"1-3\",\"4372\",\"37\",\"1\",\"Training\",\"Stims/Figures/71-J-0-1.bmp\",\"pakaka\",\"Left\",\"37\",\"5\",\"5\",\"4\",\"P\",\"C\",\"69\"
\"\",\"\",\"approach-retreat\",\"73\",\"595851\",\"0.0-73.0\",\"\",\"\",\"1-3\",\"4271\",\"40\",\"1\",\"Training\",\"Stims/Figures/128-J-10-3.bmp\",\"pa:pa:ka\",\"Down\",\"40\",\"5\",\"6\",\"4\",\"P\",\"C\",\"70\"
\"\",\"\",\"approach-retreat\",\"74\",\"602309\",\"0.0-74.0\",\"\",\"\",\"1-3\",\"4907\",\"40\",\"1\",\"Training\",\"Stims/Figures/100-C-30-3.bmp\",\"ma:la:na\",\"Up\",\"40\",\"5\",\"7\",\"4\",\"S\",\"C\",\"71\"
\"\",\"\",\"approach-retreat\",\"75\",\"608281\",\"0.0-75.0\",\"\",\"\",\"1-3\",\"4436\",\"39\",\"1\",\"Training\",\"Stims/Figures/19-C-20-4.bmp\",\"na:la:la\",\"Left\",\"39\",\"5\",\"8\",\"4\",\"S\",\"C\",\"72\"
\"\",\"\",\"approach-retreat\",\"76\",\"615479\",\"0.0-76.0\",\"\",\"\",\"1-3\",\"5651\",\"38\",\"1\",\"Training\",\"Stims/Figures/19-J-10-4.bmp\",\"papa:ka\",\"Up\",\"38\",\"5\",\"9\",\"4\",\"P\",\"C\",\"73\"
\"\",\"\",\"approach-retreat\",\"77\",\"621678\",\"0.0-77.0\",\"\",\"\",\"1-3\",\"4653\",\"37\",\"1\",\"Training\",\"Stims/Figures/128-C-30-3.bmp\",\"ma:mala\",\"Right\",\"37\",\"5\",\"10\",\"4\",\"S\",\"C\",\"74\"
\"\",\"\",\"approach-retreat\",\"78\",\"627847\",\"0.0-78.0\",\"\",\"\",\"1-3\",\"4619\",\"40\",\"1\",\"Training\",\"Stims/Figures/118-C-20-2.bmp\",\"na:lala\",\"Up\",\"40\",\"5\",\"11\",\"4\",\"S\",\"C\",\"75\"
\"\",\"\",\"approach-retreat\",\"79\",\"633982\",\"0.0-79.0\",\"\",\"\",\"1-3\",\"4584\",\"39\",\"1\",\"Training\",\"Stims/Figures/87-J-10-4.bmp\",\"ta:paka\",\"Right\",\"39\",\"5\",\"12\",\"4\",\"P\",\"C\",\"76\"
\"\",\"\",\"approach-retreat\",\"80\",\"640045\",\"0.0-80.0\",\"\",\"\",\"1-3\",\"4513\",\"39\",\"1\",\"Training\",\"Stims/Figures/86-J-0-1.bmp\",\"taka:ka\",\"Right\",\"39\",\"5\",\"13\",\"4\",\"P\",\"C\",\"77\"
\"\",\"\",\"approach-retreat\",\"81\",\"647081\",\"0.0-81.0\",\"\",\"\",\"1-3\",\"5491\",\"38\",\"1\",\"Training\",\"Stims/Figures/87-C-20-4.bmp\",\"namala\",\"Down\",\"38\",\"5\",\"14\",\"4\",\"S\",\"C\",\"78\"
\"\",\"\",\"approach-retreat\",\"82\",\"653616\",\"0.0-82.0\",\"\",\"\",\"1-3\",\"4977\",\"40\",\"0\",\"Training\",\"Stims/Figures/71-C-30-1.bmp\",\"na:mana\",\"Down\",\"38\",\"5\",\"15\",\"4\",\"S\",\"C\",\"79\"
\"\",\"\",\"approach-retreat\",\"83\",\"659611\",\"0.0-83.0\",\"\",\"\",\"1-3\",\"4443\",\"37\",\"1\",\"Training\",\"Stims/Figures/100-J-10-3.bmp\",\"pa:kaka\",\"Left\",\"37\",\"5\",\"16\",\"4\",\"P\",\"C\",\"80\"
\"\",\"\",\"approach-retreat\",\"84\",\"666848\",\"0.0-84.0\",\"\",\"\",\"1-3\",\"5700\",\"39\",\"1\",\"Training\",\"Stims/Figures/128-J-10-3.bmp\",\"pa:pa:ka\",\"Right\",\"39\",\"6\",\"1\",\"4\",\"P\",\"C\",\"81\"
\"\",\"\",\"approach-retreat\",\"85\",\"672942\",\"0.0-85.0\",\"\",\"\",\"1-3\",\"4550\",\"40\",\"1\",\"Training\",\"Stims/Figures/118-J-0-2.bmp\",\"ta:kata\",\"Down\",\"40\",\"6\",\"2\",\"4\",\"P\",\"C\",\"82\"
\"\",\"\",\"approach-retreat\",\"86\",\"679134\",\"0.0-86.0\",\"\",\"\",\"1-3\",\"4644\",\"37\",\"1\",\"Training\",\"Stims/Figures/87-C-20-4.bmp\",\"namala\",\"Right\",\"37\",\"6\",\"3\",\"4\",\"S\",\"C\",\"83\"
\"\",\"\",\"approach-retreat\",\"87\",\"685077\",\"0.0-87.0\",\"\",\"\",\"1-3\",\"4397\",\"39\",\"1\",\"Training\",\"Stims/Figures/139-C-20-2.bmp\",\"na:lana\",\"Left\",\"39\",\"6\",\"4\",\"4\",\"S\",\"C\",\"84\"
\"\",\"\",\"approach-retreat\",\"88\",\"691043\",\"0.0-88.0\",\"\",\"\",\"1-3\",\"4418\",\"39\",\"1\",\"Training\",\"Stims/Figures/19-C-20-4.bmp\",\"na:la:la\",\"Left\",\"39\",\"6\",\"5\",\"4\",\"S\",\"C\",\"85\"
\"\",\"\",\"approach-retreat\",\"89\",\"697024\",\"0.0-89.0\",\"\",\"\",\"1-3\",\"4427\",\"39\",\"1\",\"Training\",\"Stims/Figures/100-C-30-3.bmp\",\"ma:la:na\",\"Left\",\"39\",\"6\",\"6\",\"4\",\"S\",\"C\",\"86\"
\"\",\"\",\"approach-retreat\",\"90\",\"704086\",\"0.0-90.0\",\"\",\"\",\"1-3\",\"5515\",\"38\",\"1\",\"Training\",\"Stims/Figures/87-J-10-4.bmp\",\"ta:paka\",\"Up\",\"38\",\"6\",\"7\",\"4\",\"P\",\"C\",\"87\"
\"\",\"\",\"approach-retreat\",\"91\",\"709994\",\"0.0-91.0\",\"\",\"\",\"1-3\",\"4362\",\"38\",\"1\",\"Training\",\"Stims/Figures/139-J-0-2.bmp\",\"pa:pa:ta\",\"Up\",\"38\",\"6\",\"8\",\"4\",\"P\",\"C\",\"88\"
\"\",\"\",\"approach-retreat\",\"92\",\"716010\",\"0.0-92.0\",\"\",\"\",\"1-3\",\"4472\",\"39\",\"1\",\"Training\",\"Stims/Figures/86-C-30-1.bmp\",\"nama:na\",\"Left\",\"39\",\"6\",\"9\",\"4\",\"S\",\"C\",\"89\"
\"\",\"\",\"approach-retreat\",\"93\",\"721834\",\"0.0-93.0\",\"\",\"\",\"1-3\",\"4278\",\"40\",\"1\",\"Training\",\"Stims/Figures/86-J-0-1.bmp\",\"taka:ka\",\"Down\",\"40\",\"6\",\"10\",\"4\",\"P\",\"C\",\"90\"
\"\",\"\",\"approach-retreat\",\"94\",\"727728\",\"0.0-94.0\",\"\",\"\",\"1-3\",\"4353\",\"37\",\"1\",\"Training\",\"Stims/Figures/71-C-30-1.bmp\",\"na:mana\",\"Right\",\"37\",\"6\",\"11\",\"4\",\"S\",\"C\",\"91\"
\"\",\"\",\"approach-retreat\",\"95\",\"734809\",\"0.0-95.0\",\"\",\"\",\"1-3\",\"5537\",\"38\",\"1\",\"Training\",\"Stims/Figures/100-J-10-3.bmp\",\"pa:kaka\",\"Up\",\"38\",\"6\",\"12\",\"4\",\"P\",\"C\",\"92\"
\"\",\"\",\"approach-retreat\",\"96\",\"740575\",\"0.0-96.0\",\"\",\"\",\"1-3\",\"4231\",\"37\",\"1\",\"Training\",\"Stims/Figures/128-C-30-3.bmp\",\"ma:mala\",\"Right\",\"37\",\"6\",\"13\",\"4\",\"S\",\"C\",\"93\"
\"\",\"\",\"approach-retreat\",\"97\",\"746540\",\"0.0-97.0\",\"\",\"\",\"1-3\",\"4416\",\"40\",\"1\",\"Training\",\"Stims/Figures/118-C-20-2.bmp\",\"na:lala\",\"Up\",\"40\",\"6\",\"14\",\"4\",\"S\",\"C\",\"94\"
\"\",\"\",\"approach-retreat\",\"98\",\"752762\",\"0.0-98.0\",\"\",\"\",\"1-3\",\"4662\",\"40\",\"1\",\"Training\",\"Stims/Figures/71-J-0-1.bmp\",\"pakaka\",\"Down\",\"40\",\"6\",\"15\",\"4\",\"P\",\"C\",\"95\"
\"\",\"\",\"approach-retreat\",\"99\",\"758574\",\"0.0-99.0\",\"\",\"\",\"1-3\",\"4259\",\"40\",\"1\",\"Training\",\"Stims/Figures/19-J-10-4.bmp\",\"papa:ka\",\"Down\",\"40\",\"6\",\"16\",\"4\",\"P\",\"C\",\"96\"
\"\",\"\",\"approach-retreat\",\"100\",\"765788\",\"0.0-100.0\",\"\",\"\",\"1-3\",\"5662\",\"37\",\"1\",\"Training\",\"Stims/Figures/100-C-30-3.bmp\",\"ma:la:na\",\"Right\",\"37\",\"7\",\"1\",\"4\",\"S\",\"C\",\"97\"
\"\",\"\",\"approach-retreat\",\"101\",\"772039\",\"0.0-101.0\",\"\",\"\",\"1-3\",\"4701\",\"39\",\"1\",\"Training\",\"Stims/Figures/87-C-20-4.bmp\",\"namala\",\"Left\",\"39\",\"7\",\"2\",\"4\",\"S\",\"C\",\"98\"
\"\",\"\",\"approach-retreat\",\"102\",\"777857\",\"0.0-102.0\",\"\",\"\",\"1-3\",\"4268\",\"40\",\"1\",\"Training\",\"Stims/Figures/128-J-10-3.bmp\",\"pa:pa:ka\",\"Down\",\"40\",\"7\",\"3\",\"4\",\"P\",\"C\",\"99\"
\"\",\"\",\"approach-retreat\",\"103\",\"783838\",\"0.0-103.0\",\"\",\"\",\"1-3\",\"4425\",\"40\",\"1\",\"Training\",\"Stims/Figures/118-C-20-2.bmp\",\"na:lala\",\"Up\",\"40\",\"7\",\"4\",\"4\",\"S\",\"C\",\"100\"
\"\",\"\",\"approach-retreat\",\"104\",\"789657\",\"0.0-104.0\",\"\",\"\",\"1-3\",\"4274\",\"39\",\"1\",\"Training\",\"Stims/Figures/100-J-10-3.bmp\",\"pa:kaka\",\"Right\",\"39\",\"7\",\"5\",\"4\",\"P\",\"C\",\"101\"
\"\",\"\",\"approach-retreat\",\"105\",\"795704\",\"0.0-105.0\",\"\",\"\",\"1-3\",\"4497\",\"39\",\"1\",\"Training\",\"Stims/Figures/19-C-20-4.bmp\",\"na:la:la\",\"Left\",\"39\",\"7\",\"6\",\"4\",\"S\",\"C\",\"102\"
\"\",\"\",\"approach-retreat\",\"106\",\"802240\",\"0.0-106.0\",\"\",\"\",\"1-3\",\"4985\",\"38\",\"1\",\"Training\",\"Stims/Figures/71-C-30-1.bmp\",\"na:mana\",\"Down\",\"38\",\"7\",\"7\",\"4\",\"S\",\"C\",\"103\"
\"\",\"\",\"approach-retreat\",\"107\",\"808355\",\"0.0-107.0\",\"\",\"\",\"1-3\",\"4570\",\"39\",\"1\",\"Training\",\"Stims/Figures/19-J-10-4.bmp\",\"papa:ka\",\"Right\",\"39\",\"7\",\"8\",\"4\",\"P\",\"C\",\"104\"
\"\",\"\",\"approach-retreat\",\"108\",\"814272\",\"0.0-108.0\",\"\",\"\",\"1-3\",\"4369\",\"40\",\"1\",\"Training\",\"Stims/Figures/86-J-0-1.bmp\",\"taka:ka\",\"Down\",\"40\",\"7\",\"9\",\"4\",\"P\",\"C\",\"105\"
\"\",\"\",\"approach-retreat\",\"109\",\"820301\",\"0.0-109.0\",\"\",\"\",\"1-3\",\"4481\",\"40\",\"1\",\"Training\",\"Stims/Figures/139-C-20-2.bmp\",\"na:lana\",\"Up\",\"40\",\"7\",\"10\",\"4\",\"S\",\"C\",\"106\"
\"\",\"\",\"approach-retreat\",\"110\",\"826105\",\"0.0-110.0\",\"\",\"\",\"1-3\",\"4260\",\"37\",\"1\",\"Training\",\"Stims/Figures/87-J-10-4.bmp\",\"ta:paka\",\"Left\",\"37\",\"7\",\"11\",\"4\",\"P\",\"C\",\"107\"
\"\",\"\",\"approach-retreat\",\"111\",\"832114\",\"0.0-111.0\",\"\",\"\",\"1-3\",\"4455\",\"40\",\"1\",\"Training\",\"Stims/Figures/86-C-30-1.bmp\",\"nama:na\",\"Up\",\"40\",\"7\",\"12\",\"4\",\"S\",\"C\",\"108\"
\"\",\"\",\"approach-retreat\",\"112\",\"837805\",\"0.0-112.0\",\"\",\"\",\"1-3\",\"4145\",\"37\",\"1\",\"Training\",\"Stims/Figures/139-J-0-2.bmp\",\"pa:pa:ta\",\"Left\",\"37\",\"7\",\"13\",\"4\",\"P\",\"C\",\"109\"
\"\",\"\",\"approach-retreat\",\"113\",\"843485\",\"0.0-113.0\",\"\",\"\",\"1-3\",\"4135\",\"39\",\"1\",\"Training\",\"Stims/Figures/71-J-0-1.bmp\",\"pakaka\",\"Right\",\"39\",\"7\",\"14\",\"4\",\"P\",\"C\",\"110\"
\"\",\"\",\"approach-retreat\",\"114\",\"849504\",\"0.0-114.0\",\"\",\"\",\"1-3\",\"4471\",\"38\",\"1\",\"Training\",\"Stims/Figures/128-C-30-3.bmp\",\"ma:mala\",\"Down\",\"38\",\"7\",\"15\",\"4\",\"S\",\"C\",\"111\"
\"\",\"\",\"approach-retreat\",\"115\",\"855273\",\"0.0-115.0\",\"\",\"\",\"1-3\",\"4224\",\"38\",\"1\",\"Training\",\"Stims/Figures/118-J-0-2.bmp\",\"ta:kata\",\"Up\",\"38\",\"7\",\"16\",\"4\",\"P\",\"C\",\"112\"
\"\",\"\",\"approach-retreat\",\"116\",\"860904\",\"0.0-116.0\",\"\",\"\",\"1-3\",\"4087\",\"37\",\"1\",\"Training\",\"Stims/Figures/100-J-10-3.bmp\",\"pa:kaka\",\"Left\",\"37\",\"8\",\"1\",\"4\",\"P\",\"C\",\"113\"
\"\",\"\",\"approach-retreat\",\"117\",\"866625\",\"0.0-117.0\",\"\",\"\",\"1-3\",\"4176\",\"38\",\"1\",\"Training\",\"Stims/Figures/19-J-10-4.bmp\",\"papa:ka\",\"Up\",\"38\",\"8\",\"2\",\"4\",\"P\",\"C\",\"114\"
\"\",\"\",\"approach-retreat\",\"118\",\"872305\",\"0.0-118.0\",\"\",\"\",\"1-3\",\"4123\",\"39\",\"1\",\"Training\",\"Stims/Figures/118-J-0-2.bmp\",\"ta:kata\",\"Right\",\"39\",\"8\",\"3\",\"4\",\"P\",\"C\",\"115\"
\"\",\"\",\"approach-retreat\",\"119\",\"878012\",\"0.0-119.0\",\"\",\"\",\"1-3\",\"4156\",\"37\",\"1\",\"Training\",\"Stims/Figures/139-C-20-2.bmp\",\"na:lana\",\"Right\",\"37\",\"8\",\"4\",\"4\",\"S\",\"C\",\"116\"
\"\",\"\",\"approach-retreat\",\"120\",\"883712\",\"0.0-120.0\",\"\",\"\",\"1-3\",\"4147\",\"37\",\"1\",\"Training\",\"Stims/Figures/87-C-20-4.bmp\",\"namala\",\"Right\",\"37\",\"8\",\"5\",\"4\",\"S\",\"C\",\"117\"
\"\",\"\",\"approach-retreat\",\"121\",\"889419\",\"0.0-121.0\",\"\",\"\",\"1-3\",\"4156\",\"39\",\"1\",\"Training\",\"Stims/Figures/86-J-0-1.bmp\",\"taka:ka\",\"Right\",\"39\",\"8\",\"6\",\"4\",\"P\",\"C\",\"118\"
\"\",\"\",\"approach-retreat\",\"122\",\"895437\",\"0.0-122.0\",\"\",\"\",\"1-3\",\"4466\",\"38\",\"1\",\"Training\",\"Stims/Figures/86-C-30-1.bmp\",\"nama:na\",\"Down\",\"38\",\"8\",\"7\",\"4\",\"S\",\"C\",\"119\"
\"\",\"\",\"approach-retreat\",\"123\",\"901367\",\"0.0-123.0\",\"\",\"\",\"1-3\",\"4386\",\"40\",\"1\",\"Training\",\"Stims/Figures/19-C-20-4.bmp\",\"na:la:la\",\"Up\",\"40\",\"8\",\"8\",\"4\",\"S\",\"C\",\"120\"
\"\",\"\",\"approach-retreat\",\"124\",\"907819\",\"0.0-124.0\",\"\",\"\",\"1-3\",\"4899\",\"38\",\"1\",\"Training\",\"Stims/Figures/139-J-0-2.bmp\",\"pa:pa:ta\",\"Up\",\"38\",\"8\",\"9\",\"4\",\"P\",\"C\",\"121\"
\"\",\"\",\"approach-retreat\",\"125\",\"914051\",\"0.0-125.0\",\"\",\"\",\"1-3\",\"4692\",\"40\",\"1\",\"Training\",\"Stims/Figures/87-J-10-4.bmp\",\"ta:paka\",\"Down\",\"40\",\"8\",\"10\",\"4\",\"P\",\"C\",\"122\"
\"\",\"\",\"approach-retreat\",\"126\",\"919734\",\"0.0-126.0\",\"\",\"\",\"1-3\",\"4135\",\"40\",\"1\",\"Training\",\"Stims/Figures/128-J-10-3.bmp\",\"pa:pa:ka\",\"Down\",\"40\",\"8\",\"11\",\"4\",\"P\",\"C\",\"123\"
\"\",\"\",\"approach-retreat\",\"127\",\"926043\",\"0.0-127.0\",\"\",\"\",\"1-3\",\"4757\",\"38\",\"1\",\"Training\",\"Stims/Figures/100-C-30-3.bmp\",\"ma:la:na\",\"Down\",\"38\",\"8\",\"12\",\"4\",\"S\",\"C\",\"124\"
\"\",\"\",\"approach-retreat\",\"128\",\"931871\",\"0.0-128.0\",\"\",\"\",\"1-3\",\"4281\",\"37\",\"1\",\"Training\",\"Stims/Figures/71-J-0-1.bmp\",\"pakaka\",\"Left\",\"37\",\"8\",\"13\",\"4\",\"P\",\"C\",\"125\"
\"\",\"\",\"approach-retreat\",\"129\",\"937716\",\"0.0-129.0\",\"\",\"\",\"1-3\",\"4293\",\"39\",\"1\",\"Training\",\"Stims/Figures/128-C-30-3.bmp\",\"ma:mala\",\"Left\",\"39\",\"8\",\"14\",\"4\",\"S\",\"C\",\"126\"
\"\",\"\",\"approach-retreat\",\"130\",\"943597\",\"0.0-130.0\",\"\",\"\",\"1-3\",\"4333\",\"40\",\"1\",\"Training\",\"Stims/Figures/118-C-20-2.bmp\",\"na:lala\",\"Up\",\"40\",\"8\",\"15\",\"4\",\"S\",\"C\",\"127\"
\"\",\"\",\"approach-retreat\",\"131\",\"949382\",\"0.0-131.0\",\"\",\"\",\"1-3\",\"4224\",\"39\",\"1\",\"Training\",\"Stims/Figures/71-C-30-1.bmp\",\"na:mana\",\"Left\",\"39\",\"8\",\"16\",\"4\",\"S\",\"C\",\"128\"
\"\",\"\",\"approach-retreat\",\"132\",\"955115\",\"0.0-132.0\",\"\",\"\",\"1-3\",\"4200\",\"40\",\"1\",\"Training\",\"Stims/Figures/19-C-20-4.bmp\",\"na:la:la\",\"Up\",\"40\",\"9\",\"1\",\"4\",\"S\",\"C\",\"129\"
\"\",\"\",\"approach-retreat\",\"133\",\"960965\",\"0.0-133.0\",\"\",\"\",\"1-3\",\"4306\",\"37\",\"1\",\"Training\",\"Stims/Figures/71-J-0-1.bmp\",\"pakaka\",\"Left\",\"37\",\"9\",\"2\",\"4\",\"P\",\"C\",\"130\"
\"\",\"\",\"approach-retreat\",\"134\",\"966943\",\"0.0-134.0\",\"\",\"\",\"1-3\",\"4428\",\"38\",\"1\",\"Training\",\"Stims/Figures/71-C-30-1.bmp\",\"na:mana\",\"Down\",\"38\",\"9\",\"3\",\"4\",\"S\",\"C\",\"131\"
\"\",\"\",\"approach-retreat\",\"135\",\"973065\",\"0.0-135.0\",\"\",\"\",\"1-3\",\"4578\",\"38\",\"1\",\"Training\",\"Stims/Figures/128-J-10-3.bmp\",\"pa:pa:ka\",\"Up\",\"38\",\"9\",\"4\",\"4\",\"P\",\"C\",\"132\"
\"\",\"\",\"approach-retreat\",\"136\",\"979847\",\"0.0-136.0\",\"\",\"\",\"1-3\",\"5232\",\"40\",\"0\",\"Training\",\"Stims/Figures/128-C-30-3.bmp\",\"ma:mala\",\"Down\",\"38\",\"9\",\"5\",\"4\",\"S\",\"C\",\"133\"
\"\",\"\",\"approach-retreat\",\"137\",\"986483\",\"0.0-137.0\",\"\",\"\",\"1-3\",\"5080\",\"37\",\"1\",\"Training\",\"Stims/Figures/139-J-0-2.bmp\",\"pa:pa:ta\",\"Left\",\"37\",\"9\",\"6\",\"4\",\"P\",\"C\",\"134\"
\"\",\"\",\"approach-retreat\",\"138\",\"992165\",\"0.0-138.0\",\"\",\"\",\"1-3\",\"4131\",\"39\",\"1\",\"Training\",\"Stims/Figures/19-J-10-4.bmp\",\"papa:ka\",\"Right\",\"39\",\"9\",\"7\",\"4\",\"P\",\"C\",\"135\"
\"\",\"\",\"approach-retreat\",\"139\",\"998402\",\"0.0-139.0\",\"\",\"\",\"1-3\",\"4687\",\"37\",\"1\",\"Training\",\"Stims/Figures/139-C-20-2.bmp\",\"na:lana\",\"Right\",\"37\",\"9\",\"8\",\"4\",\"S\",\"C\",\"136\"
\"\",\"\",\"approach-retreat\",\"140\",\"1004432\",\"0.0-140.0\",\"\",\"\",\"1-3\",\"4500\",\"40\",\"1\",\"Training\",\"Stims/Figures/86-J-0-1.bmp\",\"taka:ka\",\"Down\",\"40\",\"9\",\"9\",\"4\",\"P\",\"C\",\"137\"
\"\",\"\",\"approach-retreat\",\"141\",\"1010616\",\"0.0-141.0\",\"\",\"\",\"1-3\",\"4629\",\"37\",\"1\",\"Training\",\"Stims/Figures/100-C-30-3.bmp\",\"ma:la:na\",\"Right\",\"37\",\"9\",\"10\",\"4\",\"S\",\"C\",\"138\"
\"\",\"\",\"approach-retreat\",\"142\",\"1016648\",\"0.0-142.0\",\"\",\"\",\"1-3\",\"4480\",\"38\",\"1\",\"Training\",\"Stims/Figures/118-C-20-2.bmp\",\"na:lala\",\"Down\",\"38\",\"9\",\"11\",\"4\",\"S\",\"C\",\"139\"
\"\",\"\",\"approach-retreat\",\"143\",\"1022265\",\"0.0-143.0\",\"\",\"\",\"1-3\",\"4070\",\"39\",\"1\",\"Training\",\"Stims/Figures/100-J-10-3.bmp\",\"pa:kaka\",\"Right\",\"39\",\"9\",\"12\",\"4\",\"P\",\"C\",\"140\"
\"\",\"\",\"approach-retreat\",\"144\",\"1028371\",\"0.0-144.0\",\"\",\"\",\"1-3\",\"4565\",\"40\",\"1\",\"Training\",\"Stims/Figures/86-C-30-1.bmp\",\"nama:na\",\"Up\",\"40\",\"9\",\"13\",\"4\",\"S\",\"C\",\"141\"
\"\",\"\",\"approach-retreat\",\"145\",\"1033996\",\"0.0-145.0\",\"\",\"\",\"1-3\",\"4071\",\"37\",\"1\",\"Training\",\"Stims/Figures/87-J-10-4.bmp\",\"ta:paka\",\"Left\",\"37\",\"9\",\"14\",\"4\",\"P\",\"C\",\"142\"
\"\",\"\",\"approach-retreat\",\"146\",\"1039862\",\"0.0-146.0\",\"\",\"\",\"1-3\",\"4314\",\"37\",\"1\",\"Training\",\"Stims/Figures/118-J-0-2.bmp\",\"ta:kata\",\"Left\",\"37\",\"9\",\"15\",\"4\",\"P\",\"C\",\"143\"
\"\",\"\",\"approach-retreat\",\"147\",\"1045797\",\"0.0-147.0\",\"\",\"\",\"1-3\",\"4394\",\"40\",\"1\",\"Training\",\"Stims/Figures/87-C-20-4.bmp\",\"namala\",\"Up\",\"40\",\"9\",\"16\",\"4\",\"S\",\"C\",\"144\"
\"13406\",\"\",\"instructions\",\"148\",\"1059205\",\"0.0-148.0\",\"[{\"\"page_index\"\":0,\"\"viewing_time\"\":13403}]\",\"\",\"\",\"\",\"\",\"\",\"\",\"\",\"\",\"\",\"\",\"\",\"\",\"\",\"\",\"\",\"\"
\"\",\"\",\"approach-retreat\",\"149\",\"1065725\",\"0.0-149.0\",\"\",\"\",\"1-3\",\"4986\",\"39\",\"1\",\"Testing\",\"Stims/Figures/144-C-30-3.bmp\",\"ma:mana\",\"Left\",\"39\",\"1\",\"1\",\"4\",\"S\",\"C\",\"1\"
\"\",\"\",\"approach-retreat\",\"150\",\"1071582\",\"0.0-150.0\",\"\",\"\",\"1-3\",\"4316\",\"39\",\"1\",\"Testing\",\"Stims/Figures/139-J-0-2.bmp\",\"pa:pa:ta\",\"Right\",\"39\",\"1\",\"2\",\"4\",\"P\",\"C\",\"2\"
\"\",\"\",\"approach-retreat\",\"151\",\"1077465\",\"0.0-151.0\",\"\",\"\",\"1-3\",\"4328\",\"38\",\"0\",\"Testing\",\"Stims/Figures/87-J-10-4.bmp\",\"ta:paka\",\"Down\",\"40\",\"1\",\"3\",\"4\",\"P\",\"C\",\"3\"
\"\",\"\",\"approach-retreat\",\"152\",\"1083622\",\"0.0-152.0\",\"\",\"\",\"1-3\",\"4620\",\"38\",\"1\",\"Testing\",\"Stims/Figures/118-J-0-2.bmp\",\"ta:kata\",\"Up\",\"38\",\"1\",\"4\",\"4\",\"P\",\"C\",\"4\"
\"\",\"\",\"approach-retreat\",\"153\",\"1089684\",\"0.0-153.0\",\"\",\"\",\"1-3\",\"4530\",\"38\",\"1\",\"Testing\",\"Stims/Figures/57-C-30-1.bmp\",\"ma:lala\",\"Down\",\"38\",\"1\",\"5\",\"4\",\"S\",\"C\",\"5\"
\"\",\"\",\"approach-retreat\",\"154\",\"1095694\",\"0.0-154.0\",\"\",\"\",\"1-3\",\"4463\",\"40\",\"1\",\"Testing\",\"Stims/Figures/86-C-30-1.bmp\",\"nama:na\",\"Up\",\"40\",\"1\",\"6\",\"4\",\"S\",\"C\",\"6\"
\"\",\"\",\"approach-retreat\",\"155\",\"1101971\",\"0.0-155.0\",\"\",\"\",\"1-3\",\"4744\",\"40\",\"1\",\"Testing\",\"Stims/Figures/19-C-20-4.bmp\",\"na:la:la\",\"Up\",\"40\",\"1\",\"7\",\"4\",\"S\",\"C\",\"7\"
\"\",\"\",\"approach-retreat\",\"156\",\"1108104\",\"0.0-156.0\",\"\",\"\",\"1-3\",\"4600\",\"40\",\"1\",\"Testing\",\"Stims/Figures/19-J-10-4.bmp\",\"papa:ka\",\"Down\",\"40\",\"1\",\"8\",\"4\",\"P\",\"C\",\"8\"
\"\",\"\",\"approach-retreat\",\"157\",\"1113921\",\"0.0-157.0\",\"\",\"\",\"1-3\",\"4275\",\"39\",\"1\",\"Testing\",\"Stims/Figures/100-J-10-3.bmp\",\"pa:kaka\",\"Right\",\"39\",\"1\",\"9\",\"4\",\"P\",\"C\",\"9\"
\"\",\"\",\"approach-retreat\",\"158\",\"1119709\",\"0.0-158.0\",\"\",\"\",\"1-3\",\"4252\",\"40\",\"1\",\"Testing\",\"Stims/Figures/57-J-0-1.bmp\",\"ta:pa:ta\",\"Down\",\"40\",\"1\",\"10\",\"4\",\"P\",\"C\",\"10\"
\"\",\"\",\"approach-retreat\",\"159\",\"1125472\",\"0.0-159.0\",\"\",\"\",\"1-3\",\"4228\",\"40\",\"1\",\"Testing\",\"Stims/Figures/139-C-20-2.bmp\",\"na:lana\",\"Up\",\"40\",\"1\",\"11\",\"4\",\"S\",\"C\",\"11\"
\"\",\"\",\"approach-retreat\",\"160\",\"1131321\",\"0.0-160.0\",\"\",\"\",\"1-3\",\"4320\",\"39\",\"1\",\"Testing\",\"Stims/Figures/71-C-30-1.bmp\",\"na:mana\",\"Left\",\"39\",\"1\",\"12\",\"4\",\"S\",\"C\",\"12\"
\"\",\"\",\"approach-retreat\",\"161\",\"1137151\",\"0.0-161.0\",\"\",\"\",\"1-3\",\"4293\",\"40\",\"1\",\"Testing\",\"Stims/Figures/86-J-0-1.bmp\",\"taka:ka\",\"Down\",\"40\",\"1\",\"13\",\"4\",\"P\",\"C\",\"13\"
\"\",\"\",\"approach-retreat\",\"162\",\"1144565\",\"0.0-162.0\",\"\",\"\",\"1-3\",\"5875\",\"39\",\"1\",\"Testing\",\"Stims/Figures/7-C-20-4.bmp\",\"nalana\",\"Left\",\"39\",\"1\",\"14\",\"4\",\"S\",\"C\",\"14\"
\"\",\"\",\"approach-retreat\",\"163\",\"1151807\",\"0.0-163.0\",\"\",\"\",\"1-3\",\"5703\",\"39\",\"1\",\"Testing\",\"Stims/Figures/94-C-20-2.bmp\",\"na:mala\",\"Left\",\"39\",\"1\",\"15\",\"4\",\"S\",\"C\",\"15\"
\"\",\"\",\"approach-retreat\",\"164\",\"1158356\",\"0.0-164.0\",\"\",\"\",\"1-3\",\"5011\",\"37\",\"1\",\"Testing\",\"Stims/Figures/144-J-10-3.bmp\",\"paka:ta\",\"Left\",\"37\",\"1\",\"16\",\"4\",\"P\",\"C\",\"16\"
\"\",\"\",\"approach-retreat\",\"165\",\"1164760\",\"0.0-165.0\",\"\",\"\",\"1-3\",\"4862\",\"38\",\"1\",\"Testing\",\"Stims/Figures/128-C-30-3.bmp\",\"ma:mala\",\"Down\",\"38\",\"1\",\"17\",\"4\",\"S\",\"C\",\"17\"
\"\",\"\",\"approach-retreat\",\"166\",\"1172294\",\"0.0-166.0\",\"\",\"\",\"1-3\",\"5996\",\"37\",\"1\",\"Testing\",\"Stims/Figures/7-J-10-4.bmp\",\"tapa:ka\",\"Left\",\"37\",\"1\",\"18\",\"4\",\"P\",\"C\",\"18\"
\"\",\"\",\"approach-retreat\",\"167\",\"1181095\",\"0.0-167.0\",\"\",\"\",\"1-3\",\"7255\",\"40\",\"1\",\"Testing\",\"Stims/Figures/100-C-30-3.bmp\",\"ma:la:na\",\"Up\",\"40\",\"1\",\"19\",\"4\",\"S\",\"C\",\"19\"
\"\",\"\",\"approach-retreat\",\"168\",\"1187442\",\"0.0-168.0\",\"\",\"\",\"1-3\",\"4812\",\"39\",\"0\",\"Testing\",\"Stims/Figures/118-C-20-2.bmp\",\"na:lala\",\"Right\",\"37\",\"1\",\"20\",\"4\",\"S\",\"C\",\"20\"
\"\",\"\",\"approach-retreat\",\"169\",\"1193148\",\"0.0-169.0\",\"\",\"\",\"1-3\",\"4168\",\"39\",\"1\",\"Testing\",\"Stims/Figures/71-J-0-1.bmp\",\"pakaka\",\"Right\",\"39\",\"1\",\"21\",\"4\",\"P\",\"C\",\"21\"
\"\",\"\",\"approach-retreat\",\"170\",\"1199159\",\"0.0-170.0\",\"\",\"\",\"1-3\",\"4470\",\"38\",\"1\",\"Testing\",\"Stims/Figures/94-J-0-2.bmp\",\"tapata\",\"Up\",\"38\",\"1\",\"22\",\"4\",\"P\",\"C\",\"22\"
\"\",\"\",\"approach-retreat\",\"171\",\"1204997\",\"0.0-171.0\",\"\",\"\",\"1-3\",\"4303\",\"39\",\"1\",\"Testing\",\"Stims/Figures/128-J-10-3.bmp\",\"pa:pa:ka\",\"Right\",\"39\",\"1\",\"23\",\"4\",\"P\",\"C\",\"23\"
\"\",\"\",\"approach-retreat\",\"172\",\"1211392\",\"0.0-172.0\",\"\",\"\",\"1-3\",\"4866\",\"39\",\"0\",\"Testing\",\"Stims/Figures/87-C-20-4.bmp\",\"namala\",\"Right\",\"37\",\"1\",\"24\",\"4\",\"S\",\"C\",\"24\"
\"\",\"\",\"approach-retreat\",\"173\",\"1218772\",\"0.0-173.0\",\"\",\"\",\"1-3\",\"5846\",\"38\",\"1\",\"Testing\",\"Stims/Figures/86-C-30-1.bmp\",\"nama:na\",\"Down\",\"38\",\"2\",\"1\",\"4\",\"S\",\"C\",\"25\"
\"\",\"\",\"approach-retreat\",\"174\",\"1224670\",\"0.0-174.0\",\"\",\"\",\"1-3\",\"4380\",\"39\",\"1\",\"Testing\",\"Stims/Figures/57-J-0-1.bmp\",\"ta:pa:ta\",\"Right\",\"39\",\"2\",\"2\",\"4\",\"P\",\"C\",\"26\"
\"\",\"\",\"approach-retreat\",\"175\",\"1230444\",\"0.0-175.0\",\"\",\"\",\"1-3\",\"4229\",\"39\",\"0\",\"Testing\",\"Stims/Figures/139-C-20-2.bmp\",\"na:lana\",\"Right\",\"37\",\"2\",\"3\",\"4\",\"S\",\"C\",\"27\"
\"\",\"\",\"approach-retreat\",\"176\",\"1237486\",\"0.0-176.0\",\"\",\"\",\"1-3\",\"5510\",\"38\",\"1\",\"Testing\",\"Stims/Figures/87-C-20-4.bmp\",\"namala\",\"Down\",\"38\",\"2\",\"4\",\"4\",\"S\",\"C\",\"28\"
\"\",\"\",\"approach-retreat\",\"177\",\"1244371\",\"0.0-177.0\",\"\",\"\",\"1-3\",\"5343\",\"37\",\"1\",\"Testing\",\"Stims/Figures/57-C-30-1.bmp\",\"ma:lala\",\"Right\",\"37\",\"2\",\"5\",\"4\",\"S\",\"C\",\"29\"
\"\",\"\",\"approach-retreat\",\"178\",\"1251639\",\"0.0-178.0\",\"\",\"\",\"1-3\",\"5725\",\"37\",\"0\",\"Testing\",\"Stims/Figures/7-C-20-4.bmp\",\"nalana\",\"Left\",\"39\",\"2\",\"6\",\"4\",\"S\",\"C\",\"30\"
\"\",\"\",\"approach-retreat\",\"179\",\"1257480\",\"0.0-179.0\",\"\",\"\",\"1-3\",\"4302\",\"40\",\"1\",\"Testing\",\"Stims/Figures/128-J-10-3.bmp\",\"pa:pa:ka\",\"Down\",\"40\",\"2\",\"7\",\"4\",\"P\",\"C\",\"31\"
\"\",\"\",\"approach-retreat\",\"180\",\"1263051\",\"0.0-180.0\",\"\",\"\",\"1-3\",\"4023\",\"40\",\"1\",\"Testing\",\"Stims/Figures/7-J-10-4.bmp\",\"tapa:ka\",\"Down\",\"40\",\"2\",\"8\",\"4\",\"P\",\"C\",\"32\"
\"\",\"\",\"approach-retreat\",\"181\",\"1268785\",\"0.0-181.0\",\"\",\"\",\"1-3\",\"4200\",\"37\",\"1\",\"Testing\",\"Stims/Figures/100-J-10-3.bmp\",\"pa:kaka\",\"Left\",\"37\",\"2\",\"9\",\"4\",\"P\",\"C\",\"33\"
\"\",\"\",\"approach-retreat\",\"182\",\"1274459\",\"0.0-182.0\",\"\",\"\",\"1-3\",\"4130\",\"40\",\"1\",\"Testing\",\"Stims/Figures/118-J-0-2.bmp\",\"ta:kata\",\"Down\",\"40\",\"2\",\"10\",\"4\",\"P\",\"C\",\"34\"
\"\",\"\",\"approach-retreat\",\"183\",\"1280160\",\"0.0-183.0\",\"\",\"\",\"1-3\",\"4160\",\"39\",\"1\",\"Testing\",\"Stims/Figures/19-C-20-4.bmp\",\"na:la:la\",\"Left\",\"39\",\"2\",\"11\",\"4\",\"S\",\"C\",\"35\"
\"\",\"\",\"approach-retreat\",\"184\",\"1286572\",\"0.0-184.0\",\"\",\"\",\"1-3\",\"4879\",\"38\",\"1\",\"Testing\",\"Stims/Figures/87-J-10-4.bmp\",\"ta:paka\",\"Up\",\"38\",\"2\",\"12\",\"4\",\"P\",\"C\",\"36\"
\"\",\"\",\"approach-retreat\",\"185\",\"1292221\",\"0.0-185.0\",\"\",\"\",\"1-3\",\"4125\",\"37\",\"1\",\"Testing\",\"Stims/Figures/86-J-0-1.bmp\",\"taka:ka\",\"Left\",\"37\",\"2\",\"13\",\"4\",\"P\",\"C\",\"37\"
\"\",\"\",\"approach-retreat\",\"186\",\"1298583\",\"0.0-186.0\",\"\",\"\",\"1-3\",\"4818\",\"40\",\"1\",\"Testing\",\"Stims/Figures/94-C-20-2.bmp\",\"na:mala\",\"Up\",\"40\",\"2\",\"14\",\"4\",\"S\",\"C\",\"38\"
\"\",\"\",\"approach-retreat\",\"187\",\"1304335\",\"0.0-187.0\",\"\",\"\",\"1-3\",\"4221\",\"40\",\"1\",\"Testing\",\"Stims/Figures/94-J-0-2.bmp\",\"tapata\",\"Down\",\"40\",\"2\",\"15\",\"4\",\"P\",\"C\",\"39\"
\"\",\"\",\"approach-retreat\",\"188\",\"1310319\",\"0.0-188.0\",\"\",\"\",\"1-3\",\"4461\",\"39\",\"1\",\"Testing\",\"Stims/Figures/100-C-30-3.bmp\",\"ma:la:na\",\"Left\",\"39\",\"2\",\"16\",\"4\",\"S\",\"C\",\"40\"
\"\",\"\",\"approach-retreat\",\"189\",\"1316469\",\"0.0-189.0\",\"\",\"\",\"1-3\",\"4608\",\"38\",\"1\",\"Testing\",\"Stims/Figures/71-J-0-1.bmp\",\"pakaka\",\"Up\",\"38\",\"2\",\"17\",\"4\",\"P\",\"C\",\"41\"
\"\",\"\",\"approach-retreat\",\"190\",\"1322485\",\"0.0-190.0\",\"\",\"\",\"1-3\",\"4484\",\"37\",\"1\",\"Testing\",\"Stims/Figures/139-J-0-2.bmp\",\"pa:pa:ta\",\"Left\",\"37\",\"2\",\"18\",\"4\",\"P\",\"C\",\"42\"
\"\",\"\",\"approach-retreat\",\"191\",\"1328370\",\"0.0-191.0\",\"\",\"\",\"1-3\",\"4343\",\"38\",\"1\",\"Testing\",\"Stims/Figures/19-J-10-4.bmp\",\"papa:ka\",\"Up\",\"38\",\"2\",\"19\",\"4\",\"P\",\"C\",\"43\"
\"\",\"\",\"approach-retreat\",\"192\",\"1334219\",\"0.0-192.0\",\"\",\"\",\"1-3\",\"4314\",\"38\",\"1\",\"Testing\",\"Stims/Figures/144-J-10-3.bmp\",\"paka:ta\",\"Up\",\"38\",\"2\",\"20\",\"4\",\"P\",\"C\",\"44\"
\"\",\"\",\"approach-retreat\",\"193\",\"1340665\",\"0.0-193.0\",\"\",\"\",\"1-3\",\"4910\",\"37\",\"1\",\"Testing\",\"Stims/Figures/128-C-30-3.bmp\",\"ma:mala\",\"Right\",\"37\",\"2\",\"21\",\"4\",\"S\",\"C\",\"45\"
\"\",\"\",\"approach-retreat\",\"194\",\"1346404\",\"0.0-194.0\",\"\",\"\",\"1-3\",\"4195\",\"37\",\"1\",\"Testing\",\"Stims/Figures/118-C-20-2.bmp\",\"na:lala\",\"Right\",\"37\",\"2\",\"22\",\"4\",\"S\",\"C\",\"46\"
\"\",\"\",\"approach-retreat\",\"195\",\"1353405\",\"0.0-195.0\",\"\",\"\",\"1-3\",\"5465\",\"40\",\"1\",\"Testing\",\"Stims/Figures/144-C-30-3.bmp\",\"ma:mana\",\"Up\",\"40\",\"2\",\"23\",\"4\",\"S\",\"C\",\"47\"
\"\",\"\",\"approach-retreat\",\"196\",\"1359323\",\"0.0-196.0\",\"\",\"\",\"1-3\",\"4404\",\"37\",\"1\",\"Testing\",\"Stims/Figures/71-C-30-1.bmp\",\"na:mana\",\"Right\",\"37\",\"2\",\"24\",\"4\",\"S\",\"C\",\"48\"
\"\",\"\",\"approach-retreat\",\"197\",\"1365013\",\"0.0-197.0\",\"\",\"\",\"1-3\",\"4147\",\"39\",\"1\",\"Testing\",\"Stims/Figures/87-J-10-4.bmp\",\"ta:paka\",\"Right\",\"39\",\"3\",\"1\",\"4\",\"P\",\"C\",\"49\"
\"\",\"\",\"approach-retreat\",\"198\",\"1371156\",\"0.0-198.0\",\"\",\"\",\"1-3\",\"4618\",\"40\",\"1\",\"Testing\",\"Stims/Figures/19-J-10-4.bmp\",\"papa:ka\",\"Down\",\"40\",\"3\",\"2\",\"4\",\"P\",\"C\",\"50\"
\"\",\"\",\"approach-retreat\",\"199\",\"1377356\",\"0.0-199.0\",\"\",\"\",\"1-3\",\"4660\",\"39\",\"1\",\"Testing\",\"Stims/Figures/118-J-0-2.bmp\",\"ta:kata\",\"Right\",\"39\",\"3\",\"3\",\"4\",\"P\",\"C\",\"51\"
\"\",\"\",\"approach-retreat\",\"200\",\"1383101\",\"0.0-200.0\",\"\",\"\",\"1-3\",\"4216\",\"38\",\"1\",\"Testing\",\"Stims/Figures/94-J-0-2.bmp\",\"tapata\",\"Up\",\"38\",\"3\",\"4\",\"4\",\"P\",\"C\",\"52\"
\"\",\"\",\"approach-retreat\",\"201\",\"1389227\",\"0.0-201.0\",\"\",\"\",\"1-3\",\"4587\",\"37\",\"1\",\"Testing\",\"Stims/Figures/144-J-10-3.bmp\",\"paka:ta\",\"Left\",\"37\",\"3\",\"5\",\"4\",\"P\",\"C\",\"53\"
\"\",\"\",\"approach-retreat\",\"202\",\"1394781\",\"0.0-202.0\",\"\",\"\",\"1-3\",\"4016\",\"37\",\"1\",\"Testing\",\"Stims/Figures/57-J-0-1.bmp\",\"ta:pa:ta\",\"Left\",\"37\",\"3\",\"6\",\"4\",\"P\",\"C\",\"54\"
\"\",\"\",\"approach-retreat\",\"203\",\"1400838\",\"0.0-203.0\",\"\",\"\",\"1-3\",\"4522\",\"40\",\"1\",\"Testing\",\"Stims/Figures/71-J-0-1.bmp\",\"pakaka\",\"Down\",\"40\",\"3\",\"7\",\"4\",\"P\",\"C\",\"55\"
\"\",\"\",\"approach-retreat\",\"204\",\"1408887\",\"0.0-204.0\",\"\",\"\",\"1-3\",\"6509\",\"38\",\"1\",\"Testing\",\"Stims/Figures/139-C-20-2.bmp\",\"na:lana\",\"Down\",\"38\",\"3\",\"8\",\"4\",\"S\",\"C\",\"56\"
\"\",\"\",\"approach-retreat\",\"205\",\"1414641\",\"0.0-205.0\",\"\",\"\",\"1-3\",\"4214\",\"37\",\"1\",\"Testing\",\"Stims/Figures/139-J-0-2.bmp\",\"pa:pa:ta\",\"Left\",\"37\",\"3\",\"9\",\"4\",\"P\",\"C\",\"57\"
\"\",\"\",\"approach-retreat\",\"206\",\"1420484\",\"0.0-206.0\",\"\",\"\",\"1-3\",\"4308\",\"40\",\"1\",\"Testing\",\"Stims/Figures/94-C-20-2.bmp\",\"na:mala\",\"Up\",\"40\",\"3\",\"10\",\"4\",\"S\",\"C\",\"58\"
\"\",\"\",\"approach-retreat\",\"207\",\"1426932\",\"0.0-207.0\",\"\",\"\",\"1-3\",\"4912\",\"38\",\"1\",\"Testing\",\"Stims/Figures/100-C-30-3.bmp\",\"ma:la:na\",\"Down\",\"38\",\"3\",\"11\",\"4\",\"S\",\"C\",\"59\"
\"\",\"\",\"approach-retreat\",\"208\",\"1433429\",\"0.0-208.0\",\"\",\"\",\"1-3\",\"4941\",\"39\",\"1\",\"Testing\",\"Stims/Figures/7-J-10-4.bmp\",\"tapa:ka\",\"Right\",\"39\",\"3\",\"12\",\"4\",\"P\",\"C\",\"60\"
\"\",\"\",\"approach-retreat\",\"209\",\"1439357\",\"0.0-209.0\",\"\",\"\",\"1-3\",\"4383\",\"40\",\"1\",\"Testing\",\"Stims/Figures/118-C-20-2.bmp\",\"na:lala\",\"Up\",\"40\",\"3\",\"13\",\"4\",\"S\",\"C\",\"61\"
\"\",\"\",\"approach-retreat\",\"210\",\"1445254\",\"0.0-210.0\",\"\",\"\",\"1-3\",\"4353\",\"38\",\"1\",\"Testing\",\"Stims/Figures/100-J-10-3.bmp\",\"pa:kaka\",\"Up\",\"38\",\"3\",\"14\",\"4\",\"P\",\"C\",\"62\"
\"\",\"\",\"approach-retreat\",\"211\",\"1452303\",\"0.0-211.0\",\"\",\"\",\"1-3\",\"5507\",\"39\",\"1\",\"Testing\",\"Stims/Figures/7-C-20-4.bmp\",\"nalana\",\"Left\",\"39\",\"3\",\"15\",\"4\",\"S\",\"C\",\"63\"
\"\",\"\",\"approach-retreat\",\"212\",\"1458423\",\"0.0-212.0\",\"\",\"\",\"1-3\",\"4588\",\"39\",\"1\",\"Testing\",\"Stims/Figures/87-C-20-4.bmp\",\"namala\",\"Left\",\"39\",\"3\",\"16\",\"4\",\"S\",\"C\",\"64\"
\"\",\"\",\"approach-retreat\",\"213\",\"1464238\",\"0.0-213.0\",\"\",\"\",\"1-3\",\"4268\",\"38\",\"1\",\"Testing\",\"Stims/Figures/128-C-30-3.bmp\",\"ma:mala\",\"Down\",\"38\",\"3\",\"17\",\"4\",\"S\",\"C\",\"65\"
\"\",\"\",\"approach-retreat\",\"214\",\"1470258\",\"0.0-214.0\",\"\",\"\",\"1-3\",\"4495\",\"40\",\"1\",\"Testing\",\"Stims/Figures/19-C-20-4.bmp\",\"na:la:la\",\"Up\",\"40\",\"3\",\"18\",\"4\",\"S\",\"C\",\"66\"
\"\",\"\",\"approach-retreat\",\"215\",\"1477229\",\"0.0-215.0\",\"\",\"\",\"1-3\",\"5438\",\"39\",\"1\",\"Testing\",\"Stims/Figures/128-J-10-3.bmp\",\"pa:pa:ka\",\"Right\",\"39\",\"3\",\"19\",\"4\",\"P\",\"C\",\"67\"
\"\",\"\",\"approach-retreat\",\"216\",\"1483855\",\"0.0-216.0\",\"\",\"\",\"1-3\",\"5085\",\"37\",\"1\",\"Testing\",\"Stims/Figures/57-C-30-1.bmp\",\"ma:lala\",\"Right\",\"37\",\"3\",\"20\",\"4\",\"S\",\"C\",\"68\"
\"\",\"\",\"approach-retreat\",\"217\",\"1489705\",\"0.0-217.0\",\"\",\"\",\"1-3\",\"4305\",\"37\",\"1\",\"Testing\",\"Stims/Figures/86-C-30-1.bmp\",\"nama:na\",\"Right\",\"37\",\"3\",\"21\",\"4\",\"S\",\"C\",\"69\"
\"\",\"\",\"approach-retreat\",\"218\",\"1496023\",\"0.0-218.0\",\"\",\"\",\"1-3\",\"4774\",\"37\",\"1\",\"Testing\",\"Stims/Figures/86-J-0-1.bmp\",\"taka:ka\",\"Left\",\"37\",\"3\",\"22\",\"4\",\"P\",\"C\",\"70\"
\"\",\"\",\"approach-retreat\",\"219\",\"1501698\",\"0.0-219.0\",\"\",\"\",\"1-3\",\"4140\",\"40\",\"1\",\"Testing\",\"Stims/Figures/144-C-30-3.bmp\",\"ma:mana\",\"Up\",\"40\",\"3\",\"23\",\"4\",\"S\",\"C\",\"71\"
\"\",\"\",\"approach-retreat\",\"220\",\"1507788\",\"0.0-220.0\",\"\",\"\",\"1-3\",\"4556\",\"38\",\"1\",\"Testing\",\"Stims/Figures/71-C-30-1.bmp\",\"na:mana\",\"Down\",\"38\",\"3\",\"24\",\"4\",\"S\",\"C\",\"72\"
\"\",\"\",\"approach-retreat\",\"221\",\"1513403\",\"0.0-221.0\",\"\",\"\",\"1-3\",\"4078\",\"37\",\"1\",\"Testing\",\"Stims/Figures/118-C-20-2.bmp\",\"na:lala\",\"Right\",\"37\",\"4\",\"1\",\"4\",\"S\",\"C\",\"73\"
\"\",\"\",\"approach-retreat\",\"222\",\"1519540\",\"0.0-222.0\",\"\",\"\",\"1-3\",\"4606\",\"39\",\"1\",\"Testing\",\"Stims/Figures/57-C-30-1.bmp\",\"ma:lala\",\"Left\",\"39\",\"4\",\"2\",\"4\",\"S\",\"C\",\"74\"
\"\",\"\",\"approach-retreat\",\"223\",\"1526090\",\"0.0-223.0\",\"\",\"\",\"1-3\",\"5007\",\"40\",\"1\",\"Testing\",\"Stims/Figures/86-C-30-1.bmp\",\"nama:na\",\"Up\",\"40\",\"4\",\"3\",\"4\",\"S\",\"C\",\"75\"
\"\",\"\",\"approach-retreat\",\"224\",\"1531898\",\"0.0-224.0\",\"\",\"\",\"1-3\",\"4264\",\"39\",\"1\",\"Testing\",\"Stims/Figures/87-C-20-4.bmp\",\"namala\",\"Left\",\"39\",\"4\",\"4\",\"4\",\"S\",\"C\",\"76\"
\"\",\"\",\"approach-retreat\",\"225\",\"1538648\",\"0.0-225.0\",\"\",\"\",\"1-3\",\"5217\",\"38\",\"1\",\"Testing\",\"Stims/Figures/139-C-20-2.bmp\",\"na:lana\",\"Down\",\"38\",\"4\",\"5\",\"4\",\"S\",\"C\",\"77\"
\"\",\"\",\"approach-retreat\",\"226\",\"1544463\",\"0.0-226.0\",\"\",\"\",\"1-3\",\"4283\",\"37\",\"1\",\"Testing\",\"Stims/Figures/71-J-0-1.bmp\",\"pakaka\",\"Left\",\"37\",\"4\",\"6\",\"4\",\"P\",\"C\",\"78\"
\"\",\"\",\"approach-retreat\",\"227\",\"1550826\",\"0.0-227.0\",\"\",\"\",\"1-3\",\"4820\",\"38\",\"1\",\"Testing\",\"Stims/Figures/128-C-30-3.bmp\",\"ma:mala\",\"Down\",\"38\",\"4\",\"7\",\"4\",\"S\",\"C\",\"79\"
\"\",\"\",\"approach-retreat\",\"228\",\"1557240\",\"0.0-228.0\",\"\",\"\",\"1-3\",\"4872\",\"39\",\"1\",\"Testing\",\"Stims/Figures/7-C-20-4.bmp\",\"nalana\",\"Left\",\"39\",\"4\",\"8\",\"4\",\"S\",\"C\",\"80\"
\"\",\"\",\"approach-retreat\",\"229\",\"1564161\",\"0.0-229.0\",\"\",\"\",\"1-3\",\"5384\",\"39\",\"1\",\"Testing\",\"Stims/Figures/19-J-10-4.bmp\",\"papa:ka\",\"Right\",\"39\",\"4\",\"9\",\"4\",\"P\",\"C\",\"81\"
\"\",\"\",\"approach-retreat\",\"230\",\"1569911\",\"0.0-230.0\",\"\",\"\",\"1-3\",\"4204\",\"39\",\"1\",\"Testing\",\"Stims/Figures/86-J-0-1.bmp\",\"taka:ka\",\"Right\",\"39\",\"4\",\"10\",\"4\",\"P\",\"C\",\"82\"
\"\",\"\",\"approach-retreat\",\"231\",\"1575693\",\"0.0-231.0\",\"\",\"\",\"1-3\",\"4246\",\"40\",\"1\",\"Testing\",\"Stims/Figures/57-J-0-1.bmp\",\"ta:pa:ta\",\"Down\",\"40\",\"4\",\"11\",\"4\",\"P\",\"C\",\"83\"
\"\",\"\",\"approach-retreat\",\"232\",\"1581545\",\"0.0-232.0\",\"\",\"\",\"1-3\",\"4309\",\"40\",\"1\",\"Testing\",\"Stims/Figures/144-C-30-3.bmp\",\"ma:mana\",\"Up\",\"40\",\"4\",\"12\",\"4\",\"S\",\"C\",\"84\"
\"\",\"\",\"approach-retreat\",\"233\",\"1587370\",\"0.0-233.0\",\"\",\"\",\"1-3\",\"4280\",\"39\",\"1\",\"Testing\",\"Stims/Figures/94-C-20-2.bmp\",\"na:mala\",\"Left\",\"39\",\"4\",\"13\",\"4\",\"S\",\"C\",\"85\"
\"\",\"\",\"approach-retreat\",\"234\",\"1593123\",\"0.0-234.0\",\"\",\"\",\"1-3\",\"4220\",\"40\",\"1\",\"Testing\",\"Stims/Figures/71-C-30-1.bmp\",\"na:mana\",\"Up\",\"40\",\"4\",\"14\",\"4\",\"S\",\"C\",\"86\"
\"\",\"\",\"approach-retreat\",\"235\",\"1599014\",\"0.0-235.0\",\"\",\"\",\"1-3\",\"4353\",\"38\",\"1\",\"Testing\",\"Stims/Figures/128-J-10-3.bmp\",\"pa:pa:ka\",\"Up\",\"38\",\"4\",\"15\",\"4\",\"P\",\"C\",\"87\"
\"\",\"\",\"approach-retreat\",\"236\",\"1605578\",\"0.0-236.0\",\"\",\"\",\"1-3\",\"5032\",\"38\",\"1\",\"Testing\",\"Stims/Figures/7-J-10-4.bmp\",\"tapa:ka\",\"Up\",\"38\",\"4\",\"16\",\"4\",\"P\",\"C\",\"88\"
\"\",\"\",\"approach-retreat\",\"237\",\"1611376\",\"0.0-237.0\",\"\",\"\",\"1-3\",\"4258\",\"40\",\"1\",\"Testing\",\"Stims/Figures/144-J-10-3.bmp\",\"paka:ta\",\"Down\",\"40\",\"4\",\"17\",\"4\",\"P\",\"C\",\"89\"
\"\",\"\",\"approach-retreat\",\"238\",\"1617036\",\"0.0-238.0\",\"\",\"\",\"1-3\",\"4133\",\"40\",\"1\",\"Testing\",\"Stims/Figures/139-J-0-2.bmp\",\"pa:pa:ta\",\"Down\",\"40\",\"4\",\"18\",\"4\",\"P\",\"C\",\"90\"
\"\",\"\",\"approach-retreat\",\"239\",\"1623240\",\"0.0-239.0\",\"\",\"\",\"1-3\",\"4670\",\"38\",\"1\",\"Testing\",\"Stims/Figures/100-J-10-3.bmp\",\"pa:kaka\",\"Up\",\"38\",\"4\",\"19\",\"4\",\"P\",\"C\",\"91\"
\"\",\"\",\"approach-retreat\",\"240\",\"1628977\",\"0.0-240.0\",\"\",\"\",\"1-3\",\"4192\",\"39\",\"1\",\"Testing\",\"Stims/Figures/19-C-20-4.bmp\",\"na:la:la\",\"Left\",\"39\",\"4\",\"20\",\"4\",\"S\",\"C\",\"92\"
\"\",\"\",\"approach-retreat\",\"241\",\"1635254\",\"0.0-241.0\",\"\",\"\",\"1-3\",\"4747\",\"37\",\"1\",\"Testing\",\"Stims/Figures/100-C-30-3.bmp\",\"ma:la:na\",\"Right\",\"37\",\"4\",\"21\",\"4\",\"S\",\"C\",\"93\"
\"\",\"\",\"approach-retreat\",\"242\",\"1641762\",\"0.0-242.0\",\"\",\"\",\"1-3\",\"4964\",\"40\",\"1\",\"Testing\",\"Stims/Figures/87-J-10-4.bmp\",\"ta:paka\",\"Down\",\"40\",\"4\",\"22\",\"4\",\"P\",\"C\",\"94\"
\"\",\"\",\"approach-retreat\",\"243\",\"1647573\",\"0.0-243.0\",\"\",\"\",\"1-3\",\"4279\",\"39\",\"1\",\"Testing\",\"Stims/Figures/94-J-0-2.bmp\",\"tapata\",\"Right\",\"39\",\"4\",\"23\",\"4\",\"P\",\"C\",\"95\"
\"\",\"\",\"approach-retreat\",\"244\",\"1653804\",\"0.0-244.0\",\"\",\"\",\"1-3\",\"4699\",\"39\",\"1\",\"Testing\",\"Stims/Figures/118-J-0-2.bmp\",\"ta:kata\",\"Right\",\"39\",\"4\",\"24\",\"4\",\"P\",\"C\",\"96\"
\"44262\",\"\",\"survey-text\",\"245\",\"1698087\",\"0.0-245.0\",\"\",\"{\"\"Q0\"\":\"\"PS160010\"\"}\",\"\",\"\",\"\",\"\",\"\",\"\",\"\",\"\",\"\",\"\",\"\",\"\",\"\",\"\",\"\"
