\"rt\",\"key_press\",\"trial_type\",\"trial_index\",\"time_elapsed\",\"internal_node_id\",\"view_history\",\"responses\",\"Id\",\"Rt\",\"ResKeyCode\",\"ResCorr\",\"TrialType2\",\"Image\",\"Label\",\"Location\",\"CorrectResponse\",\"Block\",\"BlockTrial\",\"Condition\",\"LabelType\",\"Subcondition\",\"trialNum\"
\"141569\",\"32\",\"text\",\"0\",\"141579\",\"0.0-0.0-0.0\",\"\",\"\",\"\",\"\",\"\",\"\",\"\",\"\",\"\",\"\",\"\",\"\",\"\",\"\",\"\",\"\",\"\"
\"81038\",\"\",\"instructions\",\"1\",\"222622\",\"0.0-1.0\",\"[{\"\"page_index\"\":0,\"\"viewing_time\"\":81036}]\",\"\",\"\",\"\",\"\",\"\",\"\",\"\",\"\",\"\",\"\",\"\",\"\",\"\",\"\",\"\",\"\"
\"28574\",\"\",\"survey-multi-choice\",\"2\",\"251406\",\"0.0-2.0\",\"\",\"{\"\"Q0\"\":\"\"Da\"\",\"\"Q1\"\":\"\"Da\"\",\"\"Q2\"\":\"\"Da\"\",\"\"Q3\"\":\"\"Da\"\",\"\"Q4\"\":\"\"Da\"\",\"\"Q5\"\":\"\"Da\"\"}\",\"\",\"\",\"\",\"\",\"\",\"\",\"\",\"\",\"\",\"\",\"\",\"\",\"\",\"\",\"\"
\"\",\"\",\"bio\",\"3\",\"264828\",\"0.0-3.0\",\"\",\"{\"\"age\"\":\"\"21\"\",\"\"gender\"\":\"\"o\"\",\"\"specify\"\":\"\"\"\"}\",\"\",\"\",\"\",\"\",\"\",\"\",\"\",\"\",\"\",\"\",\"\",\"\",\"\",\"\",\"\"
\"\",\"\",\"approach-retreat\",\"4\",\"273358\",\"0.0-4.0\",\"\",\"\",\"3-3\",\"7000\",\"39\",\"0\",\"Training\",\"Stims/Figures/27-C-30-1.bmp\",\"None\",\"Right\",\"37\",\"1\",\"1\",\"10\",\"N\",\"C\",\"1\"
\"\",\"\",\"approach-retreat\",\"5\",\"280330\",\"0.0-5.0\",\"\",\"\",\"3-3\",\"5447\",\"38\",\"0\",\"Training\",\"Stims/Figures/100-J-10-3.bmp\",\"None\",\"Down\",\"40\",\"1\",\"2\",\"10\",\"N\",\"C\",\"2\"
\"\",\"\",\"approach-retreat\",\"6\",\"286372\",\"0.0-6.0\",\"\",\"\",\"3-3\",\"4520\",\"38\",\"0\",\"Training\",\"Stims/Figures/100-C-30-3.bmp\",\"None\",\"Up\",\"40\",\"1\",\"3\",\"10\",\"N\",\"C\",\"3\"
\"\",\"\",\"approach-retreat\",\"7\",\"292639\",\"0.0-7.0\",\"\",\"\",\"3-3\",\"4747\",\"38\",\"1\",\"Training\",\"Stims/Figures/87-J-10-4.bmp\",\"None\",\"Up\",\"38\",\"1\",\"4\",\"10\",\"N\",\"C\",\"4\"
\"\",\"\",\"approach-retreat\",\"8\",\"299050\",\"0.0-8.0\",\"\",\"\",\"3-3\",\"4891\",\"40\",\"1\",\"Training\",\"Stims/Figures/139-C-20-2.bmp\",\"None\",\"Up\",\"40\",\"1\",\"5\",\"10\",\"N\",\"C\",\"5\"
\"\",\"\",\"approach-retreat\",\"9\",\"304934\",\"0.0-9.0\",\"\",\"\",\"3-3\",\"4363\",\"38\",\"0\",\"Training\",\"Stims/Figures/139-J-0-2.bmp\",\"None\",\"Down\",\"40\",\"1\",\"6\",\"10\",\"N\",\"C\",\"6\"
\"\",\"\",\"approach-retreat\",\"10\",\"311874\",\"0.0-10.0\",\"\",\"\",\"3-3\",\"5420\",\"39\",\"1\",\"Training\",\"Stims/Figures/57-C-30-1.bmp\",\"None\",\"Left\",\"39\",\"1\",\"7\",\"10\",\"N\",\"C\",\"7\"
\"\",\"\",\"approach-retreat\",\"11\",\"317695\",\"0.0-11.0\",\"\",\"\",\"3-3\",\"4296\",\"37\",\"1\",\"Training\",\"Stims/Figures/44-J-10-3.bmp\",\"None\",\"Left\",\"37\",\"1\",\"8\",\"10\",\"N\",\"C\",\"8\"
\"\",\"\",\"approach-retreat\",\"12\",\"323271\",\"0.0-12.0\",\"\",\"\",\"3-3\",\"4055\",\"39\",\"0\",\"Training\",\"Stims/Figures/84-C-20-2.bmp\",\"None\",\"Right\",\"37\",\"1\",\"9\",\"10\",\"N\",\"C\",\"9\"
\"\",\"\",\"approach-retreat\",\"13\",\"328987\",\"0.0-13.0\",\"\",\"\",\"3-3\",\"4195\",\"40\",\"1\",\"Training\",\"Stims/Figures/27-J-0-1.bmp\",\"None\",\"Down\",\"40\",\"1\",\"10\",\"10\",\"N\",\"C\",\"10\"
\"\",\"\",\"approach-retreat\",\"14\",\"334719\",\"0.0-14.0\",\"\",\"\",\"3-3\",\"4215\",\"38\",\"0\",\"Training\",\"Stims/Figures/44-C-30-3.bmp\",\"None\",\"Up\",\"40\",\"1\",\"11\",\"10\",\"N\",\"C\",\"11\"
\"\",\"\",\"approach-retreat\",\"15\",\"340439\",\"0.0-15.0\",\"\",\"\",\"3-3\",\"4198\",\"38\",\"0\",\"Training\",\"Stims/Figures/84-J-0-2.bmp\",\"None\",\"Down\",\"40\",\"1\",\"12\",\"10\",\"N\",\"C\",\"12\"
\"\",\"\",\"approach-retreat\",\"16\",\"346872\",\"0.0-16.0\",\"\",\"\",\"3-3\",\"4912\",\"37\",\"1\",\"Training\",\"Stims/Figures/57-J-0-1.bmp\",\"None\",\"Left\",\"37\",\"1\",\"13\",\"10\",\"N\",\"C\",\"13\"
\"\",\"\",\"approach-retreat\",\"17\",\"352621\",\"0.0-17.0\",\"\",\"\",\"3-3\",\"4230\",\"39\",\"1\",\"Training\",\"Stims/Figures/87-C-20-4.bmp\",\"None\",\"Left\",\"39\",\"1\",\"14\",\"10\",\"N\",\"C\",\"14\"
\"\",\"\",\"approach-retreat\",\"18\",\"358284\",\"0.0-18.0\",\"\",\"\",\"3-3\",\"4142\",\"39\",\"1\",\"Training\",\"Stims/Figures/102-J-10-4.bmp\",\"None\",\"Right\",\"39\",\"1\",\"15\",\"10\",\"N\",\"C\",\"15\"
\"\",\"\",\"approach-retreat\",\"19\",\"363866\",\"0.0-19.0\",\"\",\"\",\"3-3\",\"4064\",\"39\",\"0\",\"Training\",\"Stims/Figures/102-C-20-4.bmp\",\"None\",\"Right\",\"37\",\"1\",\"16\",\"10\",\"N\",\"C\",\"16\"
\"\",\"\",\"approach-retreat\",\"20\",\"370244\",\"0.0-20.0\",\"\",\"\",\"3-3\",\"4838\",\"39\",\"1\",\"Training\",\"Stims/Figures/139-J-0-2.bmp\",\"None\",\"Right\",\"39\",\"2\",\"1\",\"10\",\"N\",\"C\",\"17\"
\"\",\"\",\"approach-retreat\",\"21\",\"375956\",\"0.0-21.0\",\"\",\"\",\"3-3\",\"4192\",\"38\",\"0\",\"Training\",\"Stims/Figures/44-J-10-3.bmp\",\"None\",\"Down\",\"40\",\"2\",\"2\",\"10\",\"N\",\"C\",\"18\"
\"\",\"\",\"approach-retreat\",\"22\",\"381833\",\"0.0-22.0\",\"\",\"\",\"3-3\",\"4358\",\"40\",\"1\",\"Training\",\"Stims/Figures/27-C-30-1.bmp\",\"None\",\"Up\",\"40\",\"2\",\"3\",\"10\",\"N\",\"C\",\"19\"
\"\",\"\",\"approach-retreat\",\"23\",\"387504\",\"0.0-23.0\",\"\",\"\",\"3-3\",\"4152\",\"37\",\"1\",\"Training\",\"Stims/Figures/27-J-0-1.bmp\",\"None\",\"Left\",\"37\",\"2\",\"4\",\"10\",\"N\",\"C\",\"20\"
\"\",\"\",\"approach-retreat\",\"24\",\"393366\",\"0.0-24.0\",\"\",\"\",\"3-3\",\"4343\",\"40\",\"0\",\"Training\",\"Stims/Figures/84-J-0-2.bmp\",\"None\",\"Up\",\"38\",\"2\",\"5\",\"10\",\"N\",\"C\",\"21\"
\"\",\"\",\"approach-retreat\",\"25\",\"399295\",\"0.0-25.0\",\"\",\"\",\"3-3\",\"4410\",\"37\",\"0\",\"Training\",\"Stims/Figures/102-J-10-4.bmp\",\"None\",\"Right\",\"39\",\"2\",\"6\",\"10\",\"N\",\"C\",\"22\"
\"\",\"\",\"approach-retreat\",\"26\",\"405241\",\"0.0-26.0\",\"\",\"\",\"3-3\",\"4424\",\"39\",\"1\",\"Training\",\"Stims/Figures/102-C-20-4.bmp\",\"None\",\"Left\",\"39\",\"2\",\"7\",\"10\",\"N\",\"C\",\"23\"
\"\",\"\",\"approach-retreat\",\"27\",\"411930\",\"0.0-27.0\",\"\",\"\",\"3-3\",\"5171\",\"39\",\"0\",\"Training\",\"Stims/Figures/57-J-0-1.bmp\",\"None\",\"Left\",\"37\",\"2\",\"8\",\"10\",\"N\",\"C\",\"24\"
\"\",\"\",\"approach-retreat\",\"28\",\"418107\",\"0.0-28.0\",\"\",\"\",\"3-3\",\"4657\",\"37\",\"1\",\"Training\",\"Stims/Figures/44-C-30-3.bmp\",\"None\",\"Right\",\"37\",\"2\",\"9\",\"10\",\"N\",\"C\",\"25\"
\"\",\"\",\"approach-retreat\",\"29\",\"424179\",\"0.0-29.0\",\"\",\"\",\"3-3\",\"4554\",\"40\",\"0\",\"Training\",\"Stims/Figures/87-C-20-4.bmp\",\"None\",\"Down\",\"38\",\"2\",\"10\",\"10\",\"N\",\"C\",\"26\"
\"\",\"\",\"approach-retreat\",\"30\",\"429952\",\"0.0-30.0\",\"\",\"\",\"3-3\",\"4252\",\"37\",\"1\",\"Training\",\"Stims/Figures/84-C-20-2.bmp\",\"None\",\"Right\",\"37\",\"2\",\"11\",\"10\",\"N\",\"C\",\"27\"
\"\",\"\",\"approach-retreat\",\"31\",\"435728\",\"0.0-31.0\",\"\",\"\",\"3-3\",\"4256\",\"38\",\"0\",\"Training\",\"Stims/Figures/139-C-20-2.bmp\",\"None\",\"Up\",\"40\",\"2\",\"12\",\"10\",\"N\",\"C\",\"28\"
\"\",\"\",\"approach-retreat\",\"32\",\"441901\",\"0.0-32.0\",\"\",\"\",\"3-3\",\"4653\",\"38\",\"0\",\"Training\",\"Stims/Figures/57-C-30-1.bmp\",\"None\",\"Up\",\"40\",\"2\",\"13\",\"10\",\"N\",\"C\",\"29\"
\"\",\"\",\"approach-retreat\",\"33\",\"447713\",\"0.0-33.0\",\"\",\"\",\"3-3\",\"4294\",\"37\",\"0\",\"Training\",\"Stims/Figures/100-C-30-3.bmp\",\"None\",\"Left\",\"39\",\"2\",\"14\",\"10\",\"N\",\"C\",\"30\"
\"\",\"\",\"approach-retreat\",\"34\",\"453431\",\"0.0-34.0\",\"\",\"\",\"3-3\",\"4200\",\"40\",\"1\",\"Training\",\"Stims/Figures/100-J-10-3.bmp\",\"None\",\"Down\",\"40\",\"2\",\"15\",\"10\",\"N\",\"C\",\"31\"
\"\",\"\",\"approach-retreat\",\"35\",\"459286\",\"0.0-35.0\",\"\",\"\",\"3-3\",\"4334\",\"40\",\"1\",\"Training\",\"Stims/Figures/87-J-10-4.bmp\",\"None\",\"Down\",\"40\",\"2\",\"16\",\"10\",\"N\",\"C\",\"32\"
\"\",\"\",\"approach-retreat\",\"36\",\"465181\",\"0.0-36.0\",\"\",\"\",\"3-3\",\"4377\",\"39\",\"0\",\"Training\",\"Stims/Figures/44-J-10-3.bmp\",\"None\",\"Left\",\"37\",\"3\",\"1\",\"10\",\"N\",\"C\",\"33\"
\"\",\"\",\"approach-retreat\",\"37\",\"471892\",\"0.0-37.0\",\"\",\"\",\"3-3\",\"5193\",\"39\",\"0\",\"Training\",\"Stims/Figures/102-C-20-4.bmp\",\"None\",\"Right\",\"37\",\"3\",\"2\",\"10\",\"N\",\"C\",\"34\"
\"\",\"\",\"approach-retreat\",\"38\",\"478595\",\"0.0-38.0\",\"\",\"\",\"3-3\",\"5182\",\"38\",\"1\",\"Training\",\"Stims/Figures/87-C-20-4.bmp\",\"None\",\"Down\",\"38\",\"3\",\"3\",\"10\",\"N\",\"C\",\"35\"
\"\",\"\",\"approach-retreat\",\"39\",\"484495\",\"0.0-39.0\",\"\",\"\",\"3-3\",\"4379\",\"40\",\"1\",\"Training\",\"Stims/Figures/27-C-30-1.bmp\",\"None\",\"Up\",\"40\",\"3\",\"4\",\"10\",\"N\",\"C\",\"36\"
\"\",\"\",\"approach-retreat\",\"40\",\"490439\",\"0.0-40.0\",\"\",\"\",\"3-3\",\"4426\",\"39\",\"0\",\"Training\",\"Stims/Figures/57-J-0-1.bmp\",\"None\",\"Left\",\"37\",\"3\",\"5\",\"10\",\"N\",\"C\",\"37\"
\"\",\"\",\"approach-retreat\",\"41\",\"496869\",\"0.0-41.0\",\"\",\"\",\"3-3\",\"4912\",\"38\",\"0\",\"Training\",\"Stims/Figures/27-J-0-1.bmp\",\"None\",\"Down\",\"40\",\"3\",\"6\",\"10\",\"N\",\"C\",\"38\"
\"\",\"\",\"approach-retreat\",\"42\",\"502575\",\"0.0-42.0\",\"\",\"\",\"3-3\",\"4188\",\"38\",\"0\",\"Training\",\"Stims/Figures/100-C-30-3.bmp\",\"None\",\"Up\",\"40\",\"3\",\"7\",\"10\",\"N\",\"C\",\"39\"
\"\",\"\",\"approach-retreat\",\"43\",\"508147\",\"0.0-43.0\",\"\",\"\",\"3-3\",\"4054\",\"39\",\"1\",\"Training\",\"Stims/Figures/84-J-0-2.bmp\",\"None\",\"Right\",\"39\",\"3\",\"8\",\"10\",\"N\",\"C\",\"40\"
\"\",\"\",\"approach-retreat\",\"44\",\"513713\",\"0.0-44.0\",\"\",\"\",\"3-3\",\"4047\",\"38\",\"0\",\"Training\",\"Stims/Figures/87-J-10-4.bmp\",\"None\",\"Down\",\"40\",\"3\",\"9\",\"10\",\"N\",\"C\",\"41\"
\"\",\"\",\"approach-retreat\",\"45\",\"519795\",\"0.0-45.0\",\"\",\"\",\"3-3\",\"4565\",\"37\",\"0\",\"Training\",\"Stims/Figures/139-J-0-2.bmp\",\"None\",\"Right\",\"39\",\"3\",\"10\",\"10\",\"N\",\"C\",\"42\"
\"\",\"\",\"approach-retreat\",\"46\",\"526066\",\"0.0-46.0\",\"\",\"\",\"3-3\",\"4754\",\"39\",\"0\",\"Training\",\"Stims/Figures/100-J-10-3.bmp\",\"None\",\"Left\",\"37\",\"3\",\"11\",\"10\",\"N\",\"C\",\"43\"
\"\",\"\",\"approach-retreat\",\"47\",\"533173\",\"0.0-47.0\",\"\",\"\",\"3-3\",\"5588\",\"40\",\"0\",\"Training\",\"Stims/Figures/139-C-20-2.bmp\",\"None\",\"Down\",\"38\",\"3\",\"12\",\"10\",\"N\",\"C\",\"44\"
\"\",\"\",\"approach-retreat\",\"48\",\"539985\",\"0.0-48.0\",\"\",\"\",\"3-3\",\"5294\",\"39\",\"1\",\"Training\",\"Stims/Figures/57-C-30-1.bmp\",\"None\",\"Left\",\"39\",\"3\",\"13\",\"10\",\"N\",\"C\",\"45\"
\"\",\"\",\"approach-retreat\",\"49\",\"546152\",\"0.0-49.0\",\"\",\"\",\"3-3\",\"4648\",\"40\",\"1\",\"Training\",\"Stims/Figures/84-C-20-2.bmp\",\"None\",\"Up\",\"40\",\"3\",\"14\",\"10\",\"N\",\"C\",\"46\"
\"\",\"\",\"approach-retreat\",\"50\",\"552073\",\"0.0-50.0\",\"\",\"\",\"3-3\",\"4402\",\"38\",\"1\",\"Training\",\"Stims/Figures/102-J-10-4.bmp\",\"None\",\"Up\",\"38\",\"3\",\"15\",\"10\",\"N\",\"C\",\"47\"
\"\",\"\",\"approach-retreat\",\"51\",\"558849\",\"0.0-51.0\",\"\",\"\",\"3-3\",\"5256\",\"37\",\"1\",\"Training\",\"Stims/Figures/44-C-30-3.bmp\",\"None\",\"Right\",\"37\",\"3\",\"16\",\"10\",\"N\",\"C\",\"48\"
\"\",\"\",\"approach-retreat\",\"52\",\"565713\",\"0.0-52.0\",\"\",\"\",\"3-3\",\"5343\",\"39\",\"1\",\"Training\",\"Stims/Figures/84-J-0-2.bmp\",\"None\",\"Right\",\"39\",\"4\",\"1\",\"10\",\"N\",\"C\",\"49\"
\"\",\"\",\"approach-retreat\",\"53\",\"573697\",\"0.0-53.0\",\"\",\"\",\"3-3\",\"6464\",\"39\",\"1\",\"Training\",\"Stims/Figures/102-C-20-4.bmp\",\"None\",\"Left\",\"39\",\"4\",\"2\",\"10\",\"N\",\"C\",\"50\"
\"\",\"\",\"approach-retreat\",\"54\",\"581518\",\"0.0-54.0\",\"\",\"\",\"3-3\",\"6299\",\"37\",\"1\",\"Training\",\"Stims/Figures/139-C-20-2.bmp\",\"None\",\"Right\",\"37\",\"4\",\"3\",\"10\",\"N\",\"C\",\"51\"
\"\",\"\",\"approach-retreat\",\"55\",\"587920\",\"0.0-55.0\",\"\",\"\",\"3-3\",\"4884\",\"39\",\"0\",\"Training\",\"Stims/Figures/57-J-0-1.bmp\",\"None\",\"Left\",\"37\",\"4\",\"4\",\"10\",\"N\",\"C\",\"52\"
\"\",\"\",\"approach-retreat\",\"56\",\"593539\",\"0.0-56.0\",\"\",\"\",\"3-3\",\"4099\",\"37\",\"0\",\"Training\",\"Stims/Figures/44-J-10-3.bmp\",\"None\",\"Right\",\"39\",\"4\",\"5\",\"10\",\"N\",\"C\",\"53\"
\"\",\"\",\"approach-retreat\",\"57\",\"600054\",\"0.0-57.0\",\"\",\"\",\"3-3\",\"4997\",\"38\",\"0\",\"Training\",\"Stims/Figures/100-C-30-3.bmp\",\"None\",\"Up\",\"40\",\"4\",\"6\",\"10\",\"N\",\"C\",\"54\"
\"\",\"\",\"approach-retreat\",\"58\",\"608041\",\"0.0-58.0\",\"\",\"\",\"3-3\",\"6467\",\"37\",\"0\",\"Training\",\"Stims/Figures/57-C-30-1.bmp\",\"None\",\"Left\",\"39\",\"4\",\"7\",\"10\",\"N\",\"C\",\"55\"
\"\",\"\",\"approach-retreat\",\"59\",\"613802\",\"0.0-59.0\",\"\",\"\",\"3-3\",\"4238\",\"40\",\"1\",\"Training\",\"Stims/Figures/139-J-0-2.bmp\",\"None\",\"Down\",\"40\",\"4\",\"8\",\"10\",\"N\",\"C\",\"56\"
\"\",\"\",\"approach-retreat\",\"60\",\"620699\",\"0.0-60.0\",\"\",\"\",\"3-3\",\"5379\",\"40\",\"1\",\"Training\",\"Stims/Figures/27-C-30-1.bmp\",\"None\",\"Up\",\"40\",\"4\",\"9\",\"10\",\"N\",\"C\",\"57\"
\"\",\"\",\"approach-retreat\",\"61\",\"627362\",\"0.0-61.0\",\"\",\"\",\"3-3\",\"5143\",\"40\",\"1\",\"Training\",\"Stims/Figures/84-C-20-2.bmp\",\"None\",\"Up\",\"40\",\"4\",\"10\",\"10\",\"N\",\"C\",\"58\"
\"\",\"\",\"approach-retreat\",\"62\",\"633074\",\"0.0-62.0\",\"\",\"\",\"3-3\",\"4187\",\"38\",\"1\",\"Training\",\"Stims/Figures/44-C-30-3.bmp\",\"None\",\"Down\",\"38\",\"4\",\"11\",\"10\",\"N\",\"C\",\"59\"
\"\",\"\",\"approach-retreat\",\"63\",\"639004\",\"0.0-63.0\",\"\",\"\",\"3-3\",\"4409\",\"38\",\"0\",\"Training\",\"Stims/Figures/87-C-20-4.bmp\",\"None\",\"Up\",\"40\",\"4\",\"12\",\"10\",\"N\",\"C\",\"60\"
\"\",\"\",\"approach-retreat\",\"64\",\"644640\",\"0.0-64.0\",\"\",\"\",\"3-3\",\"4099\",\"38\",\"0\",\"Training\",\"Stims/Figures/87-J-10-4.bmp\",\"None\",\"Down\",\"40\",\"4\",\"13\",\"10\",\"N\",\"C\",\"61\"
\"\",\"\",\"approach-retreat\",\"65\",\"650833\",\"0.0-65.0\",\"\",\"\",\"3-3\",\"4675\",\"38\",\"0\",\"Training\",\"Stims/Figures/102-J-10-4.bmp\",\"None\",\"Down\",\"40\",\"4\",\"14\",\"10\",\"N\",\"C\",\"62\"
\"\",\"\",\"approach-retreat\",\"66\",\"658159\",\"0.0-66.0\",\"\",\"\",\"3-3\",\"5806\",\"37\",\"0\",\"Training\",\"Stims/Figures/100-J-10-3.bmp\",\"None\",\"Right\",\"39\",\"4\",\"15\",\"10\",\"N\",\"C\",\"63\"
\"\",\"\",\"approach-retreat\",\"67\",\"667346\",\"0.0-67.0\",\"\",\"\",\"3-3\",\"7667\",\"39\",\"0\",\"Training\",\"Stims/Figures/27-J-0-1.bmp\",\"None\",\"Left\",\"37\",\"4\",\"16\",\"10\",\"N\",\"C\",\"64\"
\"\",\"\",\"approach-retreat\",\"68\",\"673489\",\"0.0-68.0\",\"\",\"\",\"3-3\",\"4624\",\"37\",\"1\",\"Training\",\"Stims/Figures/100-J-10-3.bmp\",\"None\",\"Left\",\"37\",\"5\",\"1\",\"10\",\"N\",\"C\",\"65\"
\"\",\"\",\"approach-retreat\",\"69\",\"680672\",\"0.0-69.0\",\"\",\"\",\"3-3\",\"5663\",\"40\",\"0\",\"Training\",\"Stims/Figures/57-J-0-1.bmp\",\"None\",\"Up\",\"38\",\"5\",\"2\",\"10\",\"N\",\"C\",\"66\"
\"\",\"\",\"approach-retreat\",\"70\",\"686300\",\"0.0-70.0\",\"\",\"\",\"3-3\",\"4106\",\"38\",\"1\",\"Training\",\"Stims/Figures/87-C-20-4.bmp\",\"None\",\"Down\",\"38\",\"5\",\"3\",\"10\",\"N\",\"C\",\"67\"
\"\",\"\",\"approach-retreat\",\"71\",\"692116\",\"0.0-71.0\",\"\",\"\",\"3-3\",\"4295\",\"38\",\"1\",\"Training\",\"Stims/Figures/100-C-30-3.bmp\",\"None\",\"Down\",\"38\",\"5\",\"4\",\"10\",\"N\",\"C\",\"68\"
\"\",\"\",\"approach-retreat\",\"72\",\"697840\",\"0.0-72.0\",\"\",\"\",\"3-3\",\"4204\",\"39\",\"1\",\"Training\",\"Stims/Figures/84-C-20-2.bmp\",\"None\",\"Left\",\"39\",\"5\",\"5\",\"10\",\"N\",\"C\",\"69\"
\"\",\"\",\"approach-retreat\",\"73\",\"703660\",\"0.0-73.0\",\"\",\"\",\"3-3\",\"4292\",\"37\",\"0\",\"Training\",\"Stims/Figures/102-J-10-4.bmp\",\"None\",\"Right\",\"39\",\"5\",\"6\",\"10\",\"N\",\"C\",\"70\"
\"\",\"\",\"approach-retreat\",\"74\",\"709149\",\"0.0-74.0\",\"\",\"\",\"3-3\",\"3969\",\"39\",\"0\",\"Training\",\"Stims/Figures/27-J-0-1.bmp\",\"None\",\"Left\",\"37\",\"5\",\"7\",\"10\",\"N\",\"C\",\"71\"
\"\",\"\",\"approach-retreat\",\"75\",\"714726\",\"0.0-75.0\",\"\",\"\",\"3-3\",\"4059\",\"37\",\"1\",\"Training\",\"Stims/Figures/57-C-30-1.bmp\",\"None\",\"Right\",\"37\",\"5\",\"8\",\"10\",\"N\",\"C\",\"72\"
\"\",\"\",\"approach-retreat\",\"76\",\"720541\",\"0.0-76.0\",\"\",\"\",\"3-3\",\"4295\",\"40\",\"0\",\"Training\",\"Stims/Figures/44-J-10-3.bmp\",\"None\",\"Up\",\"38\",\"5\",\"9\",\"10\",\"N\",\"C\",\"73\"
\"\",\"\",\"approach-retreat\",\"77\",\"726105\",\"0.0-77.0\",\"\",\"\",\"3-3\",\"4044\",\"37\",\"0\",\"Training\",\"Stims/Figures/139-J-0-2.bmp\",\"None\",\"Right\",\"39\",\"5\",\"10\",\"10\",\"N\",\"C\",\"74\"
\"\",\"\",\"approach-retreat\",\"78\",\"731747\",\"0.0-78.0\",\"\",\"\",\"3-3\",\"4124\",\"38\",\"1\",\"Training\",\"Stims/Figures/44-C-30-3.bmp\",\"None\",\"Down\",\"38\",\"5\",\"11\",\"10\",\"N\",\"C\",\"75\"
\"\",\"\",\"approach-retreat\",\"79\",\"737363\",\"0.0-79.0\",\"\",\"\",\"3-3\",\"4097\",\"39\",\"0\",\"Training\",\"Stims/Figures/84-J-0-2.bmp\",\"None\",\"Left\",\"37\",\"5\",\"12\",\"10\",\"N\",\"C\",\"76\"
\"\",\"\",\"approach-retreat\",\"80\",\"743729\",\"0.0-80.0\",\"\",\"\",\"3-3\",\"4847\",\"37\",\"1\",\"Training\",\"Stims/Figures/102-C-20-4.bmp\",\"None\",\"Right\",\"37\",\"5\",\"13\",\"10\",\"N\",\"C\",\"77\"
\"\",\"\",\"approach-retreat\",\"81\",\"750477\",\"0.0-81.0\",\"\",\"\",\"3-3\",\"5227\",\"38\",\"0\",\"Training\",\"Stims/Figures/27-C-30-1.bmp\",\"None\",\"Up\",\"40\",\"5\",\"14\",\"10\",\"N\",\"C\",\"78\"
\"\",\"\",\"approach-retreat\",\"82\",\"756532\",\"0.0-82.0\",\"\",\"\",\"3-3\",\"4536\",\"38\",\"1\",\"Training\",\"Stims/Figures/87-J-10-4.bmp\",\"None\",\"Up\",\"38\",\"5\",\"15\",\"10\",\"N\",\"C\",\"79\"
\"\",\"\",\"approach-retreat\",\"83\",\"762270\",\"0.0-83.0\",\"\",\"\",\"3-3\",\"4218\",\"38\",\"1\",\"Training\",\"Stims/Figures/139-C-20-2.bmp\",\"None\",\"Down\",\"38\",\"5\",\"16\",\"10\",\"N\",\"C\",\"80\"
\"\",\"\",\"approach-retreat\",\"84\",\"768411\",\"0.0-84.0\",\"\",\"\",\"3-3\",\"4620\",\"37\",\"0\",\"Training\",\"Stims/Figures/100-J-10-3.bmp\",\"None\",\"Right\",\"39\",\"6\",\"1\",\"10\",\"N\",\"C\",\"81\"
\"\",\"\",\"approach-retreat\",\"85\",\"774978\",\"0.0-85.0\",\"\",\"\",\"3-3\",\"5045\",\"37\",\"0\",\"Training\",\"Stims/Figures/27-J-0-1.bmp\",\"None\",\"Right\",\"39\",\"6\",\"2\",\"10\",\"N\",\"C\",\"82\"
\"\",\"\",\"approach-retreat\",\"86\",\"780701\",\"0.0-86.0\",\"\",\"\",\"3-3\",\"4200\",\"38\",\"1\",\"Training\",\"Stims/Figures/139-C-20-2.bmp\",\"None\",\"Down\",\"38\",\"6\",\"3\",\"10\",\"N\",\"C\",\"83\"
\"\",\"\",\"approach-retreat\",\"87\",\"786456\",\"0.0-87.0\",\"\",\"\",\"3-3\",\"4235\",\"38\",\"1\",\"Training\",\"Stims/Figures/139-J-0-2.bmp\",\"None\",\"Up\",\"38\",\"6\",\"4\",\"10\",\"N\",\"C\",\"84\"
\"\",\"\",\"approach-retreat\",\"88\",\"792066\",\"0.0-88.0\",\"\",\"\",\"3-3\",\"4091\",\"38\",\"1\",\"Training\",\"Stims/Figures/100-C-30-3.bmp\",\"None\",\"Down\",\"38\",\"6\",\"5\",\"10\",\"N\",\"C\",\"85\"
\"\",\"\",\"approach-retreat\",\"89\",\"797891\",\"0.0-89.0\",\"\",\"\",\"3-3\",\"4300\",\"37\",\"1\",\"Training\",\"Stims/Figures/84-C-20-2.bmp\",\"None\",\"Right\",\"37\",\"6\",\"6\",\"10\",\"N\",\"C\",\"86\"
\"\",\"\",\"approach-retreat\",\"90\",\"803626\",\"0.0-90.0\",\"\",\"\",\"3-3\",\"4213\",\"40\",\"1\",\"Training\",\"Stims/Figures/27-C-30-1.bmp\",\"None\",\"Up\",\"40\",\"6\",\"7\",\"10\",\"N\",\"C\",\"87\"
\"\",\"\",\"approach-retreat\",\"91\",\"809350\",\"0.0-91.0\",\"\",\"\",\"3-3\",\"4203\",\"39\",\"1\",\"Training\",\"Stims/Figures/57-J-0-1.bmp\",\"None\",\"Right\",\"39\",\"6\",\"8\",\"10\",\"N\",\"C\",\"88\"
\"\",\"\",\"approach-retreat\",\"92\",\"815131\",\"0.0-92.0\",\"\",\"\",\"3-3\",\"4261\",\"40\",\"1\",\"Training\",\"Stims/Figures/84-J-0-2.bmp\",\"None\",\"Down\",\"40\",\"6\",\"9\",\"10\",\"N\",\"C\",\"89\"
\"\",\"\",\"approach-retreat\",\"93\",\"820832\",\"0.0-93.0\",\"\",\"\",\"3-3\",\"4182\",\"37\",\"1\",\"Training\",\"Stims/Figures/102-J-10-4.bmp\",\"None\",\"Left\",\"37\",\"6\",\"10\",\"10\",\"N\",\"C\",\"90\"
\"\",\"\",\"approach-retreat\",\"94\",\"826625\",\"0.0-94.0\",\"\",\"\",\"3-3\",\"4274\",\"40\",\"1\",\"Training\",\"Stims/Figures/44-J-10-3.bmp\",\"None\",\"Down\",\"40\",\"6\",\"11\",\"10\",\"N\",\"C\",\"91\"
\"\",\"\",\"approach-retreat\",\"95\",\"833306\",\"0.0-95.0\",\"\",\"\",\"3-3\",\"5162\",\"37\",\"0\",\"Training\",\"Stims/Figures/102-C-20-4.bmp\",\"None\",\"Left\",\"39\",\"6\",\"12\",\"10\",\"N\",\"C\",\"92\"
\"\",\"\",\"approach-retreat\",\"96\",\"838981\",\"0.0-96.0\",\"\",\"\",\"3-3\",\"4154\",\"39\",\"1\",\"Training\",\"Stims/Figures/57-C-30-1.bmp\",\"None\",\"Left\",\"39\",\"6\",\"13\",\"10\",\"N\",\"C\",\"93\"
\"\",\"\",\"approach-retreat\",\"97\",\"844711\",\"0.0-97.0\",\"\",\"\",\"3-3\",\"4211\",\"40\",\"1\",\"Training\",\"Stims/Figures/87-C-20-4.bmp\",\"None\",\"Up\",\"40\",\"6\",\"14\",\"10\",\"N\",\"C\",\"94\"
\"\",\"\",\"approach-retreat\",\"98\",\"850413\",\"0.0-98.0\",\"\",\"\",\"3-3\",\"4183\",\"38\",\"1\",\"Training\",\"Stims/Figures/87-J-10-4.bmp\",\"None\",\"Up\",\"38\",\"6\",\"15\",\"10\",\"N\",\"C\",\"95\"
\"\",\"\",\"approach-retreat\",\"99\",\"857034\",\"0.0-99.0\",\"\",\"\",\"3-3\",\"5096\",\"39\",\"1\",\"Training\",\"Stims/Figures/44-C-30-3.bmp\",\"None\",\"Left\",\"39\",\"6\",\"16\",\"10\",\"N\",\"C\",\"96\"
\"\",\"\",\"approach-retreat\",\"100\",\"862694\",\"0.0-100.0\",\"\",\"\",\"3-3\",\"4143\",\"38\",\"0\",\"Training\",\"Stims/Figures/84-C-20-2.bmp\",\"None\",\"Up\",\"40\",\"7\",\"1\",\"10\",\"N\",\"C\",\"97\"
\"\",\"\",\"approach-retreat\",\"101\",\"868305\",\"0.0-101.0\",\"\",\"\",\"3-3\",\"4091\",\"38\",\"1\",\"Training\",\"Stims/Figures/57-C-30-1.bmp\",\"None\",\"Down\",\"38\",\"7\",\"2\",\"10\",\"N\",\"C\",\"98\"
\"\",\"\",\"approach-retreat\",\"102\",\"874255\",\"0.0-102.0\",\"\",\"\",\"3-3\",\"4429\",\"37\",\"1\",\"Training\",\"Stims/Figures/57-J-0-1.bmp\",\"None\",\"Left\",\"37\",\"7\",\"3\",\"10\",\"N\",\"C\",\"99\"
\"\",\"\",\"approach-retreat\",\"103\",\"880044\",\"0.0-103.0\",\"\",\"\",\"3-3\",\"4267\",\"39\",\"1\",\"Training\",\"Stims/Figures/139-J-0-2.bmp\",\"None\",\"Right\",\"39\",\"7\",\"4\",\"10\",\"N\",\"C\",\"100\"
\"\",\"\",\"approach-retreat\",\"104\",\"885785\",\"0.0-104.0\",\"\",\"\",\"3-3\",\"4218\",\"39\",\"1\",\"Training\",\"Stims/Figures/87-C-20-4.bmp\",\"None\",\"Left\",\"39\",\"7\",\"5\",\"10\",\"N\",\"C\",\"101\"
\"\",\"\",\"approach-retreat\",\"105\",\"891421\",\"0.0-105.0\",\"\",\"\",\"3-3\",\"4116\",\"40\",\"1\",\"Training\",\"Stims/Figures/84-J-0-2.bmp\",\"None\",\"Down\",\"40\",\"7\",\"6\",\"10\",\"N\",\"C\",\"102\"
\"\",\"\",\"approach-retreat\",\"106\",\"896996\",\"0.0-106.0\",\"\",\"\",\"3-3\",\"4057\",\"38\",\"1\",\"Training\",\"Stims/Figures/27-J-0-1.bmp\",\"None\",\"Up\",\"38\",\"7\",\"7\",\"10\",\"N\",\"C\",\"103\"
\"\",\"\",\"approach-retreat\",\"107\",\"902723\",\"0.0-107.0\",\"\",\"\",\"3-3\",\"4204\",\"40\",\"1\",\"Training\",\"Stims/Figures/44-C-30-3.bmp\",\"None\",\"Up\",\"40\",\"7\",\"8\",\"10\",\"N\",\"C\",\"104\"
\"\",\"\",\"approach-retreat\",\"108\",\"908515\",\"0.0-108.0\",\"\",\"\",\"3-3\",\"4273\",\"38\",\"1\",\"Training\",\"Stims/Figures/27-C-30-1.bmp\",\"None\",\"Down\",\"38\",\"7\",\"9\",\"10\",\"N\",\"C\",\"105\"
\"\",\"\",\"approach-retreat\",\"109\",\"914409\",\"0.0-109.0\",\"\",\"\",\"3-3\",\"4367\",\"38\",\"1\",\"Training\",\"Stims/Figures/44-J-10-3.bmp\",\"None\",\"Up\",\"38\",\"7\",\"10\",\"10\",\"N\",\"C\",\"106\"
\"\",\"\",\"approach-retreat\",\"110\",\"920462\",\"0.0-110.0\",\"\",\"\",\"3-3\",\"4535\",\"37\",\"1\",\"Training\",\"Stims/Figures/102-C-20-4.bmp\",\"None\",\"Right\",\"37\",\"7\",\"11\",\"10\",\"N\",\"C\",\"107\"
\"\",\"\",\"approach-retreat\",\"111\",\"926380\",\"0.0-111.0\",\"\",\"\",\"3-3\",\"4397\",\"37\",\"1\",\"Training\",\"Stims/Figures/139-C-20-2.bmp\",\"None\",\"Right\",\"37\",\"7\",\"12\",\"10\",\"N\",\"C\",\"108\"
\"\",\"\",\"approach-retreat\",\"112\",\"932905\",\"0.0-112.0\",\"\",\"\",\"3-3\",\"5006\",\"37\",\"1\",\"Training\",\"Stims/Figures/100-C-30-3.bmp\",\"None\",\"Right\",\"37\",\"7\",\"13\",\"10\",\"N\",\"C\",\"109\"
\"\",\"\",\"approach-retreat\",\"113\",\"938883\",\"0.0-113.0\",\"\",\"\",\"3-3\",\"4428\",\"37\",\"1\",\"Training\",\"Stims/Figures/102-J-10-4.bmp\",\"None\",\"Left\",\"37\",\"7\",\"14\",\"10\",\"N\",\"C\",\"110\"
\"\",\"\",\"approach-retreat\",\"114\",\"945322\",\"0.0-114.0\",\"\",\"\",\"3-3\",\"4904\",\"37\",\"1\",\"Training\",\"Stims/Figures/87-J-10-4.bmp\",\"None\",\"Left\",\"37\",\"7\",\"15\",\"10\",\"N\",\"C\",\"111\"
\"\",\"\",\"approach-retreat\",\"115\",\"951863\",\"0.0-115.0\",\"\",\"\",\"3-3\",\"5019\",\"40\",\"1\",\"Training\",\"Stims/Figures/100-J-10-3.bmp\",\"None\",\"Down\",\"40\",\"7\",\"16\",\"10\",\"N\",\"C\",\"112\"
\"\",\"\",\"approach-retreat\",\"116\",\"958918\",\"0.0-116.0\",\"\",\"\",\"3-3\",\"5536\",\"37\",\"1\",\"Training\",\"Stims/Figures/44-J-10-3.bmp\",\"None\",\"Left\",\"37\",\"8\",\"1\",\"10\",\"N\",\"C\",\"113\"
\"\",\"\",\"approach-retreat\",\"117\",\"965692\",\"0.0-117.0\",\"\",\"\",\"3-3\",\"5252\",\"39\",\"1\",\"Training\",\"Stims/Figures/102-C-20-4.bmp\",\"None\",\"Left\",\"39\",\"8\",\"2\",\"10\",\"N\",\"C\",\"114\"
\"\",\"\",\"approach-retreat\",\"118\",\"971781\",\"0.0-118.0\",\"\",\"\",\"3-3\",\"4567\",\"40\",\"1\",\"Training\",\"Stims/Figures/84-J-0-2.bmp\",\"None\",\"Down\",\"40\",\"8\",\"3\",\"10\",\"N\",\"C\",\"115\"
\"\",\"\",\"approach-retreat\",\"119\",\"978022\",\"0.0-119.0\",\"\",\"\",\"3-3\",\"4720\",\"38\",\"1\",\"Training\",\"Stims/Figures/27-C-30-1.bmp\",\"None\",\"Down\",\"38\",\"8\",\"4\",\"10\",\"N\",\"C\",\"116\"
\"\",\"\",\"approach-retreat\",\"120\",\"983642\",\"0.0-120.0\",\"\",\"\",\"3-3\",\"4103\",\"40\",\"1\",\"Training\",\"Stims/Figures/139-C-20-2.bmp\",\"None\",\"Up\",\"40\",\"8\",\"5\",\"10\",\"N\",\"C\",\"117\"
\"\",\"\",\"approach-retreat\",\"121\",\"990706\",\"0.0-121.0\",\"\",\"\",\"3-3\",\"5545\",\"40\",\"1\",\"Training\",\"Stims/Figures/87-C-20-4.bmp\",\"None\",\"Up\",\"40\",\"8\",\"6\",\"10\",\"N\",\"C\",\"118\"
\"\",\"\",\"approach-retreat\",\"122\",\"996323\",\"0.0-122.0\",\"\",\"\",\"3-3\",\"4095\",\"38\",\"1\",\"Training\",\"Stims/Figures/100-C-30-3.bmp\",\"None\",\"Down\",\"38\",\"8\",\"7\",\"10\",\"N\",\"C\",\"119\"
\"\",\"\",\"approach-retreat\",\"123\",\"1001903\",\"0.0-123.0\",\"\",\"\",\"3-3\",\"4060\",\"39\",\"1\",\"Training\",\"Stims/Figures/100-J-10-3.bmp\",\"None\",\"Right\",\"39\",\"8\",\"8\",\"10\",\"N\",\"C\",\"120\"
\"\",\"\",\"approach-retreat\",\"124\",\"1007466\",\"0.0-124.0\",\"\",\"\",\"3-3\",\"4043\",\"37\",\"1\",\"Training\",\"Stims/Figures/102-J-10-4.bmp\",\"None\",\"Left\",\"37\",\"8\",\"9\",\"10\",\"N\",\"C\",\"121\"
\"\",\"\",\"approach-retreat\",\"125\",\"1013219\",\"0.0-125.0\",\"\",\"\",\"3-3\",\"4233\",\"40\",\"1\",\"Training\",\"Stims/Figures/57-C-30-1.bmp\",\"None\",\"Up\",\"40\",\"8\",\"10\",\"10\",\"N\",\"C\",\"122\"
\"\",\"\",\"approach-retreat\",\"126\",\"1018826\",\"0.0-126.0\",\"\",\"\",\"3-3\",\"4088\",\"39\",\"1\",\"Training\",\"Stims/Figures/87-J-10-4.bmp\",\"None\",\"Right\",\"39\",\"8\",\"11\",\"10\",\"N\",\"C\",\"123\"
\"\",\"\",\"approach-retreat\",\"127\",\"1024433\",\"0.0-127.0\",\"\",\"\",\"3-3\",\"4089\",\"39\",\"1\",\"Training\",\"Stims/Figures/57-J-0-1.bmp\",\"None\",\"Right\",\"39\",\"8\",\"12\",\"10\",\"N\",\"C\",\"124\"
\"\",\"\",\"approach-retreat\",\"128\",\"1030593\",\"0.0-128.0\",\"\",\"\",\"3-3\",\"4642\",\"38\",\"1\",\"Training\",\"Stims/Figures/84-C-20-2.bmp\",\"None\",\"Down\",\"38\",\"8\",\"13\",\"10\",\"N\",\"C\",\"125\"
\"\",\"\",\"approach-retreat\",\"129\",\"1036294\",\"0.0-129.0\",\"\",\"\",\"3-3\",\"4182\",\"37\",\"1\",\"Training\",\"Stims/Figures/27-J-0-1.bmp\",\"None\",\"Left\",\"37\",\"8\",\"14\",\"10\",\"N\",\"C\",\"126\"
\"\",\"\",\"approach-retreat\",\"130\",\"1041975\",\"0.0-130.0\",\"\",\"\",\"3-3\",\"4163\",\"40\",\"1\",\"Training\",\"Stims/Figures/44-C-30-3.bmp\",\"None\",\"Up\",\"40\",\"8\",\"15\",\"10\",\"N\",\"C\",\"127\"
\"\",\"\",\"approach-retreat\",\"131\",\"1048026\",\"0.0-131.0\",\"\",\"\",\"3-3\",\"4528\",\"39\",\"1\",\"Training\",\"Stims/Figures/139-J-0-2.bmp\",\"None\",\"Right\",\"39\",\"8\",\"16\",\"10\",\"N\",\"C\",\"128\"
\"\",\"\",\"approach-retreat\",\"132\",\"1053674\",\"0.0-132.0\",\"\",\"\",\"3-3\",\"4127\",\"40\",\"1\",\"Training\",\"Stims/Figures/27-J-0-1.bmp\",\"None\",\"Down\",\"40\",\"9\",\"1\",\"10\",\"N\",\"C\",\"129\"
\"\",\"\",\"approach-retreat\",\"133\",\"1059340\",\"0.0-133.0\",\"\",\"\",\"3-3\",\"4145\",\"39\",\"1\",\"Training\",\"Stims/Figures/44-J-10-3.bmp\",\"None\",\"Right\",\"39\",\"9\",\"2\",\"10\",\"N\",\"C\",\"130\"
\"\",\"\",\"approach-retreat\",\"134\",\"1065411\",\"0.0-134.0\",\"\",\"\",\"3-3\",\"4549\",\"39\",\"1\",\"Training\",\"Stims/Figures/139-C-20-2.bmp\",\"None\",\"Left\",\"39\",\"9\",\"3\",\"10\",\"N\",\"C\",\"131\"
\"\",\"\",\"approach-retreat\",\"135\",\"1071671\",\"0.0-135.0\",\"\",\"\",\"3-3\",\"4741\",\"40\",\"0\",\"Training\",\"Stims/Figures/100-J-10-3.bmp\",\"None\",\"Up\",\"38\",\"9\",\"4\",\"10\",\"N\",\"C\",\"132\"
\"\",\"\",\"approach-retreat\",\"136\",\"1077424\",\"0.0-136.0\",\"\",\"\",\"3-3\",\"4233\",\"40\",\"0\",\"Training\",\"Stims/Figures/57-C-30-1.bmp\",\"None\",\"Down\",\"38\",\"9\",\"5\",\"10\",\"N\",\"C\",\"133\"
\"\",\"\",\"approach-retreat\",\"137\",\"1083150\",\"0.0-137.0\",\"\",\"\",\"3-3\",\"4206\",\"37\",\"1\",\"Training\",\"Stims/Figures/87-J-10-4.bmp\",\"None\",\"Left\",\"37\",\"9\",\"6\",\"10\",\"N\",\"C\",\"134\"
\"\",\"\",\"approach-retreat\",\"138\",\"1088834\",\"0.0-138.0\",\"\",\"\",\"3-3\",\"4164\",\"38\",\"1\",\"Training\",\"Stims/Figures/27-C-30-1.bmp\",\"None\",\"Down\",\"38\",\"9\",\"7\",\"10\",\"N\",\"C\",\"135\"
\"\",\"\",\"approach-retreat\",\"139\",\"1094623\",\"0.0-139.0\",\"\",\"\",\"3-3\",\"4272\",\"40\",\"0\",\"Training\",\"Stims/Figures/139-J-0-2.bmp\",\"None\",\"Up\",\"38\",\"9\",\"8\",\"10\",\"N\",\"C\",\"136\"
\"\",\"\",\"approach-retreat\",\"140\",\"1100528\",\"0.0-140.0\",\"\",\"\",\"3-3\",\"4376\",\"39\",\"1\",\"Training\",\"Stims/Figures/102-J-10-4.bmp\",\"None\",\"Right\",\"39\",\"9\",\"9\",\"10\",\"N\",\"C\",\"137\"
\"\",\"\",\"approach-retreat\",\"141\",\"1106235\",\"0.0-141.0\",\"\",\"\",\"3-3\",\"4181\",\"40\",\"1\",\"Training\",\"Stims/Figures/100-C-30-3.bmp\",\"None\",\"Up\",\"40\",\"9\",\"10\",\"10\",\"N\",\"C\",\"138\"
\"\",\"\",\"approach-retreat\",\"142\",\"1111930\",\"0.0-142.0\",\"\",\"\",\"3-3\",\"4169\",\"40\",\"1\",\"Training\",\"Stims/Figures/44-C-30-3.bmp\",\"None\",\"Up\",\"40\",\"9\",\"11\",\"10\",\"N\",\"C\",\"139\"
\"\",\"\",\"approach-retreat\",\"143\",\"1117623\",\"0.0-143.0\",\"\",\"\",\"3-3\",\"4174\",\"38\",\"1\",\"Training\",\"Stims/Figures/102-C-20-4.bmp\",\"None\",\"Down\",\"38\",\"9\",\"12\",\"10\",\"N\",\"C\",\"140\"
\"\",\"\",\"approach-retreat\",\"144\",\"1123379\",\"0.0-144.0\",\"\",\"\",\"3-3\",\"4237\",\"37\",\"1\",\"Training\",\"Stims/Figures/87-C-20-4.bmp\",\"None\",\"Right\",\"37\",\"9\",\"13\",\"10\",\"N\",\"C\",\"141\"
\"\",\"\",\"approach-retreat\",\"145\",\"1129090\",\"0.0-145.0\",\"\",\"\",\"3-3\",\"4191\",\"39\",\"1\",\"Training\",\"Stims/Figures/84-C-20-2.bmp\",\"None\",\"Left\",\"39\",\"9\",\"14\",\"10\",\"N\",\"C\",\"142\"
\"\",\"\",\"approach-retreat\",\"146\",\"1135331\",\"0.0-146.0\",\"\",\"\",\"3-3\",\"4723\",\"39\",\"1\",\"Training\",\"Stims/Figures/84-J-0-2.bmp\",\"None\",\"Right\",\"39\",\"9\",\"15\",\"10\",\"N\",\"C\",\"143\"
\"\",\"\",\"approach-retreat\",\"147\",\"1141044\",\"0.0-147.0\",\"\",\"\",\"3-3\",\"4190\",\"37\",\"1\",\"Training\",\"Stims/Figures/57-J-0-1.bmp\",\"None\",\"Left\",\"37\",\"9\",\"16\",\"10\",\"N\",\"C\",\"144\"
\"17157\",\"\",\"instructions\",\"148\",\"1158203\",\"0.0-148.0\",\"[{\"\"page_index\"\":0,\"\"viewing_time\"\":17156}]\",\"\",\"\",\"\",\"\",\"\",\"\",\"\",\"\",\"\",\"\",\"\",\"\",\"\",\"\",\"\",\"\"
\"\",\"\",\"approach-retreat\",\"149\",\"1163835\",\"0.0-149.0\",\"\",\"\",\"3-3\",\"4117\",\"37\",\"1\",\"Testing\",\"Stims/Figures/102-J-10-4.bmp\",\"None\",\"Left\",\"37\",\"1\",\"1\",\"10\",\"N\",\"C\",\"1\"
\"\",\"\",\"approach-retreat\",\"150\",\"1169669\",\"0.0-150.0\",\"\",\"\",\"3-3\",\"4314\",\"40\",\"1\",\"Testing\",\"Stims/Figures/139-J-0-2.bmp\",\"None\",\"Down\",\"40\",\"1\",\"2\",\"10\",\"N\",\"C\",\"2\"
\"\",\"\",\"approach-retreat\",\"151\",\"1177489\",\"0.0-151.0\",\"\",\"\",\"3-3\",\"6304\",\"40\",\"1\",\"Testing\",\"Stims/Figures/7-J-10-4.bmp\",\"None\",\"Down\",\"40\",\"1\",\"3\",\"10\",\"N\",\"C\",\"3\"
\"\",\"\",\"approach-retreat\",\"152\",\"1183247\",\"0.0-152.0\",\"\",\"\",\"3-3\",\"4241\",\"40\",\"1\",\"Testing\",\"Stims/Figures/100-C-30-3.bmp\",\"None\",\"Up\",\"40\",\"1\",\"4\",\"10\",\"N\",\"C\",\"4\"
\"\",\"\",\"approach-retreat\",\"153\",\"1188764\",\"0.0-153.0\",\"\",\"\",\"3-3\",\"4000\",\"40\",\"1\",\"Testing\",\"Stims/Figures/128-C-30-3.bmp\",\"None\",\"Up\",\"40\",\"1\",\"5\",\"10\",\"N\",\"C\",\"5\"
\"\",\"\",\"approach-retreat\",\"154\",\"1194817\",\"0.0-154.0\",\"\",\"\",\"3-3\",\"4535\",\"40\",\"1\",\"Testing\",\"Stims/Figures/87-J-10-4.bmp\",\"None\",\"Down\",\"40\",\"1\",\"6\",\"10\",\"N\",\"C\",\"6\"
\"\",\"\",\"approach-retreat\",\"155\",\"1200857\",\"0.0-155.0\",\"\",\"\",\"3-3\",\"4522\",\"37\",\"1\",\"Testing\",\"Stims/Figures/84-J-0-2.bmp\",\"None\",\"Left\",\"37\",\"1\",\"7\",\"10\",\"N\",\"C\",\"7\"
\"\",\"\",\"approach-retreat\",\"156\",\"1207886\",\"0.0-156.0\",\"\",\"\",\"3-3\",\"5510\",\"39\",\"1\",\"Testing\",\"Stims/Figures/128-J-10-3.bmp\",\"None\",\"Right\",\"39\",\"1\",\"8\",\"10\",\"N\",\"C\",\"8\"
\"\",\"\",\"approach-retreat\",\"157\",\"1213658\",\"0.0-157.0\",\"\",\"\",\"3-3\",\"4256\",\"39\",\"1\",\"Testing\",\"Stims/Figures/118-C-20-2.bmp\",\"None\",\"Left\",\"39\",\"1\",\"9\",\"10\",\"N\",\"C\",\"9\"
\"\",\"\",\"approach-retreat\",\"158\",\"1219490\",\"0.0-158.0\",\"\",\"\",\"3-3\",\"4312\",\"40\",\"1\",\"Testing\",\"Stims/Figures/102-C-20-4.bmp\",\"None\",\"Up\",\"40\",\"1\",\"10\",\"10\",\"N\",\"C\",\"10\"
\"\",\"\",\"approach-retreat\",\"159\",\"1225284\",\"0.0-159.0\",\"\",\"\",\"3-3\",\"4276\",\"39\",\"1\",\"Testing\",\"Stims/Figures/27-J-0-1.bmp\",\"None\",\"Right\",\"39\",\"1\",\"11\",\"10\",\"N\",\"C\",\"11\"
\"\",\"\",\"approach-retreat\",\"160\",\"1230940\",\"0.0-160.0\",\"\",\"\",\"3-3\",\"4138\",\"40\",\"1\",\"Testing\",\"Stims/Figures/44-J-10-3.bmp\",\"None\",\"Down\",\"40\",\"1\",\"12\",\"10\",\"N\",\"C\",\"12\"
\"\",\"\",\"approach-retreat\",\"161\",\"1236480\",\"0.0-161.0\",\"\",\"\",\"3-3\",\"4022\",\"38\",\"1\",\"Testing\",\"Stims/Figures/93-C-30-1.bmp\",\"None\",\"Down\",\"38\",\"1\",\"13\",\"10\",\"N\",\"C\",\"13\"
\"\",\"\",\"approach-retreat\",\"162\",\"1242521\",\"0.0-162.0\",\"\",\"\",\"3-3\",\"4525\",\"39\",\"1\",\"Testing\",\"Stims/Figures/84-C-20-2.bmp\",\"None\",\"Left\",\"39\",\"1\",\"14\",\"10\",\"N\",\"C\",\"14\"
\"\",\"\",\"approach-retreat\",\"163\",\"1251231\",\"0.0-163.0\",\"\",\"\",\"3-3\",\"7192\",\"39\",\"1\",\"Testing\",\"Stims/Figures/139-C-20-2.bmp\",\"None\",\"Left\",\"39\",\"1\",\"15\",\"10\",\"N\",\"C\",\"15\"
\"\",\"\",\"approach-retreat\",\"164\",\"1256768\",\"0.0-164.0\",\"\",\"\",\"3-3\",\"4020\",\"38\",\"1\",\"Testing\",\"Stims/Figures/87-C-20-4.bmp\",\"None\",\"Down\",\"38\",\"1\",\"16\",\"10\",\"N\",\"C\",\"16\"
\"\",\"\",\"approach-retreat\",\"165\",\"1262780\",\"0.0-165.0\",\"\",\"\",\"3-3\",\"4487\",\"39\",\"1\",\"Testing\",\"Stims/Figures/93-J-0-1.bmp\",\"None\",\"Right\",\"39\",\"1\",\"17\",\"10\",\"N\",\"C\",\"17\"
\"\",\"\",\"approach-retreat\",\"166\",\"1268314\",\"0.0-166.0\",\"\",\"\",\"3-3\",\"4016\",\"39\",\"1\",\"Testing\",\"Stims/Figures/118-J-0-2.bmp\",\"None\",\"Right\",\"39\",\"1\",\"18\",\"10\",\"N\",\"C\",\"18\"
\"\",\"\",\"approach-retreat\",\"167\",\"1274530\",\"0.0-167.0\",\"\",\"\",\"3-3\",\"4699\",\"39\",\"1\",\"Testing\",\"Stims/Figures/27-C-30-1.bmp\",\"None\",\"Left\",\"39\",\"1\",\"19\",\"10\",\"N\",\"C\",\"19\"
\"\",\"\",\"approach-retreat\",\"168\",\"1280282\",\"0.0-168.0\",\"\",\"\",\"3-3\",\"4235\",\"37\",\"1\",\"Testing\",\"Stims/Figures/57-C-30-1.bmp\",\"None\",\"Right\",\"37\",\"1\",\"20\",\"10\",\"N\",\"C\",\"20\"
\"\",\"\",\"approach-retreat\",\"169\",\"1286245\",\"0.0-169.0\",\"\",\"\",\"3-3\",\"4445\",\"37\",\"1\",\"Testing\",\"Stims/Figures/44-C-30-3.bmp\",\"None\",\"Right\",\"37\",\"1\",\"21\",\"10\",\"N\",\"C\",\"21\"
\"\",\"\",\"approach-retreat\",\"170\",\"1292017\",\"0.0-170.0\",\"\",\"\",\"3-3\",\"4253\",\"38\",\"1\",\"Testing\",\"Stims/Figures/57-J-0-1.bmp\",\"None\",\"Up\",\"38\",\"1\",\"22\",\"10\",\"N\",\"C\",\"22\"
\"\",\"\",\"approach-retreat\",\"171\",\"1297862\",\"0.0-171.0\",\"\",\"\",\"3-3\",\"4328\",\"40\",\"1\",\"Testing\",\"Stims/Figures/7-C-20-4.bmp\",\"None\",\"Up\",\"40\",\"1\",\"23\",\"10\",\"N\",\"C\",\"23\"
\"\",\"\",\"approach-retreat\",\"172\",\"1303444\",\"0.0-172.0\",\"\",\"\",\"3-3\",\"4064\",\"38\",\"1\",\"Testing\",\"Stims/Figures/100-J-10-3.bmp\",\"None\",\"Up\",\"38\",\"1\",\"24\",\"10\",\"N\",\"C\",\"24\"
\"\",\"\",\"approach-retreat\",\"173\",\"1308994\",\"0.0-173.0\",\"\",\"\",\"3-3\",\"4032\",\"37\",\"1\",\"Testing\",\"Stims/Figures/57-C-30-1.bmp\",\"None\",\"Right\",\"37\",\"2\",\"1\",\"10\",\"N\",\"C\",\"25\"
\"\",\"\",\"approach-retreat\",\"174\",\"1314982\",\"0.0-174.0\",\"\",\"\",\"3-3\",\"4470\",\"37\",\"1\",\"Testing\",\"Stims/Figures/128-C-30-3.bmp\",\"None\",\"Right\",\"37\",\"2\",\"2\",\"10\",\"N\",\"C\",\"26\"
\"\",\"\",\"approach-retreat\",\"175\",\"1320999\",\"0.0-175.0\",\"\",\"\",\"3-3\",\"4499\",\"40\",\"1\",\"Testing\",\"Stims/Figures/87-C-20-4.bmp\",\"None\",\"Up\",\"40\",\"2\",\"3\",\"10\",\"N\",\"C\",\"27\"
\"\",\"\",\"approach-retreat\",\"176\",\"1326541\",\"0.0-176.0\",\"\",\"\",\"3-3\",\"4025\",\"40\",\"1\",\"Testing\",\"Stims/Figures/128-J-10-3.bmp\",\"None\",\"Down\",\"40\",\"2\",\"4\",\"10\",\"N\",\"C\",\"28\"
\"\",\"\",\"approach-retreat\",\"177\",\"1334348\",\"0.0-177.0\",\"\",\"\",\"3-3\",\"6290\",\"38\",\"0\",\"Testing\",\"Stims/Figures/102-C-20-4.bmp\",\"None\",\"Up\",\"40\",\"2\",\"5\",\"10\",\"N\",\"C\",\"29\"
\"\",\"\",\"approach-retreat\",\"178\",\"1339879\",\"0.0-178.0\",\"\",\"\",\"3-3\",\"4013\",\"40\",\"1\",\"Testing\",\"Stims/Figures/93-C-30-1.bmp\",\"None\",\"Up\",\"40\",\"2\",\"6\",\"10\",\"N\",\"C\",\"30\"
\"\",\"\",\"approach-retreat\",\"179\",\"1345578\",\"0.0-179.0\",\"\",\"\",\"3-3\",\"4181\",\"37\",\"1\",\"Testing\",\"Stims/Figures/100-J-10-3.bmp\",\"None\",\"Left\",\"37\",\"2\",\"7\",\"10\",\"N\",\"C\",\"31\"
\"\",\"\",\"approach-retreat\",\"180\",\"1351287\",\"0.0-180.0\",\"\",\"\",\"3-3\",\"4193\",\"40\",\"1\",\"Testing\",\"Stims/Figures/87-J-10-4.bmp\",\"None\",\"Down\",\"40\",\"2\",\"8\",\"10\",\"N\",\"C\",\"32\"
\"\",\"\",\"approach-retreat\",\"181\",\"1357231\",\"0.0-181.0\",\"\",\"\",\"3-3\",\"4428\",\"39\",\"1\",\"Testing\",\"Stims/Figures/44-C-30-3.bmp\",\"None\",\"Left\",\"39\",\"2\",\"9\",\"10\",\"N\",\"C\",\"33\"
\"\",\"\",\"approach-retreat\",\"182\",\"1362876\",\"0.0-182.0\",\"\",\"\",\"3-3\",\"4125\",\"37\",\"1\",\"Testing\",\"Stims/Figures/44-J-10-3.bmp\",\"None\",\"Left\",\"37\",\"2\",\"10\",\"10\",\"N\",\"C\",\"34\"
\"\",\"\",\"approach-retreat\",\"183\",\"1368373\",\"0.0-183.0\",\"\",\"\",\"3-3\",\"3976\",\"38\",\"1\",\"Testing\",\"Stims/Figures/100-C-30-3.bmp\",\"None\",\"Down\",\"38\",\"2\",\"11\",\"10\",\"N\",\"C\",\"35\"
\"\",\"\",\"approach-retreat\",\"184\",\"1373979\",\"0.0-184.0\",\"\",\"\",\"3-3\",\"4085\",\"39\",\"1\",\"Testing\",\"Stims/Figures/27-J-0-1.bmp\",\"None\",\"Right\",\"39\",\"2\",\"12\",\"10\",\"N\",\"C\",\"36\"
\"\",\"\",\"approach-retreat\",\"185\",\"1379841\",\"0.0-185.0\",\"\",\"\",\"3-3\",\"4341\",\"37\",\"1\",\"Testing\",\"Stims/Figures/57-J-0-1.bmp\",\"None\",\"Left\",\"37\",\"2\",\"13\",\"10\",\"N\",\"C\",\"37\"
\"\",\"\",\"approach-retreat\",\"186\",\"1385391\",\"0.0-186.0\",\"\",\"\",\"3-3\",\"4031\",\"38\",\"1\",\"Testing\",\"Stims/Figures/139-C-20-2.bmp\",\"None\",\"Down\",\"38\",\"2\",\"14\",\"10\",\"N\",\"C\",\"38\"
\"\",\"\",\"approach-retreat\",\"187\",\"1391010\",\"0.0-187.0\",\"\",\"\",\"3-3\",\"4101\",\"39\",\"1\",\"Testing\",\"Stims/Figures/118-J-0-2.bmp\",\"None\",\"Right\",\"39\",\"2\",\"15\",\"10\",\"N\",\"C\",\"39\"
\"\",\"\",\"approach-retreat\",\"188\",\"1396768\",\"0.0-188.0\",\"\",\"\",\"3-3\",\"4241\",\"38\",\"1\",\"Testing\",\"Stims/Figures/7-J-10-4.bmp\",\"None\",\"Up\",\"38\",\"2\",\"16\",\"10\",\"N\",\"C\",\"40\"
\"\",\"\",\"approach-retreat\",\"189\",\"1402487\",\"0.0-189.0\",\"\",\"\",\"3-3\",\"4201\",\"39\",\"1\",\"Testing\",\"Stims/Figures/93-J-0-1.bmp\",\"None\",\"Right\",\"39\",\"2\",\"17\",\"10\",\"N\",\"C\",\"41\"
\"\",\"\",\"approach-retreat\",\"190\",\"1408180\",\"0.0-190.0\",\"\",\"\",\"3-3\",\"4172\",\"37\",\"1\",\"Testing\",\"Stims/Figures/7-C-20-4.bmp\",\"None\",\"Right\",\"37\",\"2\",\"18\",\"10\",\"N\",\"C\",\"42\"
\"\",\"\",\"approach-retreat\",\"191\",\"1416961\",\"0.0-191.0\",\"\",\"\",\"3-3\",\"7263\",\"38\",\"1\",\"Testing\",\"Stims/Figures/118-C-20-2.bmp\",\"None\",\"Down\",\"38\",\"2\",\"19\",\"10\",\"N\",\"C\",\"43\"
\"\",\"\",\"approach-retreat\",\"192\",\"1422837\",\"0.0-192.0\",\"\",\"\",\"3-3\",\"4359\",\"39\",\"1\",\"Testing\",\"Stims/Figures/84-C-20-2.bmp\",\"None\",\"Left\",\"39\",\"2\",\"20\",\"10\",\"N\",\"C\",\"44\"
\"\",\"\",\"approach-retreat\",\"193\",\"1428651\",\"0.0-193.0\",\"\",\"\",\"3-3\",\"4255\",\"40\",\"1\",\"Testing\",\"Stims/Figures/27-C-30-1.bmp\",\"None\",\"Up\",\"40\",\"2\",\"21\",\"10\",\"N\",\"C\",\"45\"
\"\",\"\",\"approach-retreat\",\"194\",\"1434741\",\"0.0-194.0\",\"\",\"\",\"3-3\",\"4572\",\"37\",\"1\",\"Testing\",\"Stims/Figures/139-J-0-2.bmp\",\"None\",\"Left\",\"37\",\"2\",\"22\",\"10\",\"N\",\"C\",\"46\"
\"\",\"\",\"approach-retreat\",\"195\",\"1440546\",\"0.0-195.0\",\"\",\"\",\"3-3\",\"4289\",\"38\",\"1\",\"Testing\",\"Stims/Figures/102-J-10-4.bmp\",\"None\",\"Up\",\"38\",\"2\",\"23\",\"10\",\"N\",\"C\",\"47\"
\"\",\"\",\"approach-retreat\",\"196\",\"1446395\",\"0.0-196.0\",\"\",\"\",\"3-3\",\"4333\",\"40\",\"1\",\"Testing\",\"Stims/Figures/84-J-0-2.bmp\",\"None\",\"Down\",\"40\",\"2\",\"24\",\"10\",\"N\",\"C\",\"48\"
\"\",\"\",\"approach-retreat\",\"197\",\"1452875\",\"0.0-197.0\",\"\",\"\",\"3-3\",\"4963\",\"39\",\"1\",\"Testing\",\"Stims/Figures/57-C-30-1.bmp\",\"None\",\"Left\",\"39\",\"3\",\"1\",\"10\",\"N\",\"C\",\"49\"
\"\",\"\",\"approach-retreat\",\"198\",\"1461182\",\"0.0-198.0\",\"\",\"\",\"3-3\",\"6790\",\"38\",\"1\",\"Testing\",\"Stims/Figures/100-C-30-3.bmp\",\"None\",\"Down\",\"38\",\"3\",\"2\",\"10\",\"N\",\"C\",\"50\"
\"\",\"\",\"approach-retreat\",\"199\",\"1467210\",\"0.0-199.0\",\"\",\"\",\"3-3\",\"4511\",\"40\",\"1\",\"Testing\",\"Stims/Figures/44-C-30-3.bmp\",\"None\",\"Up\",\"40\",\"3\",\"3\",\"10\",\"N\",\"C\",\"51\"
\"\",\"\",\"approach-retreat\",\"200\",\"1473286\",\"0.0-200.0\",\"\",\"\",\"3-3\",\"4560\",\"40\",\"1\",\"Testing\",\"Stims/Figures/128-J-10-3.bmp\",\"None\",\"Down\",\"40\",\"3\",\"4\",\"10\",\"N\",\"C\",\"52\"
\"\",\"\",\"approach-retreat\",\"201\",\"1479252\",\"0.0-201.0\",\"\",\"\",\"3-3\",\"4448\",\"39\",\"1\",\"Testing\",\"Stims/Figures/128-C-30-3.bmp\",\"None\",\"Left\",\"39\",\"3\",\"5\",\"10\",\"N\",\"C\",\"53\"
\"\",\"\",\"approach-retreat\",\"202\",\"1485002\",\"0.0-202.0\",\"\",\"\",\"3-3\",\"4233\",\"40\",\"1\",\"Testing\",\"Stims/Figures/87-C-20-4.bmp\",\"None\",\"Up\",\"40\",\"3\",\"6\",\"10\",\"N\",\"C\",\"54\"
\"\",\"\",\"approach-retreat\",\"203\",\"1490733\",\"0.0-203.0\",\"\",\"\",\"3-3\",\"4213\",\"38\",\"1\",\"Testing\",\"Stims/Figures/57-J-0-1.bmp\",\"None\",\"Up\",\"38\",\"3\",\"7\",\"10\",\"N\",\"C\",\"55\"
\"\",\"\",\"approach-retreat\",\"204\",\"1496318\",\"0.0-204.0\",\"\",\"\",\"3-3\",\"4067\",\"37\",\"1\",\"Testing\",\"Stims/Figures/93-C-30-1.bmp\",\"None\",\"Right\",\"37\",\"3\",\"8\",\"10\",\"N\",\"C\",\"56\"
\"\",\"\",\"approach-retreat\",\"205\",\"1502288\",\"0.0-205.0\",\"\",\"\",\"3-3\",\"4453\",\"39\",\"1\",\"Testing\",\"Stims/Figures/93-J-0-1.bmp\",\"None\",\"Right\",\"39\",\"3\",\"9\",\"10\",\"N\",\"C\",\"57\"
\"\",\"\",\"approach-retreat\",\"206\",\"1508231\",\"0.0-206.0\",\"\",\"\",\"3-3\",\"4413\",\"37\",\"1\",\"Testing\",\"Stims/Figures/84-J-0-2.bmp\",\"None\",\"Left\",\"37\",\"3\",\"10\",\"10\",\"N\",\"C\",\"58\"
\"\",\"\",\"approach-retreat\",\"207\",\"1514487\",\"0.0-207.0\",\"\",\"\",\"3-3\",\"4741\",\"37\",\"1\",\"Testing\",\"Stims/Figures/44-J-10-3.bmp\",\"None\",\"Left\",\"37\",\"3\",\"11\",\"10\",\"N\",\"C\",\"59\"
\"\",\"\",\"approach-retreat\",\"208\",\"1520091\",\"0.0-208.0\",\"\",\"\",\"3-3\",\"4081\",\"38\",\"1\",\"Testing\",\"Stims/Figures/100-J-10-3.bmp\",\"None\",\"Up\",\"38\",\"3\",\"12\",\"10\",\"N\",\"C\",\"60\"
\"\",\"\",\"approach-retreat\",\"209\",\"1526410\",\"0.0-209.0\",\"\",\"\",\"3-3\",\"4800\",\"39\",\"1\",\"Testing\",\"Stims/Figures/27-J-0-1.bmp\",\"None\",\"Right\",\"39\",\"3\",\"13\",\"10\",\"N\",\"C\",\"61\"
\"\",\"\",\"approach-retreat\",\"210\",\"1533362\",\"0.0-210.0\",\"\",\"\",\"3-3\",\"5430\",\"40\",\"1\",\"Testing\",\"Stims/Figures/102-J-10-4.bmp\",\"None\",\"Down\",\"40\",\"3\",\"14\",\"10\",\"N\",\"C\",\"62\"
\"\",\"\",\"approach-retreat\",\"211\",\"1539023\",\"0.0-211.0\",\"\",\"\",\"3-3\",\"4145\",\"40\",\"1\",\"Testing\",\"Stims/Figures/87-J-10-4.bmp\",\"None\",\"Down\",\"40\",\"3\",\"15\",\"10\",\"N\",\"C\",\"63\"
\"\",\"\",\"approach-retreat\",\"212\",\"1545985\",\"0.0-212.0\",\"\",\"\",\"3-3\",\"5426\",\"39\",\"0\",\"Testing\",\"Stims/Figures/118-C-20-2.bmp\",\"None\",\"Right\",\"37\",\"3\",\"16\",\"10\",\"N\",\"C\",\"64\"
\"\",\"\",\"approach-retreat\",\"213\",\"1551508\",\"0.0-213.0\",\"\",\"\",\"3-3\",\"4007\",\"37\",\"1\",\"Testing\",\"Stims/Figures/139-C-20-2.bmp\",\"None\",\"Right\",\"37\",\"3\",\"17\",\"10\",\"N\",\"C\",\"65\"
\"\",\"\",\"approach-retreat\",\"214\",\"1557179\",\"0.0-214.0\",\"\",\"\",\"3-3\",\"4154\",\"40\",\"1\",\"Testing\",\"Stims/Figures/7-J-10-4.bmp\",\"None\",\"Down\",\"40\",\"3\",\"18\",\"10\",\"N\",\"C\",\"66\"
\"\",\"\",\"approach-retreat\",\"215\",\"1562814\",\"0.0-215.0\",\"\",\"\",\"3-3\",\"4117\",\"40\",\"1\",\"Testing\",\"Stims/Figures/27-C-30-1.bmp\",\"None\",\"Up\",\"40\",\"3\",\"19\",\"10\",\"N\",\"C\",\"67\"
\"\",\"\",\"approach-retreat\",\"216\",\"1568469\",\"0.0-216.0\",\"\",\"\",\"3-3\",\"4140\",\"38\",\"1\",\"Testing\",\"Stims/Figures/102-C-20-4.bmp\",\"None\",\"Down\",\"38\",\"3\",\"20\",\"10\",\"N\",\"C\",\"68\"
\"\",\"\",\"approach-retreat\",\"217\",\"1574838\",\"0.0-217.0\",\"\",\"\",\"3-3\",\"4850\",\"37\",\"1\",\"Testing\",\"Stims/Figures/139-J-0-2.bmp\",\"None\",\"Left\",\"37\",\"3\",\"21\",\"10\",\"N\",\"C\",\"69\"
\"\",\"\",\"approach-retreat\",\"218\",\"1580514\",\"0.0-218.0\",\"\",\"\",\"3-3\",\"4157\",\"39\",\"1\",\"Testing\",\"Stims/Figures/7-C-20-4.bmp\",\"None\",\"Left\",\"39\",\"3\",\"22\",\"10\",\"N\",\"C\",\"70\"
\"\",\"\",\"approach-retreat\",\"219\",\"1586295\",\"0.0-219.0\",\"\",\"\",\"3-3\",\"4264\",\"39\",\"1\",\"Testing\",\"Stims/Figures/118-J-0-2.bmp\",\"None\",\"Right\",\"39\",\"3\",\"23\",\"10\",\"N\",\"C\",\"71\"
\"\",\"\",\"approach-retreat\",\"220\",\"1592300\",\"0.0-220.0\",\"\",\"\",\"3-3\",\"4489\",\"40\",\"1\",\"Testing\",\"Stims/Figures/84-C-20-2.bmp\",\"None\",\"Up\",\"40\",\"3\",\"24\",\"10\",\"N\",\"C\",\"72\"
\"\",\"\",\"approach-retreat\",\"221\",\"1599431\",\"0.0-221.0\",\"\",\"\",\"3-3\",\"5614\",\"37\",\"1\",\"Testing\",\"Stims/Figures/118-C-20-2.bmp\",\"None\",\"Right\",\"37\",\"4\",\"1\",\"10\",\"N\",\"C\",\"73\"
\"\",\"\",\"approach-retreat\",\"222\",\"1605054\",\"0.0-222.0\",\"\",\"\",\"3-3\",\"4105\",\"40\",\"1\",\"Testing\",\"Stims/Figures/7-C-20-4.bmp\",\"None\",\"Up\",\"40\",\"4\",\"2\",\"10\",\"N\",\"C\",\"74\"
\"\",\"\",\"approach-retreat\",\"223\",\"1611002\",\"0.0-223.0\",\"\",\"\",\"3-3\",\"4431\",\"39\",\"1\",\"Testing\",\"Stims/Figures/118-J-0-2.bmp\",\"None\",\"Right\",\"39\",\"4\",\"3\",\"10\",\"N\",\"C\",\"75\"
\"\",\"\",\"approach-retreat\",\"224\",\"1616776\",\"0.0-224.0\",\"\",\"\",\"3-3\",\"4258\",\"40\",\"0\",\"Testing\",\"Stims/Figures/27-J-0-1.bmp\",\"None\",\"Up\",\"38\",\"4\",\"4\",\"10\",\"N\",\"C\",\"76\"
\"\",\"\",\"approach-retreat\",\"225\",\"1622672\",\"0.0-225.0\",\"\",\"\",\"3-3\",\"4378\",\"39\",\"1\",\"Testing\",\"Stims/Figures/84-J-0-2.bmp\",\"None\",\"Right\",\"39\",\"4\",\"5\",\"10\",\"N\",\"C\",\"77\"
\"\",\"\",\"approach-retreat\",\"226\",\"1628286\",\"0.0-226.0\",\"\",\"\",\"3-3\",\"4095\",\"38\",\"1\",\"Testing\",\"Stims/Figures/57-C-30-1.bmp\",\"None\",\"Down\",\"38\",\"4\",\"6\",\"10\",\"N\",\"C\",\"78\"
\"\",\"\",\"approach-retreat\",\"227\",\"1633934\",\"0.0-227.0\",\"\",\"\",\"3-3\",\"4130\",\"37\",\"1\",\"Testing\",\"Stims/Figures/87-J-10-4.bmp\",\"None\",\"Left\",\"37\",\"4\",\"7\",\"10\",\"N\",\"C\",\"79\"
\"\",\"\",\"approach-retreat\",\"228\",\"1639670\",\"0.0-228.0\",\"\",\"\",\"3-3\",\"4219\",\"37\",\"1\",\"Testing\",\"Stims/Figures/57-J-0-1.bmp\",\"None\",\"Left\",\"37\",\"4\",\"8\",\"10\",\"N\",\"C\",\"80\"
\"\",\"\",\"approach-retreat\",\"229\",\"1645659\",\"0.0-229.0\",\"\",\"\",\"3-3\",\"4468\",\"40\",\"1\",\"Testing\",\"Stims/Figures/93-C-30-1.bmp\",\"None\",\"Up\",\"40\",\"4\",\"9\",\"10\",\"N\",\"C\",\"81\"
\"\",\"\",\"approach-retreat\",\"230\",\"1651422\",\"0.0-230.0\",\"\",\"\",\"3-3\",\"4244\",\"39\",\"0\",\"Testing\",\"Stims/Figures/102-J-10-4.bmp\",\"None\",\"Left\",\"37\",\"4\",\"10\",\"10\",\"N\",\"C\",\"82\"
\"\",\"\",\"approach-retreat\",\"231\",\"1657095\",\"0.0-231.0\",\"\",\"\",\"3-3\",\"4154\",\"40\",\"1\",\"Testing\",\"Stims/Figures/84-C-20-2.bmp\",\"None\",\"Up\",\"40\",\"4\",\"11\",\"10\",\"N\",\"C\",\"83\"
\"\",\"\",\"approach-retreat\",\"232\",\"1662753\",\"0.0-232.0\",\"\",\"\",\"3-3\",\"4139\",\"37\",\"1\",\"Testing\",\"Stims/Figures/93-J-0-1.bmp\",\"None\",\"Left\",\"37\",\"4\",\"12\",\"10\",\"N\",\"C\",\"84\"
\"\",\"\",\"approach-retreat\",\"233\",\"1668407\",\"0.0-233.0\",\"\",\"\",\"3-3\",\"4137\",\"39\",\"1\",\"Testing\",\"Stims/Figures/87-C-20-4.bmp\",\"None\",\"Left\",\"39\",\"4\",\"13\",\"10\",\"N\",\"C\",\"85\"
\"\",\"\",\"approach-retreat\",\"234\",\"1673983\",\"0.0-234.0\",\"\",\"\",\"3-3\",\"4057\",\"39\",\"1\",\"Testing\",\"Stims/Figures/100-C-30-3.bmp\",\"None\",\"Left\",\"39\",\"4\",\"14\",\"10\",\"N\",\"C\",\"86\"
\"\",\"\",\"approach-retreat\",\"235\",\"1679675\",\"0.0-235.0\",\"\",\"\",\"3-3\",\"4176\",\"40\",\"1\",\"Testing\",\"Stims/Figures/100-J-10-3.bmp\",\"None\",\"Down\",\"40\",\"4\",\"15\",\"10\",\"N\",\"C\",\"87\"
\"\",\"\",\"approach-retreat\",\"236\",\"1685693\",\"0.0-236.0\",\"\",\"\",\"3-3\",\"4501\",\"40\",\"1\",\"Testing\",\"Stims/Figures/7-J-10-4.bmp\",\"None\",\"Down\",\"40\",\"4\",\"16\",\"10\",\"N\",\"C\",\"88\"
\"\",\"\",\"approach-retreat\",\"237\",\"1691253\",\"0.0-237.0\",\"\",\"\",\"3-3\",\"4041\",\"40\",\"1\",\"Testing\",\"Stims/Figures/128-J-10-3.bmp\",\"None\",\"Down\",\"40\",\"4\",\"17\",\"10\",\"N\",\"C\",\"89\"
\"\",\"\",\"approach-retreat\",\"238\",\"1696826\",\"0.0-238.0\",\"\",\"\",\"3-3\",\"4058\",\"38\",\"1\",\"Testing\",\"Stims/Figures/139-C-20-2.bmp\",\"None\",\"Down\",\"38\",\"4\",\"18\",\"10\",\"N\",\"C\",\"90\"
\"\",\"\",\"approach-retreat\",\"239\",\"1702676\",\"0.0-239.0\",\"\",\"\",\"3-3\",\"4334\",\"37\",\"1\",\"Testing\",\"Stims/Figures/44-C-30-3.bmp\",\"None\",\"Right\",\"37\",\"4\",\"19\",\"10\",\"N\",\"C\",\"91\"
\"\",\"\",\"approach-retreat\",\"240\",\"1708880\",\"0.0-240.0\",\"\",\"\",\"3-3\",\"4686\",\"38\",\"1\",\"Testing\",\"Stims/Figures/44-J-10-3.bmp\",\"None\",\"Up\",\"38\",\"4\",\"20\",\"10\",\"N\",\"C\",\"92\"
\"\",\"\",\"approach-retreat\",\"241\",\"1714794\",\"0.0-241.0\",\"\",\"\",\"3-3\",\"4399\",\"37\",\"1\",\"Testing\",\"Stims/Figures/128-C-30-3.bmp\",\"None\",\"Right\",\"37\",\"4\",\"21\",\"10\",\"N\",\"C\",\"93\"
\"\",\"\",\"approach-retreat\",\"242\",\"1720788\",\"0.0-242.0\",\"\",\"\",\"3-3\",\"4477\",\"38\",\"1\",\"Testing\",\"Stims/Figures/139-J-0-2.bmp\",\"None\",\"Up\",\"38\",\"4\",\"22\",\"10\",\"N\",\"C\",\"94\"
\"\",\"\",\"approach-retreat\",\"243\",\"1727413\",\"0.0-243.0\",\"\",\"\",\"3-3\",\"5109\",\"38\",\"1\",\"Testing\",\"Stims/Figures/27-C-30-1.bmp\",\"None\",\"Down\",\"38\",\"4\",\"23\",\"10\",\"N\",\"C\",\"95\"
\"\",\"\",\"approach-retreat\",\"244\",\"1733078\",\"0.0-244.0\",\"\",\"\",\"3-3\",\"4140\",\"37\",\"1\",\"Testing\",\"Stims/Figures/102-C-20-4.bmp\",\"None\",\"Right\",\"37\",\"4\",\"24\",\"10\",\"N\",\"C\",\"96\"
\"21980\",\"\",\"survey-text\",\"245\",\"1755076\",\"0.0-245.0\",\"\",\"{\"\"Q0\"\":\"\"PS170067\"\"}\",\"\",\"\",\"\",\"\",\"\",\"\",\"\",\"\",\"\",\"\",\"\",\"\",\"\",\"\",\"\"
