\"rt\",\"key_press\",\"trial_type\",\"trial_index\",\"time_elapsed\",\"internal_node_id\",\"view_history\",\"responses\",\"Id\",\"Rt\",\"ResKeyCode\",\"ResCorr\",\"TrialType2\",\"Image\",\"Label\",\"Location\",\"CorrectResponse\",\"Block\",\"BlockTrial\",\"Condition\",\"LabelType\",\"Subcondition\",\"trialNum\"
\"39407\",\"32\",\"text\",\"0\",\"39409\",\"0.0-0.0-0.0\",\"\",\"\",\"\",\"\",\"\",\"\",\"\",\"\",\"\",\"\",\"\",\"\",\"\",\"\",\"\",\"\",\"\"
\"38621\",\"\",\"instructions\",\"1\",\"78030\",\"0.0-1.0\",\"[{\"\"page_index\"\":0,\"\"viewing_time\"\":38620}]\",\"\",\"\",\"\",\"\",\"\",\"\",\"\",\"\",\"\",\"\",\"\",\"\",\"\",\"\",\"\",\"\"
\"19226\",\"\",\"survey-multi-choice\",\"2\",\"97279\",\"0.0-2.0\",\"\",\"{\"\"Q0\"\":\"\"Da\"\",\"\"Q1\"\":\"\"Da\"\",\"\"Q2\"\":\"\"Da\"\",\"\"Q3\"\":\"\"Da\"\",\"\"Q4\"\":\"\"Da\"\",\"\"Q5\"\":\"\"Da\"\"}\",\"\",\"\",\"\",\"\",\"\",\"\",\"\",\"\",\"\",\"\",\"\",\"\",\"\",\"\",\"\"
\"\",\"\",\"bio\",\"3\",\"107538\",\"0.0-3.0\",\"\",\"{\"\"age\"\":\"\"20\"\",\"\"gender\"\":\"\"f\"\",\"\"specify\"\":\"\"\"\"}\",\"\",\"\",\"\",\"\",\"\",\"\",\"\",\"\",\"\",\"\",\"\",\"\",\"\",\"\",\"\"
\"\",\"\",\"approach-retreat\",\"4\",\"117018\",\"0.0-4.0\",\"\",\"\",\"3-4\",\"7969\",\"38\",\"0\",\"Training\",\"Stims/Figures/84-J-0-2.bmp\",\"fasha:sha\",\"Down\",\"40\",\"1\",\"1\",\"6A\",\"C1\",\"C\",\"1\"
\"\",\"\",\"approach-retreat\",\"5\",\"123406\",\"0.0-5.0\",\"\",\"\",\"3-4\",\"4872\",\"40\",\"0\",\"Training\",\"Stims/Figures/84-C-20-2.bmp\",\"za:sa:za\",\"Down\",\"38\",\"1\",\"2\",\"6A\",\"C2\",\"C\",\"2\"
\"\",\"\",\"approach-retreat\",\"6\",\"131693\",\"0.0-6.0\",\"\",\"\",\"3-4\",\"6771\",\"39\",\"0\",\"Training\",\"Stims/Figures/139-C-20-2.bmp\",\"sasa:za\",\"Right\",\"37\",\"1\",\"3\",\"6A\",\"C2\",\"C\",\"3\"
\"\",\"\",\"approach-retreat\",\"7\",\"138940\",\"0.0-7.0\",\"\",\"\",\"3-4\",\"5736\",\"40\",\"1\",\"Training\",\"Stims/Figures/144-J-10-3.bmp\",\"vafasha\",\"Down\",\"40\",\"1\",\"4\",\"6A\",\"C1\",\"C\",\"4\"
\"\",\"\",\"approach-retreat\",\"8\",\"144116\",\"0.0-8.0\",\"\",\"\",\"3-4\",\"3663\",\"39\",\"0\",\"Training\",\"Stims/Figures/144-C-30-3.bmp\",\"sahaha\",\"Right\",\"37\",\"1\",\"5\",\"6A\",\"C2\",\"C\",\"5\"
\"\",\"\",\"approach-retreat\",\"9\",\"150831\",\"0.0-9.0\",\"\",\"\",\"3-4\",\"5205\",\"38\",\"1\",\"Training\",\"Stims/Figures/74-J-10-4.bmp\",\"fafa:sha\",\"Up\",\"38\",\"1\",\"6\",\"6A\",\"C1\",\"C\",\"6\"
\"\",\"\",\"approach-retreat\",\"10\",\"157387\",\"0.0-10.0\",\"\",\"\",\"3-4\",\"5049\",\"37\",\"1\",\"Training\",\"Stims/Figures/86-J-0-1.bmp\",\"fa:fa:va\",\"Left\",\"37\",\"1\",\"7\",\"6A\",\"C1\",\"C\",\"7\"
\"\",\"\",\"approach-retreat\",\"11\",\"163743\",\"0.0-11.0\",\"\",\"\",\"3-4\",\"4849\",\"39\",\"0\",\"Training\",\"Stims/Figures/57-C-30-1.bmp\",\"sa:haza\",\"Right\",\"37\",\"1\",\"8\",\"6A\",\"C2\",\"C\",\"8\"
\"\",\"\",\"approach-retreat\",\"12\",\"169237\",\"0.0-12.0\",\"\",\"\",\"3-4\",\"3979\",\"37\",\"1\",\"Training\",\"Stims/Figures/7-J-10-4.bmp\",\"va:fa:va\",\"Left\",\"37\",\"1\",\"9\",\"6A\",\"C1\",\"C\",\"9\"
\"\",\"\",\"approach-retreat\",\"13\",\"175516\",\"0.0-13.0\",\"\",\"\",\"3-4\",\"4769\",\"40\",\"1\",\"Training\",\"Stims/Figures/44-J-10-3.bmp\",\"fa:fa:sha\",\"Down\",\"40\",\"1\",\"10\",\"6A\",\"C1\",\"C\",\"10\"
\"\",\"\",\"approach-retreat\",\"14\",\"182083\",\"0.0-14.0\",\"\",\"\",\"3-4\",\"5062\",\"37\",\"0\",\"Training\",\"Stims/Figures/7-C-20-4.bmp\",\"zasaza\",\"Left\",\"39\",\"1\",\"11\",\"6A\",\"C2\",\"C\",\"11\"
\"\",\"\",\"approach-retreat\",\"15\",\"187693\",\"0.0-15.0\",\"\",\"\",\"3-4\",\"4096\",\"39\",\"0\",\"Training\",\"Stims/Figures/86-C-30-1.bmp\",\"za:ha:za\",\"Right\",\"37\",\"1\",\"12\",\"6A\",\"C2\",\"C\",\"12\"
\"\",\"\",\"approach-retreat\",\"16\",\"194009\",\"0.0-16.0\",\"\",\"\",\"3-4\",\"4803\",\"39\",\"1\",\"Training\",\"Stims/Figures/44-C-30-3.bmp\",\"za:haza\",\"Left\",\"39\",\"1\",\"13\",\"6A\",\"C2\",\"C\",\"13\"
\"\",\"\",\"approach-retreat\",\"17\",\"200332\",\"0.0-17.0\",\"\",\"\",\"3-4\",\"4816\",\"38\",\"1\",\"Training\",\"Stims/Figures/139-J-0-2.bmp\",\"fa:shava\",\"Up\",\"38\",\"1\",\"14\",\"6A\",\"C1\",\"C\",\"14\"
\"\",\"\",\"approach-retreat\",\"18\",\"206845\",\"0.0-18.0\",\"\",\"\",\"3-4\",\"5008\",\"38\",\"0\",\"Training\",\"Stims/Figures/74-C-20-4.bmp\",\"zaha:za\",\"Up\",\"40\",\"1\",\"15\",\"6A\",\"C2\",\"C\",\"15\"
\"\",\"\",\"approach-retreat\",\"19\",\"213393\",\"0.0-19.0\",\"\",\"\",\"3-4\",\"5036\",\"40\",\"0\",\"Training\",\"Stims/Figures/57-J-0-1.bmp\",\"vashasha\",\"Up\",\"38\",\"1\",\"16\",\"6A\",\"C1\",\"C\",\"16\"
\"\",\"\",\"approach-retreat\",\"20\",\"220637\",\"0.0-20.0\",\"\",\"\",\"3-4\",\"5740\",\"40\",\"0\",\"Training\",\"Stims/Figures/74-J-10-4.bmp\",\"fafa:sha\",\"Up\",\"38\",\"2\",\"1\",\"6A\",\"C1\",\"C\",\"17\"
\"\",\"\",\"approach-retreat\",\"21\",\"227064\",\"0.0-21.0\",\"\",\"\",\"3-4\",\"4915\",\"38\",\"0\",\"Training\",\"Stims/Figures/7-J-10-4.bmp\",\"va:fa:va\",\"Down\",\"40\",\"2\",\"2\",\"6A\",\"C1\",\"C\",\"18\"
\"\",\"\",\"approach-retreat\",\"22\",\"233526\",\"0.0-22.0\",\"\",\"\",\"3-4\",\"4956\",\"38\",\"0\",\"Training\",\"Stims/Figures/139-C-20-2.bmp\",\"sasa:za\",\"Up\",\"40\",\"2\",\"3\",\"6A\",\"C2\",\"C\",\"19\"
\"\",\"\",\"approach-retreat\",\"23\",\"239755\",\"0.0-23.0\",\"\",\"\",\"3-4\",\"4719\",\"39\",\"0\",\"Training\",\"Stims/Figures/84-C-20-2.bmp\",\"za:sa:za\",\"Right\",\"37\",\"2\",\"4\",\"6A\",\"C2\",\"C\",\"20\"
\"\",\"\",\"approach-retreat\",\"24\",\"245794\",\"0.0-24.0\",\"\",\"\",\"3-4\",\"4525\",\"39\",\"0\",\"Training\",\"Stims/Figures/57-J-0-1.bmp\",\"vashasha\",\"Left\",\"37\",\"2\",\"5\",\"6A\",\"C1\",\"C\",\"21\"
\"\",\"\",\"approach-retreat\",\"25\",\"254156\",\"0.0-25.0\",\"\",\"\",\"3-4\",\"6850\",\"38\",\"1\",\"Training\",\"Stims/Figures/139-J-0-2.bmp\",\"fa:shava\",\"Up\",\"38\",\"2\",\"6\",\"6A\",\"C1\",\"C\",\"22\"
\"\",\"\",\"approach-retreat\",\"26\",\"260938\",\"0.0-26.0\",\"\",\"\",\"3-4\",\"5274\",\"40\",\"1\",\"Training\",\"Stims/Figures/44-C-30-3.bmp\",\"za:haza\",\"Up\",\"40\",\"2\",\"7\",\"6A\",\"C2\",\"C\",\"23\"
\"\",\"\",\"approach-retreat\",\"27\",\"268352\",\"0.0-27.0\",\"\",\"\",\"3-4\",\"5903\",\"38\",\"1\",\"Training\",\"Stims/Figures/7-C-20-4.bmp\",\"zasaza\",\"Down\",\"38\",\"2\",\"8\",\"6A\",\"C2\",\"C\",\"24\"
\"\",\"\",\"approach-retreat\",\"28\",\"275981\",\"0.0-28.0\",\"\",\"\",\"3-4\",\"6118\",\"39\",\"1\",\"Training\",\"Stims/Figures/57-C-30-1.bmp\",\"sa:haza\",\"Left\",\"39\",\"2\",\"9\",\"6A\",\"C2\",\"C\",\"25\"
\"\",\"\",\"approach-retreat\",\"29\",\"282612\",\"0.0-29.0\",\"\",\"\",\"3-4\",\"5116\",\"37\",\"1\",\"Training\",\"Stims/Figures/86-J-0-1.bmp\",\"fa:fa:va\",\"Left\",\"37\",\"2\",\"10\",\"6A\",\"C1\",\"C\",\"26\"
\"\",\"\",\"approach-retreat\",\"30\",\"288708\",\"0.0-30.0\",\"\",\"\",\"3-4\",\"4588\",\"38\",\"1\",\"Training\",\"Stims/Figures/144-C-30-3.bmp\",\"sahaha\",\"Down\",\"38\",\"2\",\"11\",\"6A\",\"C2\",\"C\",\"27\"
\"\",\"\",\"approach-retreat\",\"31\",\"294227\",\"0.0-31.0\",\"\",\"\",\"3-4\",\"4006\",\"39\",\"1\",\"Training\",\"Stims/Figures/84-J-0-2.bmp\",\"fasha:sha\",\"Right\",\"39\",\"2\",\"12\",\"6A\",\"C1\",\"C\",\"28\"
\"\",\"\",\"approach-retreat\",\"32\",\"299945\",\"0.0-32.0\",\"\",\"\",\"3-4\",\"4209\",\"37\",\"1\",\"Training\",\"Stims/Figures/86-C-30-1.bmp\",\"za:ha:za\",\"Right\",\"37\",\"2\",\"13\",\"6A\",\"C2\",\"C\",\"29\"
\"\",\"\",\"approach-retreat\",\"33\",\"306704\",\"0.0-33.0\",\"\",\"\",\"3-4\",\"5247\",\"40\",\"1\",\"Training\",\"Stims/Figures/44-J-10-3.bmp\",\"fa:fa:sha\",\"Down\",\"40\",\"2\",\"14\",\"6A\",\"C1\",\"C\",\"30\"
\"\",\"\",\"approach-retreat\",\"34\",\"313371\",\"0.0-34.0\",\"\",\"\",\"3-4\",\"5155\",\"37\",\"1\",\"Training\",\"Stims/Figures/144-J-10-3.bmp\",\"vafasha\",\"Left\",\"37\",\"2\",\"15\",\"6A\",\"C1\",\"C\",\"31\"
\"\",\"\",\"approach-retreat\",\"35\",\"319224\",\"0.0-35.0\",\"\",\"\",\"3-4\",\"4341\",\"39\",\"0\",\"Training\",\"Stims/Figures/74-C-20-4.bmp\",\"zaha:za\",\"Right\",\"37\",\"2\",\"16\",\"6A\",\"C2\",\"C\",\"32\"
\"\",\"\",\"approach-retreat\",\"36\",\"325639\",\"0.0-36.0\",\"\",\"\",\"3-4\",\"4906\",\"37\",\"1\",\"Training\",\"Stims/Figures/86-J-0-1.bmp\",\"fa:fa:va\",\"Left\",\"37\",\"3\",\"1\",\"6A\",\"C1\",\"C\",\"33\"
\"\",\"\",\"approach-retreat\",\"37\",\"331668\",\"0.0-37.0\",\"\",\"\",\"3-4\",\"4517\",\"37\",\"1\",\"Training\",\"Stims/Figures/7-J-10-4.bmp\",\"va:fa:va\",\"Left\",\"37\",\"3\",\"2\",\"6A\",\"C1\",\"C\",\"34\"
\"\",\"\",\"approach-retreat\",\"38\",\"337655\",\"0.0-38.0\",\"\",\"\",\"3-4\",\"4470\",\"39\",\"1\",\"Training\",\"Stims/Figures/144-J-10-3.bmp\",\"vafasha\",\"Right\",\"39\",\"3\",\"3\",\"6A\",\"C1\",\"C\",\"35\"
\"\",\"\",\"approach-retreat\",\"39\",\"344434\",\"0.0-39.0\",\"\",\"\",\"3-4\",\"5264\",\"38\",\"1\",\"Training\",\"Stims/Figures/44-J-10-3.bmp\",\"fa:fa:sha\",\"Up\",\"38\",\"3\",\"4\",\"6A\",\"C1\",\"C\",\"36\"
\"\",\"\",\"approach-retreat\",\"40\",\"350241\",\"0.0-40.0\",\"\",\"\",\"3-4\",\"4290\",\"37\",\"0\",\"Training\",\"Stims/Figures/139-C-20-2.bmp\",\"sasa:za\",\"Left\",\"39\",\"3\",\"5\",\"6A\",\"C2\",\"C\",\"37\"
\"\",\"\",\"approach-retreat\",\"41\",\"356316\",\"0.0-41.0\",\"\",\"\",\"3-4\",\"4558\",\"40\",\"0\",\"Training\",\"Stims/Figures/57-C-30-1.bmp\",\"sa:haza\",\"Down\",\"38\",\"3\",\"6\",\"6A\",\"C2\",\"C\",\"38\"
\"\",\"\",\"approach-retreat\",\"42\",\"362111\",\"0.0-42.0\",\"\",\"\",\"3-4\",\"4283\",\"39\",\"1\",\"Training\",\"Stims/Figures/74-J-10-4.bmp\",\"fafa:sha\",\"Right\",\"39\",\"3\",\"7\",\"6A\",\"C1\",\"C\",\"39\"
\"\",\"\",\"approach-retreat\",\"43\",\"367875\",\"0.0-43.0\",\"\",\"\",\"3-4\",\"4246\",\"37\",\"0\",\"Training\",\"Stims/Figures/144-C-30-3.bmp\",\"sahaha\",\"Left\",\"39\",\"3\",\"8\",\"6A\",\"C2\",\"C\",\"40\"
\"\",\"\",\"approach-retreat\",\"44\",\"374830\",\"0.0-44.0\",\"\",\"\",\"3-4\",\"5440\",\"40\",\"0\",\"Training\",\"Stims/Figures/139-J-0-2.bmp\",\"fa:shava\",\"Up\",\"38\",\"3\",\"9\",\"6A\",\"C1\",\"C\",\"41\"
\"\",\"\",\"approach-retreat\",\"45\",\"380846\",\"0.0-45.0\",\"\",\"\",\"3-4\",\"4501\",\"40\",\"1\",\"Training\",\"Stims/Figures/57-J-0-1.bmp\",\"vashasha\",\"Down\",\"40\",\"3\",\"10\",\"6A\",\"C1\",\"C\",\"42\"
\"\",\"\",\"approach-retreat\",\"46\",\"387935\",\"0.0-46.0\",\"\",\"\",\"3-4\",\"5571\",\"40\",\"1\",\"Training\",\"Stims/Figures/86-C-30-1.bmp\",\"za:ha:za\",\"Up\",\"40\",\"3\",\"11\",\"6A\",\"C2\",\"C\",\"43\"
\"\",\"\",\"approach-retreat\",\"47\",\"394021\",\"0.0-47.0\",\"\",\"\",\"3-4\",\"4574\",\"38\",\"1\",\"Training\",\"Stims/Figures/44-C-30-3.bmp\",\"za:haza\",\"Down\",\"38\",\"3\",\"12\",\"6A\",\"C2\",\"C\",\"44\"
\"\",\"\",\"approach-retreat\",\"48\",\"400400\",\"0.0-48.0\",\"\",\"\",\"3-4\",\"4866\",\"37\",\"1\",\"Training\",\"Stims/Figures/7-C-20-4.bmp\",\"zasaza\",\"Right\",\"37\",\"3\",\"13\",\"6A\",\"C2\",\"C\",\"45\"
\"\",\"\",\"approach-retreat\",\"49\",\"406730\",\"0.0-49.0\",\"\",\"\",\"3-4\",\"4815\",\"39\",\"1\",\"Training\",\"Stims/Figures/84-J-0-2.bmp\",\"fasha:sha\",\"Right\",\"39\",\"3\",\"14\",\"6A\",\"C1\",\"C\",\"46\"
\"\",\"\",\"approach-retreat\",\"50\",\"412949\",\"0.0-50.0\",\"\",\"\",\"3-4\",\"4712\",\"40\",\"0\",\"Training\",\"Stims/Figures/74-C-20-4.bmp\",\"zaha:za\",\"Down\",\"38\",\"3\",\"15\",\"6A\",\"C2\",\"C\",\"47\"
\"\",\"\",\"approach-retreat\",\"51\",\"418953\",\"0.0-51.0\",\"\",\"\",\"3-4\",\"4491\",\"38\",\"0\",\"Training\",\"Stims/Figures/84-C-20-2.bmp\",\"za:sa:za\",\"Up\",\"40\",\"3\",\"16\",\"6A\",\"C2\",\"C\",\"48\"
\"\",\"\",\"approach-retreat\",\"52\",\"425180\",\"0.0-52.0\",\"\",\"\",\"3-4\",\"4712\",\"37\",\"1\",\"Training\",\"Stims/Figures/7-J-10-4.bmp\",\"va:fa:va\",\"Left\",\"37\",\"4\",\"1\",\"6A\",\"C1\",\"C\",\"49\"
\"\",\"\",\"approach-retreat\",\"53\",\"431088\",\"0.0-53.0\",\"\",\"\",\"3-4\",\"4393\",\"37\",\"0\",\"Training\",\"Stims/Figures/7-C-20-4.bmp\",\"zasaza\",\"Left\",\"39\",\"4\",\"2\",\"6A\",\"C2\",\"C\",\"50\"
\"\",\"\",\"approach-retreat\",\"54\",\"437045\",\"0.0-54.0\",\"\",\"\",\"3-4\",\"4441\",\"40\",\"0\",\"Training\",\"Stims/Figures/144-C-30-3.bmp\",\"sahaha\",\"Down\",\"38\",\"4\",\"3\",\"6A\",\"C2\",\"C\",\"51\"
\"\",\"\",\"approach-retreat\",\"55\",\"443028\",\"0.0-55.0\",\"\",\"\",\"3-4\",\"4471\",\"39\",\"0\",\"Training\",\"Stims/Figures/74-J-10-4.bmp\",\"fafa:sha\",\"Left\",\"37\",\"4\",\"4\",\"6A\",\"C1\",\"C\",\"52\"
\"\",\"\",\"approach-retreat\",\"56\",\"449104\",\"0.0-56.0\",\"\",\"\",\"3-4\",\"4562\",\"40\",\"0\",\"Training\",\"Stims/Figures/86-J-0-1.bmp\",\"fa:fa:va\",\"Up\",\"38\",\"4\",\"5\",\"6A\",\"C1\",\"C\",\"53\"
\"\",\"\",\"approach-retreat\",\"57\",\"455186\",\"0.0-57.0\",\"\",\"\",\"3-4\",\"4563\",\"39\",\"1\",\"Training\",\"Stims/Figures/84-J-0-2.bmp\",\"fasha:sha\",\"Right\",\"39\",\"4\",\"6\",\"6A\",\"C1\",\"C\",\"54\"
\"\",\"\",\"approach-retreat\",\"58\",\"472702\",\"0.0-58.0\",\"\",\"\",\"3-4\",\"16004\",\"40\",\"1\",\"Training\",\"Stims/Figures/139-J-0-2.bmp\",\"fa:shava\",\"Down\",\"40\",\"4\",\"7\",\"6A\",\"C1\",\"C\",\"55\"
\"\",\"\",\"approach-retreat\",\"59\",\"479306\",\"0.0-59.0\",\"\",\"\",\"3-4\",\"5085\",\"38\",\"0\",\"Training\",\"Stims/Figures/86-C-30-1.bmp\",\"za:ha:za\",\"Up\",\"40\",\"4\",\"8\",\"6A\",\"C2\",\"C\",\"56\"
\"\",\"\",\"approach-retreat\",\"60\",\"485359\",\"0.0-60.0\",\"\",\"\",\"3-4\",\"4539\",\"37\",\"1\",\"Training\",\"Stims/Figures/57-J-0-1.bmp\",\"vashasha\",\"Left\",\"37\",\"4\",\"9\",\"6A\",\"C1\",\"C\",\"57\"
\"\",\"\",\"approach-retreat\",\"61\",\"492050\",\"0.0-61.0\",\"\",\"\",\"3-4\",\"5177\",\"40\",\"0\",\"Training\",\"Stims/Figures/139-C-20-2.bmp\",\"sasa:za\",\"Down\",\"38\",\"4\",\"10\",\"6A\",\"C2\",\"C\",\"58\"
\"\",\"\",\"approach-retreat\",\"62\",\"497865\",\"0.0-62.0\",\"\",\"\",\"3-4\",\"4303\",\"37\",\"0\",\"Training\",\"Stims/Figures/144-J-10-3.bmp\",\"vafasha\",\"Right\",\"39\",\"4\",\"11\",\"6A\",\"C1\",\"C\",\"59\"
\"\",\"\",\"approach-retreat\",\"63\",\"503795\",\"0.0-63.0\",\"\",\"\",\"3-4\",\"4416\",\"37\",\"1\",\"Training\",\"Stims/Figures/84-C-20-2.bmp\",\"za:sa:za\",\"Right\",\"37\",\"4\",\"12\",\"6A\",\"C2\",\"C\",\"60\"
\"\",\"\",\"approach-retreat\",\"64\",\"512620\",\"0.0-64.0\",\"\",\"\",\"3-4\",\"7314\",\"38\",\"1\",\"Training\",\"Stims/Figures/74-C-20-4.bmp\",\"zaha:za\",\"Down\",\"38\",\"4\",\"13\",\"6A\",\"C2\",\"C\",\"61\"
\"\",\"\",\"approach-retreat\",\"65\",\"518220\",\"0.0-65.0\",\"\",\"\",\"3-4\",\"4086\",\"40\",\"1\",\"Training\",\"Stims/Figures/57-C-30-1.bmp\",\"sa:haza\",\"Up\",\"40\",\"4\",\"14\",\"6A\",\"C2\",\"C\",\"62\"
\"\",\"\",\"approach-retreat\",\"66\",\"523841\",\"0.0-66.0\",\"\",\"\",\"3-4\",\"4104\",\"40\",\"1\",\"Training\",\"Stims/Figures/44-C-30-3.bmp\",\"za:haza\",\"Up\",\"40\",\"4\",\"15\",\"6A\",\"C2\",\"C\",\"63\"
\"\",\"\",\"approach-retreat\",\"67\",\"529502\",\"0.0-67.0\",\"\",\"\",\"3-4\",\"4144\",\"37\",\"0\",\"Training\",\"Stims/Figures/44-J-10-3.bmp\",\"fa:fa:sha\",\"Right\",\"39\",\"4\",\"16\",\"6A\",\"C1\",\"C\",\"64\"
\"\",\"\",\"approach-retreat\",\"68\",\"536073\",\"0.0-68.0\",\"\",\"\",\"3-4\",\"5056\",\"37\",\"0\",\"Training\",\"Stims/Figures/74-J-10-4.bmp\",\"fafa:sha\",\"Right\",\"39\",\"5\",\"1\",\"6A\",\"C1\",\"C\",\"65\"
\"\",\"\",\"approach-retreat\",\"69\",\"541978\",\"0.0-69.0\",\"\",\"\",\"3-4\",\"4390\",\"40\",\"1\",\"Training\",\"Stims/Figures/7-C-20-4.bmp\",\"zasaza\",\"Up\",\"40\",\"5\",\"2\",\"6A\",\"C2\",\"C\",\"66\"
\"\",\"\",\"approach-retreat\",\"70\",\"547710\",\"0.0-70.0\",\"\",\"\",\"3-4\",\"4218\",\"37\",\"0\",\"Training\",\"Stims/Figures/44-J-10-3.bmp\",\"fa:fa:sha\",\"Right\",\"39\",\"5\",\"3\",\"6A\",\"C1\",\"C\",\"67\"
\"\",\"\",\"approach-retreat\",\"71\",\"553605\",\"0.0-71.0\",\"\",\"\",\"3-4\",\"4384\",\"39\",\"0\",\"Training\",\"Stims/Figures/86-C-30-1.bmp\",\"za:ha:za\",\"Right\",\"37\",\"5\",\"4\",\"6A\",\"C2\",\"C\",\"68\"
\"\",\"\",\"approach-retreat\",\"72\",\"559940\",\"0.0-72.0\",\"\",\"\",\"3-4\",\"4822\",\"40\",\"1\",\"Training\",\"Stims/Figures/144-C-30-3.bmp\",\"sahaha\",\"Up\",\"40\",\"5\",\"5\",\"6A\",\"C2\",\"C\",\"69\"
\"\",\"\",\"approach-retreat\",\"73\",\"566173\",\"0.0-73.0\",\"\",\"\",\"3-4\",\"4719\",\"37\",\"1\",\"Training\",\"Stims/Figures/86-J-0-1.bmp\",\"fa:fa:va\",\"Left\",\"37\",\"5\",\"6\",\"6A\",\"C1\",\"C\",\"70\"
\"\",\"\",\"approach-retreat\",\"74\",\"572304\",\"0.0-74.0\",\"\",\"\",\"3-4\",\"4616\",\"39\",\"1\",\"Training\",\"Stims/Figures/84-J-0-2.bmp\",\"fasha:sha\",\"Right\",\"39\",\"5\",\"7\",\"6A\",\"C1\",\"C\",\"71\"
\"\",\"\",\"approach-retreat\",\"75\",\"577853\",\"0.0-75.0\",\"\",\"\",\"3-4\",\"4037\",\"40\",\"1\",\"Training\",\"Stims/Figures/7-J-10-4.bmp\",\"va:fa:va\",\"Down\",\"40\",\"5\",\"8\",\"6A\",\"C1\",\"C\",\"72\"
\"\",\"\",\"approach-retreat\",\"76\",\"584639\",\"0.0-76.0\",\"\",\"\",\"3-4\",\"5269\",\"40\",\"0\",\"Training\",\"Stims/Figures/57-C-30-1.bmp\",\"sa:haza\",\"Down\",\"38\",\"5\",\"9\",\"6A\",\"C2\",\"C\",\"73\"
\"\",\"\",\"approach-retreat\",\"77\",\"590412\",\"0.0-77.0\",\"\",\"\",\"3-4\",\"4257\",\"40\",\"1\",\"Training\",\"Stims/Figures/74-C-20-4.bmp\",\"zaha:za\",\"Up\",\"40\",\"5\",\"10\",\"6A\",\"C2\",\"C\",\"74\"
\"\",\"\",\"approach-retreat\",\"78\",\"596052\",\"0.0-78.0\",\"\",\"\",\"3-4\",\"4127\",\"40\",\"1\",\"Training\",\"Stims/Figures/57-J-0-1.bmp\",\"vashasha\",\"Down\",\"40\",\"5\",\"11\",\"6A\",\"C1\",\"C\",\"75\"
\"\",\"\",\"approach-retreat\",\"79\",\"604134\",\"0.0-79.0\",\"\",\"\",\"3-4\",\"6567\",\"37\",\"0\",\"Training\",\"Stims/Figures/84-C-20-2.bmp\",\"za:sa:za\",\"Left\",\"39\",\"5\",\"12\",\"6A\",\"C2\",\"C\",\"76\"
\"\",\"\",\"approach-retreat\",\"80\",\"610217\",\"0.0-80.0\",\"\",\"\",\"3-4\",\"4571\",\"39\",\"1\",\"Training\",\"Stims/Figures/139-C-20-2.bmp\",\"sasa:za\",\"Left\",\"39\",\"5\",\"13\",\"6A\",\"C2\",\"C\",\"77\"
\"\",\"\",\"approach-retreat\",\"81\",\"616239\",\"0.0-81.0\",\"\",\"\",\"3-4\",\"4509\",\"40\",\"0\",\"Training\",\"Stims/Figures/144-J-10-3.bmp\",\"vafasha\",\"Up\",\"38\",\"5\",\"14\",\"6A\",\"C1\",\"C\",\"78\"
\"\",\"\",\"approach-retreat\",\"82\",\"623769\",\"0.0-82.0\",\"\",\"\",\"3-4\",\"6012\",\"38\",\"1\",\"Training\",\"Stims/Figures/44-C-30-3.bmp\",\"za:haza\",\"Down\",\"38\",\"5\",\"15\",\"6A\",\"C2\",\"C\",\"79\"
\"\",\"\",\"approach-retreat\",\"83\",\"629938\",\"0.0-83.0\",\"\",\"\",\"3-4\",\"4656\",\"39\",\"0\",\"Training\",\"Stims/Figures/139-J-0-2.bmp\",\"fa:shava\",\"Left\",\"37\",\"5\",\"16\",\"6A\",\"C1\",\"C\",\"80\"
\"\",\"\",\"approach-retreat\",\"84\",\"635947\",\"0.0-84.0\",\"\",\"\",\"3-4\",\"4491\",\"37\",\"0\",\"Training\",\"Stims/Figures/7-C-20-4.bmp\",\"zasaza\",\"Left\",\"39\",\"6\",\"1\",\"6A\",\"C2\",\"C\",\"81\"
\"\",\"\",\"approach-retreat\",\"85\",\"643527\",\"0.0-85.0\",\"\",\"\",\"3-4\",\"6066\",\"39\",\"1\",\"Training\",\"Stims/Figures/139-J-0-2.bmp\",\"fa:shava\",\"Right\",\"39\",\"6\",\"2\",\"6A\",\"C1\",\"C\",\"82\"
\"\",\"\",\"approach-retreat\",\"86\",\"650296\",\"0.0-86.0\",\"\",\"\",\"3-4\",\"5256\",\"40\",\"0\",\"Training\",\"Stims/Figures/57-J-0-1.bmp\",\"vashasha\",\"Up\",\"38\",\"6\",\"3\",\"6A\",\"C1\",\"C\",\"83\"
\"\",\"\",\"approach-retreat\",\"87\",\"656332\",\"0.0-87.0\",\"\",\"\",\"3-4\",\"4518\",\"38\",\"1\",\"Training\",\"Stims/Figures/74-C-20-4.bmp\",\"zaha:za\",\"Down\",\"38\",\"6\",\"4\",\"6A\",\"C2\",\"C\",\"84\"
\"\",\"\",\"approach-retreat\",\"88\",\"661938\",\"0.0-88.0\",\"\",\"\",\"3-4\",\"4092\",\"37\",\"1\",\"Training\",\"Stims/Figures/44-C-30-3.bmp\",\"za:haza\",\"Right\",\"37\",\"6\",\"5\",\"6A\",\"C2\",\"C\",\"85\"
\"\",\"\",\"approach-retreat\",\"89\",\"667730\",\"0.0-89.0\",\"\",\"\",\"3-4\",\"4287\",\"38\",\"1\",\"Training\",\"Stims/Figures/57-C-30-1.bmp\",\"sa:haza\",\"Down\",\"38\",\"6\",\"6\",\"6A\",\"C2\",\"C\",\"86\"
\"\",\"\",\"approach-retreat\",\"90\",\"673630\",\"0.0-90.0\",\"\",\"\",\"3-4\",\"4384\",\"37\",\"1\",\"Training\",\"Stims/Figures/144-C-30-3.bmp\",\"sahaha\",\"Right\",\"37\",\"6\",\"7\",\"6A\",\"C2\",\"C\",\"87\"
\"\",\"\",\"approach-retreat\",\"91\",\"681277\",\"0.0-91.0\",\"\",\"\",\"3-4\",\"6131\",\"38\",\"0\",\"Training\",\"Stims/Figures/7-J-10-4.bmp\",\"va:fa:va\",\"Down\",\"40\",\"6\",\"8\",\"6A\",\"C1\",\"C\",\"88\"
\"\",\"\",\"approach-retreat\",\"92\",\"687364\",\"0.0-92.0\",\"\",\"\",\"3-4\",\"4572\",\"40\",\"0\",\"Training\",\"Stims/Figures/74-J-10-4.bmp\",\"fafa:sha\",\"Up\",\"38\",\"6\",\"9\",\"6A\",\"C1\",\"C\",\"89\"
\"\",\"\",\"approach-retreat\",\"93\",\"693935\",\"0.0-93.0\",\"\",\"\",\"3-4\",\"5063\",\"37\",\"0\",\"Training\",\"Stims/Figures/139-C-20-2.bmp\",\"sasa:za\",\"Left\",\"39\",\"6\",\"10\",\"6A\",\"C2\",\"C\",\"90\"
\"\",\"\",\"approach-retreat\",\"94\",\"699656\",\"0.0-94.0\",\"\",\"\",\"3-4\",\"4210\",\"37\",\"0\",\"Training\",\"Stims/Figures/86-J-0-1.bmp\",\"fa:fa:va\",\"Right\",\"39\",\"6\",\"11\",\"6A\",\"C1\",\"C\",\"91\"
\"\",\"\",\"approach-retreat\",\"95\",\"705499\",\"0.0-95.0\",\"\",\"\",\"3-4\",\"4331\",\"39\",\"0\",\"Training\",\"Stims/Figures/84-J-0-2.bmp\",\"fasha:sha\",\"Left\",\"37\",\"6\",\"12\",\"6A\",\"C1\",\"C\",\"92\"
\"\",\"\",\"approach-retreat\",\"96\",\"712173\",\"0.0-96.0\",\"\",\"\",\"3-4\",\"5161\",\"37\",\"1\",\"Training\",\"Stims/Figures/44-J-10-3.bmp\",\"fa:fa:sha\",\"Left\",\"37\",\"6\",\"13\",\"6A\",\"C1\",\"C\",\"93\"
\"\",\"\",\"approach-retreat\",\"97\",\"726060\",\"0.0-97.0\",\"\",\"\",\"3-4\",\"12368\",\"40\",\"0\",\"Training\",\"Stims/Figures/144-J-10-3.bmp\",\"vafasha\",\"Up\",\"38\",\"6\",\"14\",\"6A\",\"C1\",\"C\",\"94\"
\"\",\"\",\"approach-retreat\",\"98\",\"733314\",\"0.0-98.0\",\"\",\"\",\"3-4\",\"5749\",\"38\",\"1\",\"Training\",\"Stims/Figures/84-C-20-2.bmp\",\"za:sa:za\",\"Down\",\"38\",\"6\",\"15\",\"6A\",\"C2\",\"C\",\"95\"
\"\",\"\",\"approach-retreat\",\"99\",\"739971\",\"0.0-99.0\",\"\",\"\",\"3-4\",\"5145\",\"40\",\"1\",\"Training\",\"Stims/Figures/86-C-30-1.bmp\",\"za:ha:za\",\"Up\",\"40\",\"6\",\"16\",\"6A\",\"C2\",\"C\",\"96\"
\"\",\"\",\"approach-retreat\",\"100\",\"746262\",\"0.0-100.0\",\"\",\"\",\"3-4\",\"4776\",\"38\",\"1\",\"Training\",\"Stims/Figures/44-C-30-3.bmp\",\"za:haza\",\"Down\",\"38\",\"7\",\"1\",\"6A\",\"C2\",\"C\",\"97\"
\"\",\"\",\"approach-retreat\",\"101\",\"753539\",\"0.0-101.0\",\"\",\"\",\"3-4\",\"5763\",\"39\",\"1\",\"Training\",\"Stims/Figures/139-C-20-2.bmp\",\"sasa:za\",\"Left\",\"39\",\"7\",\"2\",\"6A\",\"C2\",\"C\",\"98\"
\"\",\"\",\"approach-retreat\",\"102\",\"760253\",\"0.0-102.0\",\"\",\"\",\"3-4\",\"5199\",\"40\",\"1\",\"Training\",\"Stims/Figures/86-J-0-1.bmp\",\"fa:fa:va\",\"Down\",\"40\",\"7\",\"3\",\"6A\",\"C1\",\"C\",\"99\"
\"\",\"\",\"approach-retreat\",\"103\",\"766236\",\"0.0-103.0\",\"\",\"\",\"3-4\",\"4471\",\"37\",\"1\",\"Training\",\"Stims/Figures/57-J-0-1.bmp\",\"vashasha\",\"Left\",\"37\",\"7\",\"4\",\"6A\",\"C1\",\"C\",\"100\"
\"\",\"\",\"approach-retreat\",\"104\",\"772237\",\"0.0-104.0\",\"\",\"\",\"3-4\",\"4484\",\"39\",\"0\",\"Training\",\"Stims/Figures/86-C-30-1.bmp\",\"za:ha:za\",\"Right\",\"37\",\"7\",\"5\",\"6A\",\"C2\",\"C\",\"101\"
\"\",\"\",\"approach-retreat\",\"105\",\"779710\",\"0.0-105.0\",\"\",\"\",\"3-4\",\"5959\",\"39\",\"1\",\"Training\",\"Stims/Figures/44-J-10-3.bmp\",\"fa:fa:sha\",\"Right\",\"39\",\"7\",\"6\",\"6A\",\"C1\",\"C\",\"102\"
\"\",\"\",\"approach-retreat\",\"106\",\"786256\",\"0.0-106.0\",\"\",\"\",\"3-4\",\"5029\",\"40\",\"1\",\"Training\",\"Stims/Figures/74-C-20-4.bmp\",\"zaha:za\",\"Up\",\"40\",\"7\",\"7\",\"6A\",\"C2\",\"C\",\"103\"
\"\",\"\",\"approach-retreat\",\"107\",\"792155\",\"0.0-107.0\",\"\",\"\",\"3-4\",\"4385\",\"37\",\"1\",\"Training\",\"Stims/Figures/84-J-0-2.bmp\",\"fasha:sha\",\"Left\",\"37\",\"7\",\"8\",\"6A\",\"C1\",\"C\",\"104\"
\"\",\"\",\"approach-retreat\",\"108\",\"799865\",\"0.0-108.0\",\"\",\"\",\"3-4\",\"6199\",\"38\",\"1\",\"Training\",\"Stims/Figures/144-J-10-3.bmp\",\"vafasha\",\"Up\",\"38\",\"7\",\"9\",\"6A\",\"C1\",\"C\",\"105\"
\"\",\"\",\"approach-retreat\",\"109\",\"806491\",\"0.0-109.0\",\"\",\"\",\"3-4\",\"5115\",\"40\",\"1\",\"Training\",\"Stims/Figures/57-C-30-1.bmp\",\"sa:haza\",\"Up\",\"40\",\"7\",\"10\",\"6A\",\"C2\",\"C\",\"106\"
\"\",\"\",\"approach-retreat\",\"110\",\"814120\",\"0.0-110.0\",\"\",\"\",\"3-4\",\"6115\",\"38\",\"1\",\"Training\",\"Stims/Figures/7-C-20-4.bmp\",\"zasaza\",\"Down\",\"38\",\"7\",\"11\",\"6A\",\"C2\",\"C\",\"107\"
\"\",\"\",\"approach-retreat\",\"111\",\"820395\",\"0.0-111.0\",\"\",\"\",\"3-4\",\"4760\",\"39\",\"1\",\"Training\",\"Stims/Figures/139-J-0-2.bmp\",\"fa:shava\",\"Right\",\"39\",\"7\",\"12\",\"6A\",\"C1\",\"C\",\"108\"
\"\",\"\",\"approach-retreat\",\"112\",\"826131\",\"0.0-112.0\",\"\",\"\",\"3-4\",\"4224\",\"40\",\"1\",\"Training\",\"Stims/Figures/84-C-20-2.bmp\",\"za:sa:za\",\"Up\",\"40\",\"7\",\"13\",\"6A\",\"C2\",\"C\",\"109\"
\"\",\"\",\"approach-retreat\",\"113\",\"831835\",\"0.0-113.0\",\"\",\"\",\"3-4\",\"4187\",\"39\",\"1\",\"Training\",\"Stims/Figures/144-C-30-3.bmp\",\"sahaha\",\"Left\",\"39\",\"7\",\"14\",\"6A\",\"C2\",\"C\",\"110\"
\"\",\"\",\"approach-retreat\",\"114\",\"837986\",\"0.0-114.0\",\"\",\"\",\"3-4\",\"4636\",\"37\",\"0\",\"Training\",\"Stims/Figures/74-J-10-4.bmp\",\"fafa:sha\",\"Right\",\"39\",\"7\",\"15\",\"6A\",\"C1\",\"C\",\"111\"
\"\",\"\",\"approach-retreat\",\"115\",\"844642\",\"0.0-115.0\",\"\",\"\",\"3-4\",\"5134\",\"40\",\"1\",\"Training\",\"Stims/Figures/7-J-10-4.bmp\",\"va:fa:va\",\"Down\",\"40\",\"7\",\"16\",\"6A\",\"C1\",\"C\",\"112\"
\"\",\"\",\"approach-retreat\",\"116\",\"851580\",\"0.0-116.0\",\"\",\"\",\"3-4\",\"5425\",\"37\",\"0\",\"Training\",\"Stims/Figures/144-C-30-3.bmp\",\"sahaha\",\"Left\",\"39\",\"8\",\"1\",\"6A\",\"C2\",\"C\",\"113\"
\"\",\"\",\"approach-retreat\",\"117\",\"857819\",\"0.0-117.0\",\"\",\"\",\"3-4\",\"4726\",\"38\",\"1\",\"Training\",\"Stims/Figures/57-J-0-1.bmp\",\"vashasha\",\"Up\",\"38\",\"8\",\"2\",\"6A\",\"C1\",\"C\",\"114\"
\"\",\"\",\"approach-retreat\",\"118\",\"863529\",\"0.0-118.0\",\"\",\"\",\"3-4\",\"4197\",\"39\",\"1\",\"Training\",\"Stims/Figures/44-J-10-3.bmp\",\"fa:fa:sha\",\"Right\",\"39\",\"8\",\"3\",\"6A\",\"C1\",\"C\",\"115\"
\"\",\"\",\"approach-retreat\",\"119\",\"869978\",\"0.0-119.0\",\"\",\"\",\"3-4\",\"4937\",\"38\",\"1\",\"Training\",\"Stims/Figures/139-J-0-2.bmp\",\"fa:shava\",\"Up\",\"38\",\"8\",\"4\",\"6A\",\"C1\",\"C\",\"116\"
\"\",\"\",\"approach-retreat\",\"120\",\"875754\",\"0.0-120.0\",\"\",\"\",\"3-4\",\"4256\",\"38\",\"1\",\"Training\",\"Stims/Figures/86-J-0-1.bmp\",\"fa:fa:va\",\"Up\",\"38\",\"8\",\"5\",\"6A\",\"C1\",\"C\",\"117\"
\"\",\"\",\"approach-retreat\",\"121\",\"881526\",\"0.0-121.0\",\"\",\"\",\"3-4\",\"4260\",\"39\",\"1\",\"Training\",\"Stims/Figures/144-J-10-3.bmp\",\"vafasha\",\"Right\",\"39\",\"8\",\"6\",\"6A\",\"C1\",\"C\",\"118\"
\"\",\"\",\"approach-retreat\",\"122\",\"888212\",\"0.0-122.0\",\"\",\"\",\"3-4\",\"5170\",\"38\",\"1\",\"Training\",\"Stims/Figures/74-C-20-4.bmp\",\"zaha:za\",\"Down\",\"38\",\"8\",\"7\",\"6A\",\"C2\",\"C\",\"119\"
\"\",\"\",\"approach-retreat\",\"123\",\"894500\",\"0.0-123.0\",\"\",\"\",\"3-4\",\"4776\",\"38\",\"1\",\"Training\",\"Stims/Figures/7-C-20-4.bmp\",\"zasaza\",\"Down\",\"38\",\"8\",\"8\",\"6A\",\"C2\",\"C\",\"120\"
\"\",\"\",\"approach-retreat\",\"124\",\"900024\",\"0.0-124.0\",\"\",\"\",\"3-4\",\"4012\",\"38\",\"1\",\"Training\",\"Stims/Figures/139-C-20-2.bmp\",\"sasa:za\",\"Down\",\"38\",\"8\",\"9\",\"6A\",\"C2\",\"C\",\"121\"
\"\",\"\",\"approach-retreat\",\"125\",\"906524\",\"0.0-125.0\",\"\",\"\",\"3-4\",\"4983\",\"38\",\"1\",\"Training\",\"Stims/Figures/7-J-10-4.bmp\",\"va:fa:va\",\"Up\",\"38\",\"8\",\"10\",\"6A\",\"C1\",\"C\",\"122\"
\"\",\"\",\"approach-retreat\",\"126\",\"912628\",\"0.0-126.0\",\"\",\"\",\"3-4\",\"4592\",\"37\",\"1\",\"Training\",\"Stims/Figures/57-C-30-1.bmp\",\"sa:haza\",\"Right\",\"37\",\"8\",\"11\",\"6A\",\"C2\",\"C\",\"123\"
\"\",\"\",\"approach-retreat\",\"127\",\"918261\",\"0.0-127.0\",\"\",\"\",\"3-4\",\"4115\",\"39\",\"1\",\"Training\",\"Stims/Figures/74-J-10-4.bmp\",\"fafa:sha\",\"Right\",\"39\",\"8\",\"12\",\"6A\",\"C1\",\"C\",\"124\"
\"\",\"\",\"approach-retreat\",\"128\",\"924204\",\"0.0-128.0\",\"\",\"\",\"3-4\",\"4431\",\"37\",\"1\",\"Training\",\"Stims/Figures/84-J-0-2.bmp\",\"fasha:sha\",\"Left\",\"37\",\"8\",\"13\",\"6A\",\"C1\",\"C\",\"125\"
\"\",\"\",\"approach-retreat\",\"129\",\"930336\",\"0.0-129.0\",\"\",\"\",\"3-4\",\"4614\",\"39\",\"1\",\"Training\",\"Stims/Figures/44-C-30-3.bmp\",\"za:haza\",\"Left\",\"39\",\"8\",\"14\",\"6A\",\"C2\",\"C\",\"126\"
\"\",\"\",\"approach-retreat\",\"130\",\"936160\",\"0.0-130.0\",\"\",\"\",\"3-4\",\"4308\",\"38\",\"1\",\"Training\",\"Stims/Figures/84-C-20-2.bmp\",\"za:sa:za\",\"Down\",\"38\",\"8\",\"15\",\"6A\",\"C2\",\"C\",\"127\"
\"\",\"\",\"approach-retreat\",\"131\",\"941973\",\"0.0-131.0\",\"\",\"\",\"3-4\",\"4301\",\"39\",\"1\",\"Training\",\"Stims/Figures/86-C-30-1.bmp\",\"za:ha:za\",\"Left\",\"39\",\"8\",\"16\",\"6A\",\"C2\",\"C\",\"128\"
\"\",\"\",\"approach-retreat\",\"132\",\"948333\",\"0.0-132.0\",\"\",\"\",\"3-4\",\"4843\",\"37\",\"1\",\"Training\",\"Stims/Figures/7-C-20-4.bmp\",\"zasaza\",\"Right\",\"37\",\"9\",\"1\",\"6A\",\"C2\",\"C\",\"129\"
\"\",\"\",\"approach-retreat\",\"133\",\"955340\",\"0.0-133.0\",\"\",\"\",\"3-4\",\"5492\",\"37\",\"1\",\"Training\",\"Stims/Figures/84-J-0-2.bmp\",\"fasha:sha\",\"Left\",\"37\",\"9\",\"2\",\"6A\",\"C1\",\"C\",\"130\"
\"\",\"\",\"approach-retreat\",\"134\",\"961293\",\"0.0-134.0\",\"\",\"\",\"3-4\",\"4438\",\"40\",\"1\",\"Training\",\"Stims/Figures/86-C-30-1.bmp\",\"za:ha:za\",\"Up\",\"40\",\"9\",\"3\",\"6A\",\"C2\",\"C\",\"131\"
\"\",\"\",\"approach-retreat\",\"135\",\"967265\",\"0.0-135.0\",\"\",\"\",\"3-4\",\"4457\",\"40\",\"1\",\"Training\",\"Stims/Figures/139-C-20-2.bmp\",\"sasa:za\",\"Up\",\"40\",\"9\",\"4\",\"6A\",\"C2\",\"C\",\"132\"
\"\",\"\",\"approach-retreat\",\"136\",\"972870\",\"0.0-136.0\",\"\",\"\",\"3-4\",\"4087\",\"39\",\"0\",\"Training\",\"Stims/Figures/74-C-20-4.bmp\",\"zaha:za\",\"Right\",\"37\",\"9\",\"5\",\"6A\",\"C2\",\"C\",\"133\"
\"\",\"\",\"approach-retreat\",\"137\",\"979216\",\"0.0-137.0\",\"\",\"\",\"3-4\",\"4830\",\"40\",\"1\",\"Training\",\"Stims/Figures/144-J-10-3.bmp\",\"vafasha\",\"Down\",\"40\",\"9\",\"6\",\"6A\",\"C1\",\"C\",\"134\"
\"\",\"\",\"approach-retreat\",\"138\",\"985575\",\"0.0-138.0\",\"\",\"\",\"3-4\",\"4842\",\"37\",\"1\",\"Training\",\"Stims/Figures/44-C-30-3.bmp\",\"za:haza\",\"Right\",\"37\",\"9\",\"7\",\"6A\",\"C2\",\"C\",\"135\"
\"\",\"\",\"approach-retreat\",\"139\",\"991548\",\"0.0-139.0\",\"\",\"\",\"3-4\",\"4457\",\"37\",\"1\",\"Training\",\"Stims/Figures/57-C-30-1.bmp\",\"sa:haza\",\"Right\",\"37\",\"9\",\"8\",\"6A\",\"C2\",\"C\",\"136\"
\"\",\"\",\"approach-retreat\",\"140\",\"997363\",\"0.0-140.0\",\"\",\"\",\"3-4\",\"4302\",\"40\",\"1\",\"Training\",\"Stims/Figures/139-J-0-2.bmp\",\"fa:shava\",\"Down\",\"40\",\"9\",\"9\",\"6A\",\"C1\",\"C\",\"137\"
\"\",\"\",\"approach-retreat\",\"141\",\"1004073\",\"0.0-141.0\",\"\",\"\",\"3-4\",\"5196\",\"39\",\"1\",\"Training\",\"Stims/Figures/144-C-30-3.bmp\",\"sahaha\",\"Left\",\"39\",\"9\",\"10\",\"6A\",\"C2\",\"C\",\"138\"
\"\",\"\",\"approach-retreat\",\"142\",\"1010708\",\"0.0-142.0\",\"\",\"\",\"3-4\",\"5120\",\"38\",\"1\",\"Training\",\"Stims/Figures/86-J-0-1.bmp\",\"fa:fa:va\",\"Up\",\"38\",\"9\",\"11\",\"6A\",\"C1\",\"C\",\"139\"
\"\",\"\",\"approach-retreat\",\"143\",\"1017351\",\"0.0-143.0\",\"\",\"\",\"3-4\",\"5135\",\"37\",\"1\",\"Training\",\"Stims/Figures/74-J-10-4.bmp\",\"fafa:sha\",\"Left\",\"37\",\"9\",\"12\",\"6A\",\"C1\",\"C\",\"140\"
\"\",\"\",\"approach-retreat\",\"144\",\"1024441\",\"0.0-144.0\",\"\",\"\",\"3-4\",\"5576\",\"37\",\"1\",\"Training\",\"Stims/Figures/57-J-0-1.bmp\",\"vashasha\",\"Left\",\"37\",\"9\",\"13\",\"6A\",\"C1\",\"C\",\"141\"
\"\",\"\",\"approach-retreat\",\"145\",\"1031281\",\"0.0-145.0\",\"\",\"\",\"3-4\",\"5324\",\"40\",\"1\",\"Training\",\"Stims/Figures/7-J-10-4.bmp\",\"va:fa:va\",\"Down\",\"40\",\"9\",\"14\",\"6A\",\"C1\",\"C\",\"142\"
\"\",\"\",\"approach-retreat\",\"146\",\"1037750\",\"0.0-146.0\",\"\",\"\",\"3-4\",\"4956\",\"40\",\"1\",\"Training\",\"Stims/Figures/44-J-10-3.bmp\",\"fa:fa:sha\",\"Down\",\"40\",\"9\",\"15\",\"6A\",\"C1\",\"C\",\"143\"
\"\",\"\",\"approach-retreat\",\"147\",\"1044237\",\"0.0-147.0\",\"\",\"\",\"3-4\",\"4969\",\"40\",\"1\",\"Training\",\"Stims/Figures/84-C-20-2.bmp\",\"za:sa:za\",\"Up\",\"40\",\"9\",\"16\",\"6A\",\"C2\",\"C\",\"144\"
\"11952\",\"\",\"instructions\",\"148\",\"1056189\",\"0.0-148.0\",\"[{\"\"page_index\"\":0,\"\"viewing_time\"\":11951}]\",\"\",\"\",\"\",\"\",\"\",\"\",\"\",\"\",\"\",\"\",\"\",\"\",\"\",\"\",\"\",\"\"
\"\",\"\",\"approach-retreat\",\"149\",\"1062720\",\"0.0-149.0\",\"\",\"\",\"3-4\",\"5020\",\"39\",\"1\",\"Testing\",\"Stims/Figures/74-J-10-4.bmp\",\"fafa:sha\",\"Right\",\"39\",\"1\",\"1\",\"6A\",\"C1\",\"C\",\"1\"
\"\",\"\",\"approach-retreat\",\"150\",\"1068690\",\"0.0-150.0\",\"\",\"\",\"3-4\",\"4458\",\"38\",\"1\",\"Testing\",\"Stims/Figures/7-C-20-4.bmp\",\"zasaza\",\"Down\",\"38\",\"1\",\"2\",\"6A\",\"C2\",\"C\",\"2\"
\"\",\"\",\"approach-retreat\",\"151\",\"1074699\",\"0.0-151.0\",\"\",\"\",\"3-4\",\"4500\",\"37\",\"0\",\"Testing\",\"Stims/Figures/74-C-20-4.bmp\",\"zaha:za\",\"Left\",\"39\",\"1\",\"3\",\"6A\",\"C2\",\"C\",\"3\"
\"\",\"\",\"approach-retreat\",\"152\",\"1080810\",\"0.0-152.0\",\"\",\"\",\"3-4\",\"4599\",\"38\",\"1\",\"Testing\",\"Stims/Figures/7-J-10-4.bmp\",\"va:fa:va\",\"Up\",\"38\",\"1\",\"4\",\"6A\",\"C1\",\"C\",\"4\"
\"\",\"\",\"approach-retreat\",\"153\",\"1086684\",\"0.0-153.0\",\"\",\"\",\"3-4\",\"4365\",\"39\",\"0\",\"Testing\",\"Stims/Figures/19-C-20-4.bmp\",\"za:sa:ha\",\"Right\",\"37\",\"1\",\"5\",\"6A\",\"C2\",\"C\",\"5\"
\"\",\"\",\"approach-retreat\",\"154\",\"1092455\",\"0.0-154.0\",\"\",\"\",\"3-4\",\"4261\",\"40\",\"1\",\"Testing\",\"Stims/Figures/71-C-30-1.bmp\",\"sasaza\",\"Up\",\"40\",\"1\",\"6\",\"6A\",\"C2\",\"C\",\"6\"
\"\",\"\",\"approach-retreat\",\"155\",\"1098466\",\"0.0-155.0\",\"\",\"\",\"3-4\",\"4496\",\"37\",\"0\",\"Testing\",\"Stims/Figures/86-C-30-1.bmp\",\"za:ha:za\",\"Left\",\"39\",\"1\",\"7\",\"6A\",\"C2\",\"C\",\"7\"
\"\",\"\",\"approach-retreat\",\"156\",\"1105455\",\"0.0-156.0\",\"\",\"\",\"3-4\",\"5479\",\"38\",\"0\",\"Testing\",\"Stims/Figures/71-J-0-1.bmp\",\"vashava\",\"Down\",\"40\",\"1\",\"8\",\"6A\",\"C1\",\"C\",\"8\"
\"\",\"\",\"approach-retreat\",\"157\",\"1111544\",\"0.0-157.0\",\"\",\"\",\"3-4\",\"4574\",\"40\",\"1\",\"Testing\",\"Stims/Figures/100-C-30-3.bmp\",\"sa:saha\",\"Up\",\"40\",\"1\",\"9\",\"6A\",\"C2\",\"C\",\"9\"
\"\",\"\",\"approach-retreat\",\"158\",\"1117640\",\"0.0-158.0\",\"\",\"\",\"3-4\",\"4584\",\"37\",\"0\",\"Testing\",\"Stims/Figures/144-C-30-3.bmp\",\"sahaha\",\"Left\",\"39\",\"1\",\"10\",\"6A\",\"C2\",\"C\",\"10\"
\"\",\"\",\"approach-retreat\",\"159\",\"1124295\",\"0.0-159.0\",\"\",\"\",\"3-4\",\"5143\",\"40\",\"0\",\"Testing\",\"Stims/Figures/84-J-0-2.bmp\",\"fasha:sha\",\"Up\",\"38\",\"1\",\"11\",\"6A\",\"C1\",\"C\",\"11\"
\"\",\"\",\"approach-retreat\",\"160\",\"1130220\",\"0.0-160.0\",\"\",\"\",\"3-4\",\"4413\",\"37\",\"1\",\"Testing\",\"Stims/Figures/19-J-10-4.bmp\",\"va:shava\",\"Left\",\"37\",\"1\",\"12\",\"6A\",\"C1\",\"C\",\"12\"
\"\",\"\",\"approach-retreat\",\"161\",\"1138053\",\"0.0-161.0\",\"\",\"\",\"3-4\",\"6320\",\"38\",\"0\",\"Testing\",\"Stims/Figures/57-J-0-1.bmp\",\"vashasha\",\"Down\",\"40\",\"1\",\"13\",\"6A\",\"C1\",\"C\",\"13\"
\"\",\"\",\"approach-retreat\",\"162\",\"1144255\",\"0.0-162.0\",\"\",\"\",\"3-4\",\"4692\",\"38\",\"1\",\"Testing\",\"Stims/Figures/57-C-30-1.bmp\",\"sa:haza\",\"Down\",\"38\",\"1\",\"14\",\"6A\",\"C2\",\"C\",\"14\"
\"\",\"\",\"approach-retreat\",\"163\",\"1152529\",\"0.0-163.0\",\"\",\"\",\"3-4\",\"6764\",\"40\",\"0\",\"Testing\",\"Stims/Figures/44-J-10-3.bmp\",\"fa:fa:sha\",\"Up\",\"38\",\"1\",\"15\",\"6A\",\"C1\",\"C\",\"15\"
\"\",\"\",\"approach-retreat\",\"164\",\"1158489\",\"0.0-164.0\",\"\",\"\",\"3-4\",\"4446\",\"37\",\"1\",\"Testing\",\"Stims/Figures/118-C-20-2.bmp\",\"sahaza\",\"Right\",\"37\",\"1\",\"16\",\"6A\",\"C2\",\"C\",\"16\"
\"\",\"\",\"approach-retreat\",\"165\",\"1165116\",\"0.0-165.0\",\"\",\"\",\"3-4\",\"5112\",\"37\",\"0\",\"Testing\",\"Stims/Figures/139-J-0-2.bmp\",\"fa:shava\",\"Right\",\"39\",\"1\",\"17\",\"6A\",\"C1\",\"C\",\"17\"
\"\",\"\",\"approach-retreat\",\"166\",\"1171945\",\"0.0-166.0\",\"\",\"\",\"3-4\",\"5315\",\"38\",\"0\",\"Testing\",\"Stims/Figures/144-J-10-3.bmp\",\"vafasha\",\"Down\",\"40\",\"1\",\"18\",\"6A\",\"C1\",\"C\",\"18\"
\"\",\"\",\"approach-retreat\",\"167\",\"1178005\",\"0.0-167.0\",\"\",\"\",\"3-4\",\"4538\",\"37\",\"0\",\"Testing\",\"Stims/Figures/44-C-30-3.bmp\",\"za:haza\",\"Left\",\"39\",\"1\",\"19\",\"6A\",\"C2\",\"C\",\"19\"
\"\",\"\",\"approach-retreat\",\"168\",\"1184039\",\"0.0-168.0\",\"\",\"\",\"3-4\",\"4524\",\"37\",\"1\",\"Testing\",\"Stims/Figures/84-C-20-2.bmp\",\"za:sa:za\",\"Right\",\"37\",\"1\",\"20\",\"6A\",\"C2\",\"C\",\"20\"
\"\",\"\",\"approach-retreat\",\"169\",\"1189853\",\"0.0-169.0\",\"\",\"\",\"3-4\",\"4303\",\"37\",\"1\",\"Testing\",\"Stims/Figures/118-J-0-2.bmp\",\"fa:sha:va\",\"Left\",\"37\",\"1\",\"21\",\"6A\",\"C1\",\"C\",\"21\"
\"\",\"\",\"approach-retreat\",\"170\",\"1197515\",\"0.0-170.0\",\"\",\"\",\"3-4\",\"6150\",\"39\",\"0\",\"Testing\",\"Stims/Figures/139-C-20-2.bmp\",\"sasa:za\",\"Right\",\"37\",\"1\",\"22\",\"6A\",\"C2\",\"C\",\"22\"
\"\",\"\",\"approach-retreat\",\"171\",\"1203591\",\"0.0-171.0\",\"\",\"\",\"3-4\",\"4563\",\"38\",\"1\",\"Testing\",\"Stims/Figures/86-J-0-1.bmp\",\"fa:fa:va\",\"Up\",\"38\",\"1\",\"23\",\"6A\",\"C1\",\"C\",\"23\"
\"\",\"\",\"approach-retreat\",\"172\",\"1212485\",\"0.0-172.0\",\"\",\"\",\"3-4\",\"7383\",\"40\",\"1\",\"Testing\",\"Stims/Figures/100-J-10-3.bmp\",\"vafa:sha\",\"Down\",\"40\",\"1\",\"24\",\"6A\",\"C1\",\"C\",\"24\"
\"\",\"\",\"approach-retreat\",\"173\",\"1218397\",\"0.0-173.0\",\"\",\"\",\"3-4\",\"4402\",\"37\",\"1\",\"Testing\",\"Stims/Figures/86-J-0-1.bmp\",\"fa:fa:va\",\"Left\",\"37\",\"2\",\"1\",\"6A\",\"C1\",\"C\",\"25\"
\"\",\"\",\"approach-retreat\",\"174\",\"1224722\",\"0.0-174.0\",\"\",\"\",\"3-4\",\"4812\",\"37\",\"0\",\"Testing\",\"Stims/Figures/71-C-30-1.bmp\",\"sasaza\",\"Left\",\"39\",\"2\",\"2\",\"6A\",\"C2\",\"C\",\"26\"
\"\",\"\",\"approach-retreat\",\"175\",\"1231359\",\"0.0-175.0\",\"\",\"\",\"3-4\",\"5125\",\"38\",\"0\",\"Testing\",\"Stims/Figures/144-C-30-3.bmp\",\"sahaha\",\"Up\",\"40\",\"2\",\"3\",\"6A\",\"C2\",\"C\",\"27\"
\"\",\"\",\"approach-retreat\",\"176\",\"1237453\",\"0.0-176.0\",\"\",\"\",\"3-4\",\"4581\",\"39\",\"0\",\"Testing\",\"Stims/Figures/57-C-30-1.bmp\",\"sa:haza\",\"Right\",\"37\",\"2\",\"4\",\"6A\",\"C2\",\"C\",\"28\"
\"\",\"\",\"approach-retreat\",\"177\",\"1243875\",\"0.0-177.0\",\"\",\"\",\"3-4\",\"4911\",\"40\",\"0\",\"Testing\",\"Stims/Figures/144-J-10-3.bmp\",\"vafasha\",\"Up\",\"38\",\"2\",\"5\",\"6A\",\"C1\",\"C\",\"29\"
\"\",\"\",\"approach-retreat\",\"178\",\"1249851\",\"0.0-178.0\",\"\",\"\",\"3-4\",\"4465\",\"37\",\"0\",\"Testing\",\"Stims/Figures/139-J-0-2.bmp\",\"fa:shava\",\"Right\",\"39\",\"2\",\"6\",\"6A\",\"C1\",\"C\",\"30\"
\"\",\"\",\"approach-retreat\",\"179\",\"1255511\",\"0.0-179.0\",\"\",\"\",\"3-4\",\"4147\",\"39\",\"0\",\"Testing\",\"Stims/Figures/118-C-20-2.bmp\",\"sahaza\",\"Right\",\"37\",\"2\",\"7\",\"6A\",\"C2\",\"C\",\"31\"
\"\",\"\",\"approach-retreat\",\"180\",\"1261685\",\"0.0-180.0\",\"\",\"\",\"3-4\",\"4659\",\"38\",\"1\",\"Testing\",\"Stims/Figures/7-C-20-4.bmp\",\"zasaza\",\"Down\",\"38\",\"2\",\"8\",\"6A\",\"C2\",\"C\",\"32\"
\"\",\"\",\"approach-retreat\",\"181\",\"1268695\",\"0.0-181.0\",\"\",\"\",\"3-4\",\"5496\",\"37\",\"1\",\"Testing\",\"Stims/Figures/44-J-10-3.bmp\",\"fa:fa:sha\",\"Left\",\"37\",\"2\",\"9\",\"6A\",\"C1\",\"C\",\"33\"
\"\",\"\",\"approach-retreat\",\"182\",\"1274741\",\"0.0-182.0\",\"\",\"\",\"3-4\",\"4534\",\"40\",\"1\",\"Testing\",\"Stims/Figures/74-C-20-4.bmp\",\"zaha:za\",\"Up\",\"40\",\"2\",\"10\",\"6A\",\"C2\",\"C\",\"34\"
\"\",\"\",\"approach-retreat\",\"183\",\"1280685\",\"0.0-183.0\",\"\",\"\",\"3-4\",\"4434\",\"37\",\"1\",\"Testing\",\"Stims/Figures/84-J-0-2.bmp\",\"fasha:sha\",\"Left\",\"37\",\"2\",\"11\",\"6A\",\"C1\",\"C\",\"35\"
\"\",\"\",\"approach-retreat\",\"184\",\"1286959\",\"0.0-184.0\",\"\",\"\",\"3-4\",\"4763\",\"40\",\"1\",\"Testing\",\"Stims/Figures/84-C-20-2.bmp\",\"za:sa:za\",\"Up\",\"40\",\"2\",\"12\",\"6A\",\"C2\",\"C\",\"36\"
\"\",\"\",\"approach-retreat\",\"185\",\"1294153\",\"0.0-185.0\",\"\",\"\",\"3-4\",\"5682\",\"40\",\"0\",\"Testing\",\"Stims/Figures/57-J-0-1.bmp\",\"vashasha\",\"Up\",\"38\",\"2\",\"13\",\"6A\",\"C1\",\"C\",\"37\"
\"\",\"\",\"approach-retreat\",\"186\",\"1300551\",\"0.0-186.0\",\"\",\"\",\"3-4\",\"4887\",\"40\",\"0\",\"Testing\",\"Stims/Figures/7-J-10-4.bmp\",\"va:fa:va\",\"Up\",\"38\",\"2\",\"14\",\"6A\",\"C1\",\"C\",\"38\"
\"\",\"\",\"approach-retreat\",\"187\",\"1307033\",\"0.0-187.0\",\"\",\"\",\"3-4\",\"4968\",\"38\",\"1\",\"Testing\",\"Stims/Figures/19-C-20-4.bmp\",\"za:sa:ha\",\"Down\",\"38\",\"2\",\"15\",\"6A\",\"C2\",\"C\",\"39\"
\"\",\"\",\"approach-retreat\",\"188\",\"1313115\",\"0.0-188.0\",\"\",\"\",\"3-4\",\"4570\",\"37\",\"0\",\"Testing\",\"Stims/Figures/100-J-10-3.bmp\",\"vafa:sha\",\"Right\",\"39\",\"2\",\"16\",\"6A\",\"C1\",\"C\",\"40\"
\"\",\"\",\"approach-retreat\",\"189\",\"1319116\",\"0.0-189.0\",\"\",\"\",\"3-4\",\"4487\",\"40\",\"1\",\"Testing\",\"Stims/Figures/19-J-10-4.bmp\",\"va:shava\",\"Down\",\"40\",\"2\",\"17\",\"6A\",\"C1\",\"C\",\"41\"
\"\",\"\",\"approach-retreat\",\"190\",\"1325095\",\"0.0-190.0\",\"\",\"\",\"3-4\",\"4469\",\"39\",\"0\",\"Testing\",\"Stims/Figures/100-C-30-3.bmp\",\"sa:saha\",\"Right\",\"37\",\"2\",\"18\",\"6A\",\"C2\",\"C\",\"42\"
\"\",\"\",\"approach-retreat\",\"191\",\"1331385\",\"0.0-191.0\",\"\",\"\",\"3-4\",\"4778\",\"40\",\"1\",\"Testing\",\"Stims/Figures/71-J-0-1.bmp\",\"vashava\",\"Down\",\"40\",\"2\",\"19\",\"6A\",\"C1\",\"C\",\"43\"
\"\",\"\",\"approach-retreat\",\"192\",\"1337575\",\"0.0-192.0\",\"\",\"\",\"3-4\",\"4678\",\"38\",\"0\",\"Testing\",\"Stims/Figures/118-J-0-2.bmp\",\"fa:sha:va\",\"Down\",\"40\",\"2\",\"20\",\"6A\",\"C1\",\"C\",\"44\"
\"\",\"\",\"approach-retreat\",\"193\",\"1343677\",\"0.0-193.0\",\"\",\"\",\"3-4\",\"4589\",\"37\",\"0\",\"Testing\",\"Stims/Figures/139-C-20-2.bmp\",\"sasa:za\",\"Left\",\"39\",\"2\",\"21\",\"6A\",\"C2\",\"C\",\"45\"
\"\",\"\",\"approach-retreat\",\"194\",\"1349767\",\"0.0-194.0\",\"\",\"\",\"3-4\",\"4579\",\"40\",\"0\",\"Testing\",\"Stims/Figures/86-C-30-1.bmp\",\"za:ha:za\",\"Down\",\"38\",\"2\",\"22\",\"6A\",\"C2\",\"C\",\"46\"
\"\",\"\",\"approach-retreat\",\"195\",\"1355735\",\"0.0-195.0\",\"\",\"\",\"3-4\",\"4456\",\"39\",\"0\",\"Testing\",\"Stims/Figures/44-C-30-3.bmp\",\"za:haza\",\"Right\",\"37\",\"2\",\"23\",\"6A\",\"C2\",\"C\",\"47\"
\"\",\"\",\"approach-retreat\",\"196\",\"1362495\",\"0.0-196.0\",\"\",\"\",\"3-4\",\"5248\",\"37\",\"1\",\"Testing\",\"Stims/Figures/74-J-10-4.bmp\",\"fafa:sha\",\"Left\",\"37\",\"2\",\"24\",\"6A\",\"C1\",\"C\",\"48\"
\"\",\"\",\"approach-retreat\",\"197\",\"1368489\",\"0.0-197.0\",\"\",\"\",\"3-4\",\"4482\",\"40\",\"1\",\"Testing\",\"Stims/Figures/19-C-20-4.bmp\",\"za:sa:ha\",\"Up\",\"40\",\"3\",\"1\",\"6A\",\"C2\",\"C\",\"49\"
\"\",\"\",\"approach-retreat\",\"198\",\"1374695\",\"0.0-198.0\",\"\",\"\",\"3-4\",\"4693\",\"40\",\"1\",\"Testing\",\"Stims/Figures/44-C-30-3.bmp\",\"za:haza\",\"Up\",\"40\",\"3\",\"2\",\"6A\",\"C2\",\"C\",\"50\"
\"\",\"\",\"approach-retreat\",\"199\",\"1381589\",\"0.0-199.0\",\"\",\"\",\"3-4\",\"5382\",\"40\",\"1\",\"Testing\",\"Stims/Figures/57-J-0-1.bmp\",\"vashasha\",\"Down\",\"40\",\"3\",\"3\",\"6A\",\"C1\",\"C\",\"51\"
\"\",\"\",\"approach-retreat\",\"200\",\"1390346\",\"0.0-200.0\",\"\",\"\",\"3-4\",\"7246\",\"39\",\"0\",\"Testing\",\"Stims/Figures/7-C-20-4.bmp\",\"zasaza\",\"Right\",\"37\",\"3\",\"4\",\"6A\",\"C2\",\"C\",\"52\"
\"\",\"\",\"approach-retreat\",\"201\",\"1397889\",\"0.0-201.0\",\"\",\"\",\"3-4\",\"6032\",\"38\",\"1\",\"Testing\",\"Stims/Figures/57-C-30-1.bmp\",\"sa:haza\",\"Down\",\"38\",\"3\",\"5\",\"6A\",\"C2\",\"C\",\"53\"
\"\",\"\",\"approach-retreat\",\"202\",\"1403505\",\"0.0-202.0\",\"\",\"\",\"3-4\",\"4104\",\"39\",\"0\",\"Testing\",\"Stims/Figures/100-J-10-3.bmp\",\"vafa:sha\",\"Left\",\"37\",\"3\",\"6\",\"6A\",\"C1\",\"C\",\"54\"
\"\",\"\",\"approach-retreat\",\"203\",\"1409493\",\"0.0-203.0\",\"\",\"\",\"3-4\",\"4475\",\"40\",\"1\",\"Testing\",\"Stims/Figures/86-J-0-1.bmp\",\"fa:fa:va\",\"Down\",\"40\",\"3\",\"7\",\"6A\",\"C1\",\"C\",\"55\"
\"\",\"\",\"approach-retreat\",\"204\",\"1420851\",\"0.0-204.0\",\"\",\"\",\"3-4\",\"9842\",\"38\",\"0\",\"Testing\",\"Stims/Figures/144-J-10-3.bmp\",\"vafasha\",\"Down\",\"40\",\"3\",\"8\",\"6A\",\"C1\",\"C\",\"56\"
\"\",\"\",\"approach-retreat\",\"205\",\"1427359\",\"0.0-205.0\",\"\",\"\",\"3-4\",\"4997\",\"40\",\"1\",\"Testing\",\"Stims/Figures/74-J-10-4.bmp\",\"fafa:sha\",\"Down\",\"40\",\"3\",\"9\",\"6A\",\"C1\",\"C\",\"57\"
\"\",\"\",\"approach-retreat\",\"206\",\"1433247\",\"0.0-206.0\",\"\",\"\",\"3-4\",\"4377\",\"40\",\"0\",\"Testing\",\"Stims/Figures/71-J-0-1.bmp\",\"vashava\",\"Up\",\"38\",\"3\",\"10\",\"6A\",\"C1\",\"C\",\"58\"
\"\",\"\",\"approach-retreat\",\"207\",\"1440033\",\"0.0-207.0\",\"\",\"\",\"3-4\",\"5273\",\"40\",\"1\",\"Testing\",\"Stims/Figures/144-C-30-3.bmp\",\"sahaha\",\"Up\",\"40\",\"3\",\"11\",\"6A\",\"C2\",\"C\",\"59\"
\"\",\"\",\"approach-retreat\",\"208\",\"1446090\",\"0.0-208.0\",\"\",\"\",\"3-4\",\"4544\",\"37\",\"0\",\"Testing\",\"Stims/Figures/139-C-20-2.bmp\",\"sasa:za\",\"Left\",\"39\",\"3\",\"12\",\"6A\",\"C2\",\"C\",\"60\"
\"\",\"\",\"approach-retreat\",\"209\",\"1455077\",\"0.0-209.0\",\"\",\"\",\"3-4\",\"7478\",\"37\",\"0\",\"Testing\",\"Stims/Figures/118-J-0-2.bmp\",\"fa:sha:va\",\"Right\",\"39\",\"3\",\"13\",\"6A\",\"C1\",\"C\",\"61\"
\"\",\"\",\"approach-retreat\",\"210\",\"1461419\",\"0.0-210.0\",\"\",\"\",\"3-4\",\"4831\",\"37\",\"1\",\"Testing\",\"Stims/Figures/74-C-20-4.bmp\",\"zaha:za\",\"Right\",\"37\",\"3\",\"14\",\"6A\",\"C2\",\"C\",\"62\"
\"\",\"\",\"approach-retreat\",\"211\",\"1468645\",\"0.0-211.0\",\"\",\"\",\"3-4\",\"5714\",\"38\",\"1\",\"Testing\",\"Stims/Figures/139-J-0-2.bmp\",\"fa:shava\",\"Up\",\"38\",\"3\",\"15\",\"6A\",\"C1\",\"C\",\"63\"
\"\",\"\",\"approach-retreat\",\"212\",\"1475379\",\"0.0-212.0\",\"\",\"\",\"3-4\",\"5221\",\"38\",\"1\",\"Testing\",\"Stims/Figures/84-C-20-2.bmp\",\"za:sa:za\",\"Down\",\"38\",\"3\",\"16\",\"6A\",\"C2\",\"C\",\"64\"
\"\",\"\",\"approach-retreat\",\"213\",\"1481696\",\"0.0-213.0\",\"\",\"\",\"3-4\",\"4803\",\"40\",\"1\",\"Testing\",\"Stims/Figures/71-C-30-1.bmp\",\"sasaza\",\"Up\",\"40\",\"3\",\"17\",\"6A\",\"C2\",\"C\",\"65\"
\"\",\"\",\"approach-retreat\",\"214\",\"1488184\",\"0.0-214.0\",\"\",\"\",\"3-4\",\"4975\",\"37\",\"1\",\"Testing\",\"Stims/Figures/118-C-20-2.bmp\",\"sahaza\",\"Right\",\"37\",\"3\",\"18\",\"6A\",\"C2\",\"C\",\"66\"
\"\",\"\",\"approach-retreat\",\"215\",\"1496486\",\"0.0-215.0\",\"\",\"\",\"3-4\",\"6790\",\"39\",\"0\",\"Testing\",\"Stims/Figures/7-J-10-4.bmp\",\"va:fa:va\",\"Left\",\"37\",\"3\",\"19\",\"6A\",\"C1\",\"C\",\"67\"
\"\",\"\",\"approach-retreat\",\"216\",\"1502560\",\"0.0-216.0\",\"\",\"\",\"3-4\",\"4563\",\"37\",\"0\",\"Testing\",\"Stims/Figures/19-J-10-4.bmp\",\"va:shava\",\"Right\",\"39\",\"3\",\"20\",\"6A\",\"C1\",\"C\",\"68\"
\"\",\"\",\"approach-retreat\",\"217\",\"1508776\",\"0.0-217.0\",\"\",\"\",\"3-4\",\"4703\",\"39\",\"1\",\"Testing\",\"Stims/Figures/44-J-10-3.bmp\",\"fa:fa:sha\",\"Right\",\"39\",\"3\",\"21\",\"6A\",\"C1\",\"C\",\"69\"
\"\",\"\",\"approach-retreat\",\"218\",\"1515615\",\"0.0-218.0\",\"\",\"\",\"3-4\",\"5328\",\"37\",\"1\",\"Testing\",\"Stims/Figures/84-J-0-2.bmp\",\"fasha:sha\",\"Left\",\"37\",\"3\",\"22\",\"6A\",\"C1\",\"C\",\"70\"
\"\",\"\",\"approach-retreat\",\"219\",\"1522003\",\"0.0-219.0\",\"\",\"\",\"3-4\",\"4877\",\"39\",\"1\",\"Testing\",\"Stims/Figures/86-C-30-1.bmp\",\"za:ha:za\",\"Left\",\"39\",\"3\",\"23\",\"6A\",\"C2\",\"C\",\"71\"
\"\",\"\",\"approach-retreat\",\"220\",\"1529483\",\"0.0-220.0\",\"\",\"\",\"3-4\",\"5965\",\"39\",\"1\",\"Testing\",\"Stims/Figures/100-C-30-3.bmp\",\"sa:saha\",\"Left\",\"39\",\"3\",\"24\",\"6A\",\"C2\",\"C\",\"72\"
\"\",\"\",\"approach-retreat\",\"221\",\"1535653\",\"0.0-221.0\",\"\",\"\",\"3-4\",\"4660\",\"37\",\"0\",\"Testing\",\"Stims/Figures/139-C-20-2.bmp\",\"sasa:za\",\"Left\",\"39\",\"4\",\"1\",\"6A\",\"C2\",\"C\",\"73\"
\"\",\"\",\"approach-retreat\",\"222\",\"1542810\",\"0.0-222.0\",\"\",\"\",\"3-4\",\"5650\",\"40\",\"1\",\"Testing\",\"Stims/Figures/44-J-10-3.bmp\",\"fa:fa:sha\",\"Down\",\"40\",\"4\",\"2\",\"6A\",\"C1\",\"C\",\"74\"
\"\",\"\",\"approach-retreat\",\"223\",\"1550890\",\"0.0-223.0\",\"\",\"\",\"3-4\",\"6566\",\"39\",\"1\",\"Testing\",\"Stims/Figures/100-C-30-3.bmp\",\"sa:saha\",\"Left\",\"39\",\"4\",\"3\",\"6A\",\"C2\",\"C\",\"75\"
\"\",\"\",\"approach-retreat\",\"224\",\"1557870\",\"0.0-224.0\",\"\",\"\",\"3-4\",\"5468\",\"39\",\"1\",\"Testing\",\"Stims/Figures/71-C-30-1.bmp\",\"sasaza\",\"Left\",\"39\",\"4\",\"4\",\"6A\",\"C2\",\"C\",\"76\"
\"\",\"\",\"approach-retreat\",\"225\",\"1564489\",\"0.0-225.0\",\"\",\"\",\"3-4\",\"5107\",\"40\",\"1\",\"Testing\",\"Stims/Figures/57-J-0-1.bmp\",\"vashasha\",\"Down\",\"40\",\"4\",\"5\",\"6A\",\"C1\",\"C\",\"77\"
\"\",\"\",\"approach-retreat\",\"226\",\"1572405\",\"0.0-226.0\",\"\",\"\",\"3-4\",\"6401\",\"37\",\"1\",\"Testing\",\"Stims/Figures/86-J-0-1.bmp\",\"fa:fa:va\",\"Left\",\"37\",\"4\",\"6\",\"6A\",\"C1\",\"C\",\"78\"
\"\",\"\",\"approach-retreat\",\"227\",\"1579855\",\"0.0-227.0\",\"\",\"\",\"3-4\",\"5941\",\"40\",\"1\",\"Testing\",\"Stims/Figures/144-J-10-3.bmp\",\"vafasha\",\"Down\",\"40\",\"4\",\"7\",\"6A\",\"C1\",\"C\",\"79\"
\"\",\"\",\"approach-retreat\",\"228\",\"1586018\",\"0.0-228.0\",\"\",\"\",\"3-4\",\"4647\",\"38\",\"0\",\"Testing\",\"Stims/Figures/19-C-20-4.bmp\",\"za:sa:ha\",\"Up\",\"40\",\"4\",\"8\",\"6A\",\"C2\",\"C\",\"80\"
\"\",\"\",\"approach-retreat\",\"229\",\"1591685\",\"0.0-229.0\",\"\",\"\",\"3-4\",\"4156\",\"40\",\"1\",\"Testing\",\"Stims/Figures/86-C-30-1.bmp\",\"za:ha:za\",\"Up\",\"40\",\"4\",\"9\",\"6A\",\"C2\",\"C\",\"81\"
\"\",\"\",\"approach-retreat\",\"230\",\"1599150\",\"0.0-230.0\",\"\",\"\",\"3-4\",\"5955\",\"37\",\"0\",\"Testing\",\"Stims/Figures/84-J-0-2.bmp\",\"fasha:sha\",\"Right\",\"39\",\"4\",\"10\",\"6A\",\"C1\",\"C\",\"82\"
\"\",\"\",\"approach-retreat\",\"231\",\"1605073\",\"0.0-231.0\",\"\",\"\",\"3-4\",\"4411\",\"37\",\"1\",\"Testing\",\"Stims/Figures/118-C-20-2.bmp\",\"sahaza\",\"Right\",\"37\",\"4\",\"11\",\"6A\",\"C2\",\"C\",\"83\"
\"\",\"\",\"approach-retreat\",\"232\",\"1611776\",\"0.0-232.0\",\"\",\"\",\"3-4\",\"5192\",\"38\",\"1\",\"Testing\",\"Stims/Figures/57-C-30-1.bmp\",\"sa:haza\",\"Down\",\"38\",\"4\",\"12\",\"6A\",\"C2\",\"C\",\"84\"
\"\",\"\",\"approach-retreat\",\"233\",\"1618272\",\"0.0-233.0\",\"\",\"\",\"3-4\",\"4983\",\"37\",\"1\",\"Testing\",\"Stims/Figures/84-C-20-2.bmp\",\"za:sa:za\",\"Right\",\"37\",\"4\",\"13\",\"6A\",\"C2\",\"C\",\"85\"
\"\",\"\",\"approach-retreat\",\"234\",\"1627534\",\"0.0-234.0\",\"\",\"\",\"3-4\",\"7750\",\"38\",\"0\",\"Testing\",\"Stims/Figures/19-J-10-4.bmp\",\"va:shava\",\"Down\",\"40\",\"4\",\"14\",\"6A\",\"C1\",\"C\",\"86\"
\"\",\"\",\"approach-retreat\",\"235\",\"1635435\",\"0.0-235.0\",\"\",\"\",\"3-4\",\"6392\",\"39\",\"1\",\"Testing\",\"Stims/Figures/74-C-20-4.bmp\",\"zaha:za\",\"Left\",\"39\",\"4\",\"15\",\"6A\",\"C2\",\"C\",\"87\"
\"\",\"\",\"approach-retreat\",\"236\",\"1642894\",\"0.0-236.0\",\"\",\"\",\"3-4\",\"5945\",\"40\",\"1\",\"Testing\",\"Stims/Figures/44-C-30-3.bmp\",\"za:haza\",\"Up\",\"40\",\"4\",\"16\",\"6A\",\"C2\",\"C\",\"88\"
\"\",\"\",\"approach-retreat\",\"237\",\"1649405\",\"0.0-237.0\",\"\",\"\",\"3-4\",\"4998\",\"37\",\"1\",\"Testing\",\"Stims/Figures/7-J-10-4.bmp\",\"va:fa:va\",\"Left\",\"37\",\"4\",\"17\",\"6A\",\"C1\",\"C\",\"89\"
\"\",\"\",\"approach-retreat\",\"238\",\"1656426\",\"0.0-238.0\",\"\",\"\",\"3-4\",\"5509\",\"40\",\"1\",\"Testing\",\"Stims/Figures/144-C-30-3.bmp\",\"sahaha\",\"Up\",\"40\",\"4\",\"18\",\"6A\",\"C2\",\"C\",\"90\"
\"\",\"\",\"approach-retreat\",\"239\",\"1664942\",\"0.0-239.0\",\"\",\"\",\"3-4\",\"7006\",\"38\",\"0\",\"Testing\",\"Stims/Figures/74-J-10-4.bmp\",\"fafa:sha\",\"Down\",\"40\",\"4\",\"19\",\"6A\",\"C1\",\"C\",\"91\"
\"\",\"\",\"approach-retreat\",\"240\",\"1671656\",\"0.0-240.0\",\"\",\"\",\"3-4\",\"5205\",\"38\",\"1\",\"Testing\",\"Stims/Figures/118-J-0-2.bmp\",\"fa:sha:va\",\"Up\",\"38\",\"4\",\"20\",\"6A\",\"C1\",\"C\",\"92\"
\"\",\"\",\"approach-retreat\",\"241\",\"1677729\",\"0.0-241.0\",\"\",\"\",\"3-4\",\"4563\",\"37\",\"1\",\"Testing\",\"Stims/Figures/7-C-20-4.bmp\",\"zasaza\",\"Right\",\"37\",\"4\",\"21\",\"6A\",\"C2\",\"C\",\"93\"
\"\",\"\",\"approach-retreat\",\"242\",\"1685082\",\"0.0-242.0\",\"\",\"\",\"3-4\",\"5843\",\"39\",\"1\",\"Testing\",\"Stims/Figures/139-J-0-2.bmp\",\"fa:shava\",\"Right\",\"39\",\"4\",\"22\",\"6A\",\"C1\",\"C\",\"94\"
\"\",\"\",\"approach-retreat\",\"243\",\"1691528\",\"0.0-243.0\",\"\",\"\",\"3-4\",\"4935\",\"40\",\"0\",\"Testing\",\"Stims/Figures/100-J-10-3.bmp\",\"vafa:sha\",\"Up\",\"38\",\"4\",\"23\",\"6A\",\"C1\",\"C\",\"95\"
\"\",\"\",\"approach-retreat\",\"244\",\"1698081\",\"0.0-244.0\",\"\",\"\",\"3-4\",\"5042\",\"39\",\"1\",\"Testing\",\"Stims/Figures/71-J-0-1.bmp\",\"vashava\",\"Right\",\"39\",\"4\",\"24\",\"6A\",\"C1\",\"C\",\"96\"
\"13822\",\"\",\"survey-text\",\"245\",\"1711909\",\"0.0-245.0\",\"\",\"{\"\"Q0\"\":\"\"PS170027\"\"}\",\"\",\"\",\"\",\"\",\"\",\"\",\"\",\"\",\"\",\"\",\"\",\"\",\"\",\"\",\"\"
