\"rt\",\"key_press\",\"trial_type\",\"trial_index\",\"time_elapsed\",\"internal_node_id\",\"view_history\",\"responses\",\"Id\",\"Rt\",\"ResKeyCode\",\"ResCorr\",\"TrialType2\",\"Image\",\"Label\",\"Location\",\"CorrectResponse\",\"Block\",\"BlockTrial\",\"Condition\",\"LabelType\",\"Subcondition\",\"trialNum\"
\"33785\",\"32\",\"text\",\"0\",\"33789\",\"0.0-0.0-0.0\",\"\",\"\",\"\",\"\",\"\",\"\",\"\",\"\",\"\",\"\",\"\",\"\",\"\",\"\",\"\",\"\",\"\"
\"76658\",\"\",\"instructions\",\"1\",\"110450\",\"0.0-1.0\",\"[{\"\"page_index\"\":0,\"\"viewing_time\"\":76658}]\",\"\",\"\",\"\",\"\",\"\",\"\",\"\",\"\",\"\",\"\",\"\",\"\",\"\",\"\",\"\",\"\"
\"30435\",\"\",\"survey-multi-choice\",\"2\",\"140925\",\"0.0-2.0\",\"\",\"{\"\"Q0\"\":\"\"Da\"\",\"\"Q1\"\":\"\"Da\"\",\"\"Q2\"\":\"\"Da\"\",\"\"Q3\"\":\"\"Da\"\",\"\"Q4\"\":\"\"Da\"\",\"\"Q5\"\":\"\"Da\"\"}\",\"\",\"\",\"\",\"\",\"\",\"\",\"\",\"\",\"\",\"\",\"\",\"\",\"\",\"\",\"\"
\"\",\"\",\"bio\",\"3\",\"151324\",\"0.0-3.0\",\"\",\"{\"\"age\"\":\"\"21\"\",\"\"gender\"\":\"\"f\"\",\"\"specify\"\":\"\"\"\"}\",\"\",\"\",\"\",\"\",\"\",\"\",\"\",\"\",\"\",\"\",\"\",\"\",\"\",\"\",\"\"
\"\",\"\",\"approach-retreat\",\"4\",\"162770\",\"0.0-4.0\",\"\",\"\",\"2-4\",\"9933\",\"40\",\"0\",\"Training\",\"Stims/Figures/87-J-10-4.bmp\",\"na:la:la\",\"Up\",\"38\",\"1\",\"1\",\"9\",\"S\",\"C\",\"1\"
\"\",\"\",\"approach-retreat\",\"5\",\"169324\",\"0.0-5.0\",\"\",\"\",\"2-4\",\"5044\",\"38\",\"1\",\"Training\",\"Stims/Figures/27-J-0-1.bmp\",\"mama:la\",\"Up\",\"38\",\"1\",\"2\",\"9\",\"S\",\"C\",\"2\"
\"\",\"\",\"approach-retreat\",\"6\",\"177098\",\"0.0-6.0\",\"\",\"\",\"2-4\",\"6265\",\"38\",\"0\",\"Training\",\"Stims/Figures/7-J-10-4.bmp\",\"sasaha\",\"Down\",\"40\",\"1\",\"3\",\"9\",\"C2\",\"C\",\"3\"
\"\",\"\",\"approach-retreat\",\"7\",\"185183\",\"0.0-7.0\",\"\",\"\",\"2-4\",\"6577\",\"37\",\"0\",\"Training\",\"Stims/Figures/139-C-20-2.bmp\",\"na:lana\",\"Left\",\"39\",\"1\",\"4\",\"9\",\"S\",\"C\",\"4\"
\"\",\"\",\"approach-retreat\",\"8\",\"192702\",\"0.0-8.0\",\"\",\"\",\"2-4\",\"6011\",\"37\",\"1\",\"Training\",\"Stims/Figures/27-C-30-1.bmp\",\"fa:sha:sha\",\"Right\",\"37\",\"1\",\"5\",\"9\",\"C1\",\"C\",\"5\"
\"\",\"\",\"approach-retreat\",\"9\",\"199148\",\"0.0-9.0\",\"\",\"\",\"2-4\",\"4938\",\"39\",\"1\",\"Training\",\"Stims/Figures/128-J-10-3.bmp\",\"na:mana\",\"Right\",\"39\",\"1\",\"6\",\"9\",\"S\",\"C\",\"6\"
\"\",\"\",\"approach-retreat\",\"10\",\"205721\",\"0.0-10.0\",\"\",\"\",\"2-4\",\"5064\",\"40\",\"1\",\"Training\",\"Stims/Figures/139-J-0-2.bmp\",\"pa:pa:ka\",\"Down\",\"40\",\"1\",\"7\",\"9\",\"P\",\"C\",\"7\"
\"\",\"\",\"approach-retreat\",\"11\",\"212078\",\"0.0-11.0\",\"\",\"\",\"2-4\",\"4848\",\"39\",\"1\",\"Training\",\"Stims/Figures/144-J-10-3.bmp\",\"fashasha\",\"Right\",\"39\",\"1\",\"8\",\"9\",\"C1\",\"C\",\"8\"
\"\",\"\",\"approach-retreat\",\"12\",\"218080\",\"0.0-12.0\",\"\",\"\",\"2-4\",\"4493\",\"37\",\"0\",\"Training\",\"Stims/Figures/85-J-0-2.bmp\",\"ta:ka:ka\",\"Right\",\"39\",\"1\",\"9\",\"9\",\"P\",\"C\",\"9\"
\"\",\"\",\"approach-retreat\",\"13\",\"223774\",\"0.0-13.0\",\"\",\"\",\"2-4\",\"4187\",\"40\",\"1\",\"Training\",\"Stims/Figures/86-J-0-1.bmp\",\"vafa:va\",\"Down\",\"40\",\"1\",\"10\",\"9\",\"C1\",\"C\",\"10\"
\"\",\"\",\"approach-retreat\",\"14\",\"229451\",\"0.0-14.0\",\"\",\"\",\"2-4\",\"4170\",\"39\",\"1\",\"Training\",\"Stims/Figures/87-C-20-4.bmp\",\"nala:la\",\"Left\",\"39\",\"1\",\"11\",\"9\",\"S\",\"C\",\"11\"
\"\",\"\",\"approach-retreat\",\"15\",\"235237\",\"0.0-15.0\",\"\",\"\",\"2-4\",\"4278\",\"39\",\"1\",\"Training\",\"Stims/Figures/128-C-30-3.bmp\",\"sa:ha:ha\",\"Left\",\"39\",\"1\",\"12\",\"9\",\"C2\",\"C\",\"12\"
\"\",\"\",\"approach-retreat\",\"16\",\"240947\",\"0.0-16.0\",\"\",\"\",\"2-4\",\"4202\",\"38\",\"1\",\"Training\",\"Stims/Figures/86-C-30-1.bmp\",\"saha:ha\",\"Down\",\"38\",\"1\",\"13\",\"9\",\"C2\",\"C\",\"13\"
\"\",\"\",\"approach-retreat\",\"17\",\"246920\",\"0.0-17.0\",\"\",\"\",\"2-4\",\"4464\",\"39\",\"1\",\"Training\",\"Stims/Figures/144-C-30-3.bmp\",\"za:saza\",\"Left\",\"39\",\"1\",\"14\",\"9\",\"C2\",\"C\",\"14\"
\"\",\"\",\"approach-retreat\",\"18\",\"252785\",\"0.0-18.0\",\"\",\"\",\"2-4\",\"4355\",\"40\",\"1\",\"Training\",\"Stims/Figures/85-C-20-2.bmp\",\"sa:sa:za\",\"Up\",\"40\",\"1\",\"15\",\"9\",\"C2\",\"C\",\"15\"
\"\",\"\",\"approach-retreat\",\"19\",\"258305\",\"0.0-19.0\",\"\",\"\",\"2-4\",\"4013\",\"40\",\"1\",\"Training\",\"Stims/Figures/7-C-20-4.bmp\",\"ta:pa:ta\",\"Up\",\"40\",\"1\",\"16\",\"9\",\"P\",\"C\",\"16\"
\"\",\"\",\"approach-retreat\",\"20\",\"264324\",\"0.0-20.0\",\"\",\"\",\"2-4\",\"4510\",\"37\",\"1\",\"Training\",\"Stims/Figures/144-C-30-3.bmp\",\"za:saza\",\"Right\",\"37\",\"2\",\"1\",\"9\",\"C2\",\"C\",\"17\"
\"\",\"\",\"approach-retreat\",\"21\",\"270565\",\"0.0-21.0\",\"\",\"\",\"2-4\",\"4733\",\"37\",\"0\",\"Training\",\"Stims/Figures/139-C-20-2.bmp\",\"na:lana\",\"Left\",\"39\",\"2\",\"2\",\"9\",\"S\",\"C\",\"18\"
\"\",\"\",\"approach-retreat\",\"22\",\"276334\",\"0.0-22.0\",\"\",\"\",\"2-4\",\"4260\",\"38\",\"1\",\"Training\",\"Stims/Figures/87-C-20-4.bmp\",\"nala:la\",\"Down\",\"38\",\"2\",\"3\",\"9\",\"S\",\"C\",\"19\"
\"\",\"\",\"approach-retreat\",\"23\",\"281940\",\"0.0-23.0\",\"\",\"\",\"2-4\",\"4098\",\"38\",\"0\",\"Training\",\"Stims/Figures/27-C-30-1.bmp\",\"fa:sha:sha\",\"Up\",\"40\",\"2\",\"4\",\"9\",\"C1\",\"C\",\"20\"
\"\",\"\",\"approach-retreat\",\"24\",\"287736\",\"0.0-24.0\",\"\",\"\",\"2-4\",\"4287\",\"39\",\"0\",\"Training\",\"Stims/Figures/86-J-0-1.bmp\",\"vafa:va\",\"Left\",\"37\",\"2\",\"5\",\"9\",\"C1\",\"C\",\"21\"
\"\",\"\",\"approach-retreat\",\"25\",\"293524\",\"0.0-25.0\",\"\",\"\",\"2-4\",\"4281\",\"37\",\"1\",\"Training\",\"Stims/Figures/7-J-10-4.bmp\",\"sasaha\",\"Left\",\"37\",\"2\",\"6\",\"9\",\"C2\",\"C\",\"22\"
\"\",\"\",\"approach-retreat\",\"26\",\"299483\",\"0.0-26.0\",\"\",\"\",\"2-4\",\"4450\",\"40\",\"1\",\"Training\",\"Stims/Figures/128-J-10-3.bmp\",\"na:mana\",\"Down\",\"40\",\"2\",\"7\",\"9\",\"S\",\"C\",\"23\"
\"\",\"\",\"approach-retreat\",\"27\",\"306872\",\"0.0-27.0\",\"\",\"\",\"2-4\",\"5879\",\"39\",\"1\",\"Training\",\"Stims/Figures/139-J-0-2.bmp\",\"pa:pa:ka\",\"Right\",\"39\",\"2\",\"8\",\"9\",\"P\",\"C\",\"24\"
\"\",\"\",\"approach-retreat\",\"28\",\"312574\",\"0.0-28.0\",\"\",\"\",\"2-4\",\"4192\",\"38\",\"1\",\"Training\",\"Stims/Figures/85-C-20-2.bmp\",\"sa:sa:za\",\"Down\",\"38\",\"2\",\"9\",\"9\",\"C2\",\"C\",\"25\"
\"\",\"\",\"approach-retreat\",\"29\",\"318527\",\"0.0-29.0\",\"\",\"\",\"2-4\",\"4444\",\"40\",\"1\",\"Training\",\"Stims/Figures/128-C-30-3.bmp\",\"sa:ha:ha\",\"Up\",\"40\",\"2\",\"10\",\"9\",\"C2\",\"C\",\"26\"
\"\",\"\",\"approach-retreat\",\"30\",\"324249\",\"0.0-30.0\",\"\",\"\",\"2-4\",\"4215\",\"40\",\"1\",\"Training\",\"Stims/Figures/86-C-30-1.bmp\",\"saha:ha\",\"Up\",\"40\",\"2\",\"11\",\"9\",\"C2\",\"C\",\"27\"
\"\",\"\",\"approach-retreat\",\"31\",\"330029\",\"0.0-31.0\",\"\",\"\",\"2-4\",\"4271\",\"40\",\"1\",\"Training\",\"Stims/Figures/144-J-10-3.bmp\",\"fashasha\",\"Down\",\"40\",\"2\",\"12\",\"9\",\"C1\",\"C\",\"28\"
\"\",\"\",\"approach-retreat\",\"32\",\"336034\",\"0.0-32.0\",\"\",\"\",\"2-4\",\"4501\",\"37\",\"0\",\"Training\",\"Stims/Figures/7-C-20-4.bmp\",\"ta:pa:ta\",\"Left\",\"39\",\"2\",\"13\",\"9\",\"P\",\"C\",\"29\"
\"\",\"\",\"approach-retreat\",\"33\",\"342004\",\"0.0-33.0\",\"\",\"\",\"2-4\",\"4461\",\"37\",\"0\",\"Training\",\"Stims/Figures/27-J-0-1.bmp\",\"mama:la\",\"Right\",\"39\",\"2\",\"14\",\"9\",\"S\",\"C\",\"30\"
\"\",\"\",\"approach-retreat\",\"34\",\"348092\",\"0.0-34.0\",\"\",\"\",\"2-4\",\"4582\",\"38\",\"1\",\"Training\",\"Stims/Figures/85-J-0-2.bmp\",\"ta:ka:ka\",\"Up\",\"38\",\"2\",\"15\",\"9\",\"P\",\"C\",\"31\"
\"\",\"\",\"approach-retreat\",\"35\",\"354086\",\"0.0-35.0\",\"\",\"\",\"2-4\",\"4485\",\"39\",\"1\",\"Training\",\"Stims/Figures/87-J-10-4.bmp\",\"na:la:la\",\"Right\",\"39\",\"2\",\"16\",\"9\",\"S\",\"C\",\"32\"
\"\",\"\",\"approach-retreat\",\"36\",\"359993\",\"0.0-36.0\",\"\",\"\",\"2-4\",\"4399\",\"40\",\"1\",\"Training\",\"Stims/Figures/144-J-10-3.bmp\",\"fashasha\",\"Down\",\"40\",\"3\",\"1\",\"9\",\"C1\",\"C\",\"33\"
\"\",\"\",\"approach-retreat\",\"37\",\"365734\",\"0.0-37.0\",\"\",\"\",\"2-4\",\"4232\",\"38\",\"1\",\"Training\",\"Stims/Figures/128-C-30-3.bmp\",\"sa:ha:ha\",\"Down\",\"38\",\"3\",\"2\",\"9\",\"C2\",\"C\",\"34\"
\"\",\"\",\"approach-retreat\",\"38\",\"371833\",\"0.0-38.0\",\"\",\"\",\"2-4\",\"4591\",\"38\",\"1\",\"Training\",\"Stims/Figures/139-J-0-2.bmp\",\"pa:pa:ka\",\"Up\",\"38\",\"3\",\"3\",\"9\",\"P\",\"C\",\"35\"
\"\",\"\",\"approach-retreat\",\"39\",\"377690\",\"0.0-39.0\",\"\",\"\",\"2-4\",\"4349\",\"39\",\"1\",\"Training\",\"Stims/Figures/85-C-20-2.bmp\",\"sa:sa:za\",\"Left\",\"39\",\"3\",\"4\",\"9\",\"C2\",\"C\",\"36\"
\"\",\"\",\"approach-retreat\",\"40\",\"383678\",\"0.0-40.0\",\"\",\"\",\"2-4\",\"4484\",\"40\",\"1\",\"Training\",\"Stims/Figures/86-C-30-1.bmp\",\"saha:ha\",\"Up\",\"40\",\"3\",\"5\",\"9\",\"C2\",\"C\",\"37\"
\"\",\"\",\"approach-retreat\",\"41\",\"389371\",\"0.0-41.0\",\"\",\"\",\"2-4\",\"4186\",\"39\",\"0\",\"Training\",\"Stims/Figures/27-C-30-1.bmp\",\"fa:sha:sha\",\"Right\",\"37\",\"3\",\"6\",\"9\",\"C1\",\"C\",\"38\"
\"\",\"\",\"approach-retreat\",\"42\",\"395140\",\"0.0-42.0\",\"\",\"\",\"2-4\",\"4261\",\"38\",\"1\",\"Training\",\"Stims/Figures/139-C-20-2.bmp\",\"na:lana\",\"Down\",\"38\",\"3\",\"7\",\"9\",\"S\",\"C\",\"39\"
\"\",\"\",\"approach-retreat\",\"43\",\"401313\",\"0.0-43.0\",\"\",\"\",\"2-4\",\"4665\",\"39\",\"0\",\"Training\",\"Stims/Figures/86-J-0-1.bmp\",\"vafa:va\",\"Left\",\"37\",\"3\",\"8\",\"9\",\"C1\",\"C\",\"40\"
\"\",\"\",\"approach-retreat\",\"44\",\"407193\",\"0.0-44.0\",\"\",\"\",\"2-4\",\"4373\",\"38\",\"1\",\"Training\",\"Stims/Figures/144-C-30-3.bmp\",\"za:saza\",\"Down\",\"38\",\"3\",\"9\",\"9\",\"C2\",\"C\",\"41\"
\"\",\"\",\"approach-retreat\",\"45\",\"412798\",\"0.0-45.0\",\"\",\"\",\"2-4\",\"4092\",\"39\",\"1\",\"Training\",\"Stims/Figures/87-C-20-4.bmp\",\"nala:la\",\"Left\",\"39\",\"3\",\"10\",\"9\",\"S\",\"C\",\"42\"
\"\",\"\",\"approach-retreat\",\"46\",\"418653\",\"0.0-46.0\",\"\",\"\",\"2-4\",\"4347\",\"38\",\"1\",\"Training\",\"Stims/Figures/85-J-0-2.bmp\",\"ta:ka:ka\",\"Up\",\"38\",\"3\",\"11\",\"9\",\"P\",\"C\",\"43\"
\"\",\"\",\"approach-retreat\",\"47\",\"424251\",\"0.0-47.0\",\"\",\"\",\"2-4\",\"4090\",\"39\",\"1\",\"Training\",\"Stims/Figures/27-J-0-1.bmp\",\"mama:la\",\"Right\",\"39\",\"3\",\"12\",\"9\",\"S\",\"C\",\"44\"
\"\",\"\",\"approach-retreat\",\"48\",\"429899\",\"0.0-48.0\",\"\",\"\",\"2-4\",\"4139\",\"39\",\"0\",\"Training\",\"Stims/Figures/87-J-10-4.bmp\",\"na:la:la\",\"Left\",\"37\",\"3\",\"13\",\"9\",\"S\",\"C\",\"45\"
\"\",\"\",\"approach-retreat\",\"49\",\"435528\",\"0.0-49.0\",\"\",\"\",\"2-4\",\"4121\",\"40\",\"0\",\"Training\",\"Stims/Figures/7-J-10-4.bmp\",\"sasaha\",\"Up\",\"38\",\"3\",\"14\",\"9\",\"C2\",\"C\",\"46\"
\"\",\"\",\"approach-retreat\",\"50\",\"441337\",\"0.0-50.0\",\"\",\"\",\"2-4\",\"4300\",\"39\",\"0\",\"Training\",\"Stims/Figures/7-C-20-4.bmp\",\"ta:pa:ta\",\"Right\",\"37\",\"3\",\"15\",\"9\",\"P\",\"C\",\"47\"
\"\",\"\",\"approach-retreat\",\"51\",\"447095\",\"0.0-51.0\",\"\",\"\",\"2-4\",\"4252\",\"37\",\"0\",\"Training\",\"Stims/Figures/128-J-10-3.bmp\",\"na:mana\",\"Right\",\"39\",\"3\",\"16\",\"9\",\"S\",\"C\",\"48\"
\"\",\"\",\"approach-retreat\",\"52\",\"452738\",\"0.0-52.0\",\"\",\"\",\"2-4\",\"4134\",\"39\",\"0\",\"Training\",\"Stims/Figures/139-J-0-2.bmp\",\"pa:pa:ka\",\"Left\",\"37\",\"4\",\"1\",\"9\",\"P\",\"C\",\"49\"
\"\",\"\",\"approach-retreat\",\"53\",\"458535\",\"0.0-53.0\",\"\",\"\",\"2-4\",\"4290\",\"40\",\"1\",\"Training\",\"Stims/Figures/85-J-0-2.bmp\",\"ta:ka:ka\",\"Down\",\"40\",\"4\",\"2\",\"9\",\"P\",\"C\",\"50\"
\"\",\"\",\"approach-retreat\",\"54\",\"464192\",\"0.0-54.0\",\"\",\"\",\"2-4\",\"4149\",\"40\",\"1\",\"Training\",\"Stims/Figures/87-J-10-4.bmp\",\"na:la:la\",\"Down\",\"40\",\"4\",\"3\",\"9\",\"S\",\"C\",\"51\"
\"\",\"\",\"approach-retreat\",\"55\",\"470462\",\"0.0-55.0\",\"\",\"\",\"2-4\",\"4761\",\"38\",\"0\",\"Training\",\"Stims/Figures/128-C-30-3.bmp\",\"sa:ha:ha\",\"Up\",\"40\",\"4\",\"4\",\"9\",\"C2\",\"C\",\"52\"
\"\",\"\",\"approach-retreat\",\"56\",\"476300\",\"0.0-56.0\",\"\",\"\",\"2-4\",\"4331\",\"40\",\"1\",\"Training\",\"Stims/Figures/87-C-20-4.bmp\",\"nala:la\",\"Up\",\"40\",\"4\",\"5\",\"9\",\"S\",\"C\",\"53\"
\"\",\"\",\"approach-retreat\",\"57\",\"482151\",\"0.0-57.0\",\"\",\"\",\"2-4\",\"4343\",\"39\",\"0\",\"Training\",\"Stims/Figures/128-J-10-3.bmp\",\"na:mana\",\"Left\",\"37\",\"4\",\"6\",\"9\",\"S\",\"C\",\"54\"
\"\",\"\",\"approach-retreat\",\"58\",\"488460\",\"0.0-58.0\",\"\",\"\",\"2-4\",\"4800\",\"39\",\"0\",\"Training\",\"Stims/Figures/7-C-20-4.bmp\",\"ta:pa:ta\",\"Right\",\"37\",\"4\",\"7\",\"9\",\"P\",\"C\",\"55\"
\"\",\"\",\"approach-retreat\",\"59\",\"494510\",\"0.0-59.0\",\"\",\"\",\"2-4\",\"4542\",\"40\",\"0\",\"Training\",\"Stims/Figures/85-C-20-2.bmp\",\"sa:sa:za\",\"Down\",\"38\",\"4\",\"8\",\"9\",\"C2\",\"C\",\"56\"
\"\",\"\",\"approach-retreat\",\"60\",\"500347\",\"0.0-60.0\",\"\",\"\",\"2-4\",\"4329\",\"38\",\"1\",\"Training\",\"Stims/Figures/27-C-30-1.bmp\",\"fa:sha:sha\",\"Down\",\"38\",\"4\",\"9\",\"9\",\"C1\",\"C\",\"57\"
\"\",\"\",\"approach-retreat\",\"61\",\"506449\",\"0.0-61.0\",\"\",\"\",\"2-4\",\"4592\",\"37\",\"0\",\"Training\",\"Stims/Figures/27-J-0-1.bmp\",\"mama:la\",\"Right\",\"39\",\"4\",\"10\",\"9\",\"S\",\"C\",\"58\"
\"\",\"\",\"approach-retreat\",\"62\",\"512356\",\"0.0-62.0\",\"\",\"\",\"2-4\",\"4398\",\"40\",\"0\",\"Training\",\"Stims/Figures/144-J-10-3.bmp\",\"fashasha\",\"Up\",\"38\",\"4\",\"11\",\"9\",\"C1\",\"C\",\"59\"
\"\",\"\",\"approach-retreat\",\"63\",\"518808\",\"0.0-63.0\",\"\",\"\",\"2-4\",\"4944\",\"37\",\"1\",\"Training\",\"Stims/Figures/144-C-30-3.bmp\",\"za:saza\",\"Right\",\"37\",\"4\",\"12\",\"9\",\"C2\",\"C\",\"60\"
\"\",\"\",\"approach-retreat\",\"64\",\"524625\",\"0.0-64.0\",\"\",\"\",\"2-4\",\"4308\",\"40\",\"1\",\"Training\",\"Stims/Figures/86-C-30-1.bmp\",\"saha:ha\",\"Up\",\"40\",\"4\",\"13\",\"9\",\"C2\",\"C\",\"61\"
\"\",\"\",\"approach-retreat\",\"65\",\"530378\",\"0.0-65.0\",\"\",\"\",\"2-4\",\"4245\",\"39\",\"1\",\"Training\",\"Stims/Figures/7-J-10-4.bmp\",\"sasaha\",\"Right\",\"39\",\"4\",\"14\",\"9\",\"C2\",\"C\",\"62\"
\"\",\"\",\"approach-retreat\",\"66\",\"536590\",\"0.0-66.0\",\"\",\"\",\"2-4\",\"4703\",\"37\",\"0\",\"Training\",\"Stims/Figures/139-C-20-2.bmp\",\"na:lana\",\"Left\",\"39\",\"4\",\"15\",\"9\",\"S\",\"C\",\"63\"
\"\",\"\",\"approach-retreat\",\"67\",\"542596\",\"0.0-67.0\",\"\",\"\",\"2-4\",\"4498\",\"37\",\"1\",\"Training\",\"Stims/Figures/86-J-0-1.bmp\",\"vafa:va\",\"Left\",\"37\",\"4\",\"16\",\"9\",\"C1\",\"C\",\"64\"
\"\",\"\",\"approach-retreat\",\"68\",\"550209\",\"0.0-68.0\",\"\",\"\",\"2-4\",\"6104\",\"39\",\"0\",\"Training\",\"Stims/Figures/7-C-20-4.bmp\",\"ta:pa:ta\",\"Right\",\"37\",\"5\",\"1\",\"9\",\"P\",\"C\",\"65\"
\"\",\"\",\"approach-retreat\",\"69\",\"556266\",\"0.0-69.0\",\"\",\"\",\"2-4\",\"4548\",\"38\",\"0\",\"Training\",\"Stims/Figures/85-C-20-2.bmp\",\"sa:sa:za\",\"Up\",\"40\",\"5\",\"2\",\"9\",\"C2\",\"C\",\"66\"
\"\",\"\",\"approach-retreat\",\"70\",\"563482\",\"0.0-70.0\",\"\",\"\",\"2-4\",\"5709\",\"39\",\"0\",\"Training\",\"Stims/Figures/27-J-0-1.bmp\",\"mama:la\",\"Left\",\"37\",\"5\",\"3\",\"9\",\"S\",\"C\",\"67\"
\"\",\"\",\"approach-retreat\",\"71\",\"569745\",\"0.0-71.0\",\"\",\"\",\"2-4\",\"4754\",\"37\",\"0\",\"Training\",\"Stims/Figures/7-J-10-4.bmp\",\"sasaha\",\"Right\",\"39\",\"5\",\"4\",\"9\",\"C2\",\"C\",\"68\"
\"\",\"\",\"approach-retreat\",\"72\",\"576391\",\"0.0-72.0\",\"\",\"\",\"2-4\",\"5138\",\"38\",\"1\",\"Training\",\"Stims/Figures/128-J-10-3.bmp\",\"na:mana\",\"Up\",\"38\",\"5\",\"5\",\"9\",\"S\",\"C\",\"69\"
\"\",\"\",\"approach-retreat\",\"73\",\"582444\",\"0.0-73.0\",\"\",\"\",\"2-4\",\"4543\",\"38\",\"0\",\"Training\",\"Stims/Figures/27-C-30-1.bmp\",\"fa:sha:sha\",\"Up\",\"40\",\"5\",\"6\",\"9\",\"C1\",\"C\",\"70\"
\"\",\"\",\"approach-retreat\",\"74\",\"588939\",\"0.0-74.0\",\"\",\"\",\"2-4\",\"4986\",\"40\",\"1\",\"Training\",\"Stims/Figures/139-J-0-2.bmp\",\"pa:pa:ka\",\"Down\",\"40\",\"5\",\"7\",\"9\",\"P\",\"C\",\"71\"
\"\",\"\",\"approach-retreat\",\"75\",\"595262\",\"0.0-75.0\",\"\",\"\",\"2-4\",\"4813\",\"37\",\"1\",\"Training\",\"Stims/Figures/85-J-0-2.bmp\",\"ta:ka:ka\",\"Left\",\"37\",\"5\",\"8\",\"9\",\"P\",\"C\",\"72\"
\"\",\"\",\"approach-retreat\",\"76\",\"601068\",\"0.0-76.0\",\"\",\"\",\"2-4\",\"4298\",\"40\",\"1\",\"Training\",\"Stims/Figures/86-J-0-1.bmp\",\"vafa:va\",\"Down\",\"40\",\"5\",\"9\",\"9\",\"C1\",\"C\",\"73\"
\"\",\"\",\"approach-retreat\",\"77\",\"606817\",\"0.0-77.0\",\"\",\"\",\"2-4\",\"4239\",\"40\",\"0\",\"Training\",\"Stims/Figures/144-J-10-3.bmp\",\"fashasha\",\"Up\",\"38\",\"5\",\"10\",\"9\",\"C1\",\"C\",\"74\"
\"\",\"\",\"approach-retreat\",\"78\",\"612702\",\"0.0-78.0\",\"\",\"\",\"2-4\",\"4378\",\"39\",\"0\",\"Training\",\"Stims/Figures/128-C-30-3.bmp\",\"sa:ha:ha\",\"Right\",\"37\",\"5\",\"11\",\"9\",\"C2\",\"C\",\"75\"
\"\",\"\",\"approach-retreat\",\"79\",\"618990\",\"0.0-79.0\",\"\",\"\",\"2-4\",\"4780\",\"37\",\"0\",\"Training\",\"Stims/Figures/139-C-20-2.bmp\",\"na:lana\",\"Left\",\"39\",\"5\",\"12\",\"9\",\"S\",\"C\",\"76\"
\"\",\"\",\"approach-retreat\",\"80\",\"625188\",\"0.0-80.0\",\"\",\"\",\"2-4\",\"4689\",\"38\",\"1\",\"Training\",\"Stims/Figures/86-C-30-1.bmp\",\"saha:ha\",\"Down\",\"38\",\"5\",\"13\",\"9\",\"C2\",\"C\",\"77\"
\"\",\"\",\"approach-retreat\",\"81\",\"630826\",\"0.0-81.0\",\"\",\"\",\"2-4\",\"4130\",\"39\",\"1\",\"Training\",\"Stims/Figures/87-C-20-4.bmp\",\"nala:la\",\"Left\",\"39\",\"5\",\"14\",\"9\",\"S\",\"C\",\"78\"
\"\",\"\",\"approach-retreat\",\"82\",\"636694\",\"0.0-82.0\",\"\",\"\",\"2-4\",\"4359\",\"38\",\"0\",\"Training\",\"Stims/Figures/87-J-10-4.bmp\",\"na:la:la\",\"Down\",\"40\",\"5\",\"15\",\"9\",\"S\",\"C\",\"79\"
\"\",\"\",\"approach-retreat\",\"83\",\"643839\",\"0.0-83.0\",\"\",\"\",\"2-4\",\"5636\",\"39\",\"0\",\"Training\",\"Stims/Figures/144-C-30-3.bmp\",\"za:saza\",\"Right\",\"37\",\"5\",\"16\",\"9\",\"C2\",\"C\",\"80\"
\"\",\"\",\"approach-retreat\",\"84\",\"649564\",\"0.0-84.0\",\"\",\"\",\"2-4\",\"4215\",\"39\",\"0\",\"Training\",\"Stims/Figures/139-C-20-2.bmp\",\"na:lana\",\"Right\",\"37\",\"6\",\"1\",\"9\",\"S\",\"C\",\"81\"
\"\",\"\",\"approach-retreat\",\"85\",\"655353\",\"0.0-85.0\",\"\",\"\",\"2-4\",\"4279\",\"38\",\"1\",\"Training\",\"Stims/Figures/144-C-30-3.bmp\",\"za:saza\",\"Down\",\"38\",\"6\",\"2\",\"9\",\"C2\",\"C\",\"82\"
\"\",\"\",\"approach-retreat\",\"86\",\"661620\",\"0.0-86.0\",\"\",\"\",\"2-4\",\"4760\",\"38\",\"0\",\"Training\",\"Stims/Figures/128-J-10-3.bmp\",\"na:mana\",\"Down\",\"40\",\"6\",\"3\",\"9\",\"S\",\"C\",\"83\"
\"\",\"\",\"approach-retreat\",\"87\",\"667391\",\"0.0-87.0\",\"\",\"\",\"2-4\",\"4263\",\"40\",\"1\",\"Training\",\"Stims/Figures/27-J-0-1.bmp\",\"mama:la\",\"Down\",\"40\",\"6\",\"4\",\"9\",\"S\",\"C\",\"84\"
\"\",\"\",\"approach-retreat\",\"88\",\"673761\",\"0.0-88.0\",\"\",\"\",\"2-4\",\"4862\",\"38\",\"1\",\"Training\",\"Stims/Figures/139-J-0-2.bmp\",\"pa:pa:ka\",\"Up\",\"38\",\"6\",\"5\",\"9\",\"P\",\"C\",\"85\"
\"\",\"\",\"approach-retreat\",\"89\",\"679470\",\"0.0-89.0\",\"\",\"\",\"2-4\",\"4201\",\"40\",\"1\",\"Training\",\"Stims/Figures/128-C-30-3.bmp\",\"sa:ha:ha\",\"Up\",\"40\",\"6\",\"6\",\"9\",\"C2\",\"C\",\"86\"
\"\",\"\",\"approach-retreat\",\"90\",\"685673\",\"0.0-90.0\",\"\",\"\",\"2-4\",\"4695\",\"39\",\"1\",\"Training\",\"Stims/Figures/27-C-30-1.bmp\",\"fa:sha:sha\",\"Left\",\"39\",\"6\",\"7\",\"9\",\"C1\",\"C\",\"87\"
\"\",\"\",\"approach-retreat\",\"91\",\"692210\",\"0.0-91.0\",\"\",\"\",\"2-4\",\"5027\",\"39\",\"1\",\"Training\",\"Stims/Figures/85-J-0-2.bmp\",\"ta:ka:ka\",\"Right\",\"39\",\"6\",\"8\",\"9\",\"P\",\"C\",\"88\"
\"\",\"\",\"approach-retreat\",\"92\",\"697926\",\"0.0-92.0\",\"\",\"\",\"2-4\",\"4207\",\"39\",\"0\",\"Training\",\"Stims/Figures/87-J-10-4.bmp\",\"na:la:la\",\"Left\",\"37\",\"6\",\"9\",\"9\",\"S\",\"C\",\"89\"
\"\",\"\",\"approach-retreat\",\"93\",\"703803\",\"0.0-93.0\",\"\",\"\",\"2-4\",\"4369\",\"37\",\"1\",\"Training\",\"Stims/Figures/144-J-10-3.bmp\",\"fashasha\",\"Left\",\"37\",\"6\",\"10\",\"9\",\"C1\",\"C\",\"90\"
\"\",\"\",\"approach-retreat\",\"94\",\"709532\",\"0.0-94.0\",\"\",\"\",\"2-4\",\"4221\",\"38\",\"1\",\"Training\",\"Stims/Figures/85-C-20-2.bmp\",\"sa:sa:za\",\"Down\",\"38\",\"6\",\"11\",\"9\",\"C2\",\"C\",\"91\"
\"\",\"\",\"approach-retreat\",\"95\",\"715663\",\"0.0-95.0\",\"\",\"\",\"2-4\",\"4620\",\"37\",\"1\",\"Training\",\"Stims/Figures/86-J-0-1.bmp\",\"vafa:va\",\"Left\",\"37\",\"6\",\"12\",\"9\",\"C1\",\"C\",\"92\"
\"\",\"\",\"approach-retreat\",\"96\",\"722096\",\"0.0-96.0\",\"\",\"\",\"2-4\",\"4925\",\"39\",\"1\",\"Training\",\"Stims/Figures/7-J-10-4.bmp\",\"sasaha\",\"Right\",\"39\",\"6\",\"13\",\"9\",\"C2\",\"C\",\"93\"
\"\",\"\",\"approach-retreat\",\"97\",\"727822\",\"0.0-97.0\",\"\",\"\",\"2-4\",\"4217\",\"40\",\"1\",\"Training\",\"Stims/Figures/87-C-20-4.bmp\",\"nala:la\",\"Up\",\"40\",\"6\",\"14\",\"9\",\"S\",\"C\",\"94\"
\"\",\"\",\"approach-retreat\",\"98\",\"733451\",\"0.0-98.0\",\"\",\"\",\"2-4\",\"4121\",\"40\",\"1\",\"Training\",\"Stims/Figures/7-C-20-4.bmp\",\"ta:pa:ta\",\"Up\",\"40\",\"6\",\"15\",\"9\",\"P\",\"C\",\"95\"
\"\",\"\",\"approach-retreat\",\"99\",\"739149\",\"0.0-99.0\",\"\",\"\",\"2-4\",\"4189\",\"39\",\"0\",\"Training\",\"Stims/Figures/86-C-30-1.bmp\",\"saha:ha\",\"Right\",\"37\",\"6\",\"16\",\"9\",\"C2\",\"C\",\"96\"
\"\",\"\",\"approach-retreat\",\"100\",\"744812\",\"0.0-100.0\",\"\",\"\",\"2-4\",\"4154\",\"38\",\"1\",\"Training\",\"Stims/Figures/85-C-20-2.bmp\",\"sa:sa:za\",\"Down\",\"38\",\"7\",\"1\",\"9\",\"C2\",\"C\",\"97\"
\"\",\"\",\"approach-retreat\",\"101\",\"750514\",\"0.0-101.0\",\"\",\"\",\"2-4\",\"4194\",\"39\",\"1\",\"Training\",\"Stims/Figures/27-C-30-1.bmp\",\"fa:sha:sha\",\"Left\",\"39\",\"7\",\"2\",\"9\",\"C1\",\"C\",\"98\"
\"\",\"\",\"approach-retreat\",\"102\",\"756366\",\"0.0-102.0\",\"\",\"\",\"2-4\",\"4343\",\"39\",\"1\",\"Training\",\"Stims/Figures/144-C-30-3.bmp\",\"za:saza\",\"Left\",\"39\",\"7\",\"3\",\"9\",\"C2\",\"C\",\"99\"
\"\",\"\",\"approach-retreat\",\"103\",\"762448\",\"0.0-103.0\",\"\",\"\",\"2-4\",\"4575\",\"38\",\"1\",\"Training\",\"Stims/Figures/86-J-0-1.bmp\",\"vafa:va\",\"Up\",\"38\",\"7\",\"4\",\"9\",\"C1\",\"C\",\"100\"
\"\",\"\",\"approach-retreat\",\"104\",\"768917\",\"0.0-104.0\",\"\",\"\",\"2-4\",\"4961\",\"38\",\"1\",\"Training\",\"Stims/Figures/139-C-20-2.bmp\",\"na:lana\",\"Down\",\"38\",\"7\",\"5\",\"9\",\"S\",\"C\",\"101\"
\"\",\"\",\"approach-retreat\",\"105\",\"774988\",\"0.0-105.0\",\"\",\"\",\"2-4\",\"4561\",\"37\",\"0\",\"Training\",\"Stims/Figures/128-J-10-3.bmp\",\"na:mana\",\"Right\",\"39\",\"7\",\"6\",\"9\",\"S\",\"C\",\"102\"
\"\",\"\",\"approach-retreat\",\"106\",\"780806\",\"0.0-106.0\",\"\",\"\",\"2-4\",\"4310\",\"37\",\"1\",\"Training\",\"Stims/Figures/128-C-30-3.bmp\",\"sa:ha:ha\",\"Right\",\"37\",\"7\",\"7\",\"9\",\"C2\",\"C\",\"103\"
\"\",\"\",\"approach-retreat\",\"107\",\"786863\",\"0.0-107.0\",\"\",\"\",\"2-4\",\"4552\",\"37\",\"1\",\"Training\",\"Stims/Figures/7-J-10-4.bmp\",\"sasaha\",\"Left\",\"37\",\"7\",\"8\",\"9\",\"C2\",\"C\",\"104\"
\"\",\"\",\"approach-retreat\",\"108\",\"793041\",\"0.0-108.0\",\"\",\"\",\"2-4\",\"4673\",\"38\",\"1\",\"Training\",\"Stims/Figures/85-J-0-2.bmp\",\"ta:ka:ka\",\"Up\",\"38\",\"7\",\"9\",\"9\",\"P\",\"C\",\"105\"
\"\",\"\",\"approach-retreat\",\"109\",\"799721\",\"0.0-109.0\",\"\",\"\",\"2-4\",\"5171\",\"39\",\"1\",\"Training\",\"Stims/Figures/139-J-0-2.bmp\",\"pa:pa:ka\",\"Right\",\"39\",\"7\",\"10\",\"9\",\"P\",\"C\",\"106\"
\"\",\"\",\"approach-retreat\",\"110\",\"805652\",\"0.0-110.0\",\"\",\"\",\"2-4\",\"4422\",\"40\",\"0\",\"Training\",\"Stims/Figures/87-J-10-4.bmp\",\"na:la:la\",\"Up\",\"38\",\"7\",\"11\",\"9\",\"S\",\"C\",\"107\"
\"\",\"\",\"approach-retreat\",\"111\",\"811673\",\"0.0-111.0\",\"\",\"\",\"2-4\",\"4513\",\"38\",\"1\",\"Training\",\"Stims/Figures/87-C-20-4.bmp\",\"nala:la\",\"Down\",\"38\",\"7\",\"12\",\"9\",\"S\",\"C\",\"108\"
\"\",\"\",\"approach-retreat\",\"112\",\"817414\",\"0.0-112.0\",\"\",\"\",\"2-4\",\"4234\",\"37\",\"1\",\"Training\",\"Stims/Figures/86-C-30-1.bmp\",\"saha:ha\",\"Right\",\"37\",\"7\",\"13\",\"9\",\"C2\",\"C\",\"109\"
\"\",\"\",\"approach-retreat\",\"113\",\"823577\",\"0.0-113.0\",\"\",\"\",\"2-4\",\"4658\",\"38\",\"1\",\"Training\",\"Stims/Figures/144-J-10-3.bmp\",\"fashasha\",\"Up\",\"38\",\"7\",\"14\",\"9\",\"C1\",\"C\",\"110\"
\"\",\"\",\"approach-retreat\",\"114\",\"829742\",\"0.0-114.0\",\"\",\"\",\"2-4\",\"4657\",\"38\",\"1\",\"Training\",\"Stims/Figures/7-C-20-4.bmp\",\"ta:pa:ta\",\"Down\",\"38\",\"7\",\"15\",\"9\",\"P\",\"C\",\"111\"
\"\",\"\",\"approach-retreat\",\"115\",\"835668\",\"0.0-115.0\",\"\",\"\",\"2-4\",\"4417\",\"37\",\"1\",\"Training\",\"Stims/Figures/27-J-0-1.bmp\",\"mama:la\",\"Left\",\"37\",\"7\",\"16\",\"9\",\"S\",\"C\",\"112\"
\"\",\"\",\"approach-retreat\",\"116\",\"841353\",\"0.0-116.0\",\"\",\"\",\"2-4\",\"4177\",\"38\",\"1\",\"Training\",\"Stims/Figures/128-C-30-3.bmp\",\"sa:ha:ha\",\"Down\",\"38\",\"8\",\"1\",\"9\",\"C2\",\"C\",\"113\"
\"\",\"\",\"approach-retreat\",\"117\",\"847018\",\"0.0-117.0\",\"\",\"\",\"2-4\",\"4156\",\"40\",\"0\",\"Training\",\"Stims/Figures/144-J-10-3.bmp\",\"fashasha\",\"Up\",\"38\",\"8\",\"2\",\"9\",\"C1\",\"C\",\"114\"
\"\",\"\",\"approach-retreat\",\"118\",\"852717\",\"0.0-118.0\",\"\",\"\",\"2-4\",\"4191\",\"37\",\"1\",\"Training\",\"Stims/Figures/144-C-30-3.bmp\",\"za:saza\",\"Right\",\"37\",\"8\",\"3\",\"9\",\"C2\",\"C\",\"115\"
\"\",\"\",\"approach-retreat\",\"119\",\"858557\",\"0.0-119.0\",\"\",\"\",\"2-4\",\"4331\",\"39\",\"1\",\"Training\",\"Stims/Figures/87-C-20-4.bmp\",\"nala:la\",\"Left\",\"39\",\"8\",\"4\",\"9\",\"S\",\"C\",\"116\"
\"\",\"\",\"approach-retreat\",\"120\",\"864971\",\"0.0-120.0\",\"\",\"\",\"2-4\",\"4907\",\"39\",\"1\",\"Training\",\"Stims/Figures/86-J-0-1.bmp\",\"vafa:va\",\"Right\",\"39\",\"8\",\"5\",\"9\",\"C1\",\"C\",\"117\"
\"\",\"\",\"approach-retreat\",\"121\",\"870676\",\"0.0-121.0\",\"\",\"\",\"2-4\",\"4196\",\"39\",\"1\",\"Training\",\"Stims/Figures/139-C-20-2.bmp\",\"na:lana\",\"Left\",\"39\",\"8\",\"6\",\"9\",\"S\",\"C\",\"118\"
\"\",\"\",\"approach-retreat\",\"122\",\"876567\",\"0.0-122.0\",\"\",\"\",\"2-4\",\"4382\",\"38\",\"1\",\"Training\",\"Stims/Figures/7-C-20-4.bmp\",\"ta:pa:ta\",\"Down\",\"38\",\"8\",\"7\",\"9\",\"P\",\"C\",\"119\"
\"\",\"\",\"approach-retreat\",\"123\",\"882201\",\"0.0-123.0\",\"\",\"\",\"2-4\",\"4125\",\"39\",\"1\",\"Training\",\"Stims/Figures/27-C-30-1.bmp\",\"fa:sha:sha\",\"Left\",\"39\",\"8\",\"8\",\"9\",\"C1\",\"C\",\"120\"
\"\",\"\",\"approach-retreat\",\"124\",\"888237\",\"0.0-124.0\",\"\",\"\",\"2-4\",\"4528\",\"40\",\"0\",\"Training\",\"Stims/Figures/87-J-10-4.bmp\",\"na:la:la\",\"Up\",\"38\",\"8\",\"9\",\"9\",\"S\",\"C\",\"121\"
\"\",\"\",\"approach-retreat\",\"125\",\"894068\",\"0.0-125.0\",\"\",\"\",\"2-4\",\"4322\",\"38\",\"1\",\"Training\",\"Stims/Figures/128-J-10-3.bmp\",\"na:mana\",\"Up\",\"38\",\"8\",\"10\",\"9\",\"S\",\"C\",\"122\"
\"\",\"\",\"approach-retreat\",\"126\",\"899678\",\"0.0-126.0\",\"\",\"\",\"2-4\",\"4102\",\"39\",\"1\",\"Training\",\"Stims/Figures/86-C-30-1.bmp\",\"saha:ha\",\"Left\",\"39\",\"8\",\"11\",\"9\",\"C2\",\"C\",\"123\"
\"\",\"\",\"approach-retreat\",\"127\",\"906132\",\"0.0-127.0\",\"\",\"\",\"2-4\",\"4944\",\"39\",\"1\",\"Training\",\"Stims/Figures/85-J-0-2.bmp\",\"ta:ka:ka\",\"Right\",\"39\",\"8\",\"12\",\"9\",\"P\",\"C\",\"124\"
\"\",\"\",\"approach-retreat\",\"128\",\"912292\",\"0.0-128.0\",\"\",\"\",\"2-4\",\"4652\",\"40\",\"1\",\"Training\",\"Stims/Figures/139-J-0-2.bmp\",\"pa:pa:ka\",\"Down\",\"40\",\"8\",\"13\",\"9\",\"P\",\"C\",\"125\"
\"\",\"\",\"approach-retreat\",\"129\",\"918625\",\"0.0-129.0\",\"\",\"\",\"2-4\",\"4825\",\"38\",\"1\",\"Training\",\"Stims/Figures/85-C-20-2.bmp\",\"sa:sa:za\",\"Down\",\"38\",\"8\",\"14\",\"9\",\"C2\",\"C\",\"126\"
\"\",\"\",\"approach-retreat\",\"130\",\"924645\",\"0.0-130.0\",\"\",\"\",\"2-4\",\"4512\",\"39\",\"1\",\"Training\",\"Stims/Figures/7-J-10-4.bmp\",\"sasaha\",\"Right\",\"39\",\"8\",\"15\",\"9\",\"C2\",\"C\",\"127\"
\"\",\"\",\"approach-retreat\",\"131\",\"930492\",\"0.0-131.0\",\"\",\"\",\"2-4\",\"4338\",\"38\",\"1\",\"Training\",\"Stims/Figures/27-J-0-1.bmp\",\"mama:la\",\"Up\",\"38\",\"8\",\"16\",\"9\",\"S\",\"C\",\"128\"
\"\",\"\",\"approach-retreat\",\"132\",\"937080\",\"0.0-132.0\",\"\",\"\",\"2-4\",\"5080\",\"37\",\"1\",\"Training\",\"Stims/Figures/85-J-0-2.bmp\",\"ta:ka:ka\",\"Left\",\"37\",\"9\",\"1\",\"9\",\"P\",\"C\",\"129\"
\"\",\"\",\"approach-retreat\",\"133\",\"943130\",\"0.0-133.0\",\"\",\"\",\"2-4\",\"4542\",\"37\",\"1\",\"Training\",\"Stims/Figures/86-J-0-1.bmp\",\"vafa:va\",\"Left\",\"37\",\"9\",\"2\",\"9\",\"C1\",\"C\",\"130\"
\"\",\"\",\"approach-retreat\",\"134\",\"948990\",\"0.0-134.0\",\"\",\"\",\"2-4\",\"4353\",\"37\",\"1\",\"Training\",\"Stims/Figures/139-J-0-2.bmp\",\"pa:pa:ka\",\"Left\",\"37\",\"9\",\"3\",\"9\",\"P\",\"C\",\"131\"
\"\",\"\",\"approach-retreat\",\"135\",\"955012\",\"0.0-135.0\",\"\",\"\",\"2-4\",\"4514\",\"37\",\"1\",\"Training\",\"Stims/Figures/85-C-20-2.bmp\",\"sa:sa:za\",\"Right\",\"37\",\"9\",\"4\",\"9\",\"C2\",\"C\",\"132\"
\"\",\"\",\"approach-retreat\",\"136\",\"960618\",\"0.0-136.0\",\"\",\"\",\"2-4\",\"4098\",\"38\",\"1\",\"Training\",\"Stims/Figures/128-C-30-3.bmp\",\"sa:ha:ha\",\"Down\",\"38\",\"9\",\"5\",\"9\",\"C2\",\"C\",\"133\"
\"\",\"\",\"approach-retreat\",\"137\",\"966660\",\"0.0-137.0\",\"\",\"\",\"2-4\",\"4533\",\"39\",\"0\",\"Training\",\"Stims/Figures/139-C-20-2.bmp\",\"na:lana\",\"Right\",\"37\",\"9\",\"6\",\"9\",\"S\",\"C\",\"134\"
\"\",\"\",\"approach-retreat\",\"138\",\"973265\",\"0.0-138.0\",\"\",\"\",\"2-4\",\"5096\",\"40\",\"1\",\"Training\",\"Stims/Figures/86-C-30-1.bmp\",\"saha:ha\",\"Up\",\"40\",\"9\",\"7\",\"9\",\"C2\",\"C\",\"135\"
\"\",\"\",\"approach-retreat\",\"139\",\"979088\",\"0.0-139.0\",\"\",\"\",\"2-4\",\"4314\",\"37\",\"1\",\"Training\",\"Stims/Figures/87-C-20-4.bmp\",\"nala:la\",\"Right\",\"37\",\"9\",\"8\",\"9\",\"S\",\"C\",\"136\"
\"\",\"\",\"approach-retreat\",\"140\",\"984781\",\"0.0-140.0\",\"\",\"\",\"2-4\",\"4184\",\"39\",\"1\",\"Training\",\"Stims/Figures/27-C-30-1.bmp\",\"fa:sha:sha\",\"Left\",\"39\",\"9\",\"9\",\"9\",\"C1\",\"C\",\"137\"
\"\",\"\",\"approach-retreat\",\"141\",\"990791\",\"0.0-141.0\",\"\",\"\",\"2-4\",\"4501\",\"38\",\"1\",\"Training\",\"Stims/Figures/7-J-10-4.bmp\",\"sasaha\",\"Up\",\"38\",\"9\",\"10\",\"9\",\"C2\",\"C\",\"138\"
\"\",\"\",\"approach-retreat\",\"142\",\"996640\",\"0.0-142.0\",\"\",\"\",\"2-4\",\"4341\",\"38\",\"1\",\"Training\",\"Stims/Figures/128-J-10-3.bmp\",\"na:mana\",\"Up\",\"38\",\"9\",\"11\",\"9\",\"S\",\"C\",\"139\"
\"\",\"\",\"approach-retreat\",\"143\",\"1003171\",\"0.0-143.0\",\"\",\"\",\"2-4\",\"5022\",\"38\",\"1\",\"Training\",\"Stims/Figures/144-C-30-3.bmp\",\"za:saza\",\"Down\",\"38\",\"9\",\"12\",\"9\",\"C2\",\"C\",\"140\"
\"\",\"\",\"approach-retreat\",\"144\",\"1009063\",\"0.0-144.0\",\"\",\"\",\"2-4\",\"4382\",\"38\",\"1\",\"Training\",\"Stims/Figures/27-J-0-1.bmp\",\"mama:la\",\"Up\",\"38\",\"9\",\"13\",\"9\",\"S\",\"C\",\"141\"
\"\",\"\",\"approach-retreat\",\"145\",\"1014581\",\"0.0-145.0\",\"\",\"\",\"2-4\",\"4010\",\"39\",\"0\",\"Training\",\"Stims/Figures/7-C-20-4.bmp\",\"ta:pa:ta\",\"Right\",\"37\",\"9\",\"14\",\"9\",\"P\",\"C\",\"142\"
\"\",\"\",\"approach-retreat\",\"146\",\"1020468\",\"0.0-146.0\",\"\",\"\",\"2-4\",\"4379\",\"40\",\"1\",\"Training\",\"Stims/Figures/144-J-10-3.bmp\",\"fashasha\",\"Down\",\"40\",\"9\",\"15\",\"9\",\"C1\",\"C\",\"143\"
\"\",\"\",\"approach-retreat\",\"147\",\"1026330\",\"0.0-147.0\",\"\",\"\",\"2-4\",\"4353\",\"40\",\"1\",\"Training\",\"Stims/Figures/87-J-10-4.bmp\",\"na:la:la\",\"Down\",\"40\",\"9\",\"16\",\"9\",\"S\",\"C\",\"144\"
\"15013\",\"\",\"instructions\",\"148\",\"1041344\",\"0.0-148.0\",\"[{\"\"page_index\"\":0,\"\"viewing_time\"\":15013}]\",\"\",\"\",\"\",\"\",\"\",\"\",\"\",\"\",\"\",\"\",\"\",\"\",\"\",\"\",\"\",\"\"
\"\",\"\",\"approach-retreat\",\"149\",\"1047288\",\"0.0-149.0\",\"\",\"\",\"2-4\",\"4438\",\"37\",\"1\",\"Testing\",\"Stims/Figures/85-C-20-2.bmp\",\"sa:sa:za\",\"Right\",\"37\",\"1\",\"1\",\"9\",\"C2\",\"C\",\"1\"
\"\",\"\",\"approach-retreat\",\"150\",\"1053270\",\"0.0-150.0\",\"\",\"\",\"2-4\",\"4475\",\"38\",\"1\",\"Testing\",\"Stims/Figures/128-J-10-3.bmp\",\"na:mana\",\"Up\",\"38\",\"1\",\"2\",\"9\",\"S\",\"C\",\"2\"
\"\",\"\",\"approach-retreat\",\"151\",\"1059319\",\"0.0-151.0\",\"\",\"\",\"2-4\",\"4542\",\"37\",\"1\",\"Testing\",\"Stims/Figures/144-J-10-3.bmp\",\"fashasha\",\"Left\",\"37\",\"1\",\"3\",\"9\",\"C1\",\"C\",\"3\"
\"\",\"\",\"approach-retreat\",\"152\",\"1066302\",\"0.0-152.0\",\"\",\"\",\"2-4\",\"5475\",\"38\",\"0\",\"Testing\",\"Stims/Figures/139-C-20-2.bmp\",\"na:lana\",\"Up\",\"40\",\"1\",\"4\",\"9\",\"S\",\"C\",\"4\"
\"\",\"\",\"approach-retreat\",\"153\",\"1072402\",\"0.0-153.0\",\"\",\"\",\"2-4\",\"4593\",\"38\",\"1\",\"Testing\",\"Stims/Figures/86-C-30-1.bmp\",\"saha:ha\",\"Down\",\"38\",\"1\",\"5\",\"9\",\"C2\",\"C\",\"5\"
\"\",\"\",\"approach-retreat\",\"154\",\"1078216\",\"0.0-154.0\",\"\",\"\",\"2-4\",\"4308\",\"40\",\"1\",\"Testing\",\"Stims/Figures/57-C-30-1.bmp\",\"tapa:ta\",\"Up\",\"40\",\"1\",\"6\",\"9\",\"P\",\"C\",\"6\"
\"\",\"\",\"approach-retreat\",\"155\",\"1083945\",\"0.0-155.0\",\"\",\"\",\"2-4\",\"4223\",\"39\",\"1\",\"Testing\",\"Stims/Figures/144-C-30-3.bmp\",\"za:saza\",\"Left\",\"39\",\"1\",\"7\",\"9\",\"C2\",\"C\",\"7\"
\"\",\"\",\"approach-retreat\",\"156\",\"1090006\",\"0.0-156.0\",\"\",\"\",\"2-4\",\"4555\",\"39\",\"1\",\"Testing\",\"Stims/Figures/139-J-0-2.bmp\",\"pa:pa:ka\",\"Right\",\"39\",\"1\",\"8\",\"9\",\"P\",\"C\",\"8\"
\"\",\"\",\"approach-retreat\",\"157\",\"1095811\",\"0.0-157.0\",\"\",\"\",\"2-4\",\"4298\",\"38\",\"1\",\"Testing\",\"Stims/Figures/44-C-30-3.bmp\",\"sasa:ha\",\"Down\",\"38\",\"1\",\"9\",\"9\",\"C2\",\"C\",\"9\"
\"\",\"\",\"approach-retreat\",\"158\",\"1101440\",\"0.0-158.0\",\"\",\"\",\"2-4\",\"4119\",\"39\",\"1\",\"Testing\",\"Stims/Figures/87-C-20-4.bmp\",\"nala:la\",\"Left\",\"39\",\"1\",\"10\",\"9\",\"S\",\"C\",\"10\"
\"\",\"\",\"approach-retreat\",\"159\",\"1107045\",\"0.0-159.0\",\"\",\"\",\"2-4\",\"4098\",\"38\",\"1\",\"Testing\",\"Stims/Figures/27-C-30-1.bmp\",\"fa:sha:sha\",\"Down\",\"38\",\"1\",\"11\",\"9\",\"C1\",\"C\",\"11\"
\"\",\"\",\"approach-retreat\",\"160\",\"1113392\",\"0.0-160.0\",\"\",\"\",\"2-4\",\"4840\",\"38\",\"1\",\"Testing\",\"Stims/Figures/44-J-10-3.bmp\",\"fa:shava\",\"Up\",\"38\",\"1\",\"12\",\"9\",\"C1\",\"C\",\"12\"
\"\",\"\",\"approach-retreat\",\"161\",\"1119649\",\"0.0-161.0\",\"\",\"\",\"2-4\",\"4751\",\"40\",\"1\",\"Testing\",\"Stims/Figures/27-J-0-1.bmp\",\"mama:la\",\"Down\",\"40\",\"1\",\"13\",\"9\",\"S\",\"C\",\"13\"
\"\",\"\",\"approach-retreat\",\"162\",\"1128216\",\"0.0-162.0\",\"\",\"\",\"2-4\",\"7060\",\"39\",\"1\",\"Testing\",\"Stims/Figures/74-C-20-4.bmp\",\"za:saha\",\"Left\",\"39\",\"1\",\"14\",\"9\",\"C2\",\"C\",\"14\"
\"\",\"\",\"approach-retreat\",\"163\",\"1134174\",\"0.0-163.0\",\"\",\"\",\"2-4\",\"4451\",\"39\",\"1\",\"Testing\",\"Stims/Figures/128-C-30-3.bmp\",\"sa:ha:ha\",\"Left\",\"39\",\"1\",\"15\",\"9\",\"C2\",\"C\",\"15\"
\"\",\"\",\"approach-retreat\",\"164\",\"1141065\",\"0.0-164.0\",\"\",\"\",\"2-4\",\"5383\",\"39\",\"1\",\"Testing\",\"Stims/Figures/87-J-10-4.bmp\",\"na:la:la\",\"Right\",\"39\",\"1\",\"16\",\"9\",\"S\",\"C\",\"16\"
\"\",\"\",\"approach-retreat\",\"165\",\"1147538\",\"0.0-165.0\",\"\",\"\",\"2-4\",\"4965\",\"39\",\"1\",\"Testing\",\"Stims/Figures/86-J-0-1.bmp\",\"vafa:va\",\"Right\",\"39\",\"1\",\"17\",\"9\",\"C1\",\"C\",\"17\"
\"\",\"\",\"approach-retreat\",\"166\",\"1153266\",\"0.0-166.0\",\"\",\"\",\"2-4\",\"4221\",\"39\",\"1\",\"Testing\",\"Stims/Figures/94-C-20-2.bmp\",\"na:ma:na\",\"Left\",\"39\",\"1\",\"18\",\"9\",\"S\",\"C\",\"18\"
\"\",\"\",\"approach-retreat\",\"167\",\"1159381\",\"0.0-167.0\",\"\",\"\",\"2-4\",\"4601\",\"40\",\"1\",\"Testing\",\"Stims/Figures/94-J-0-2.bmp\",\"fa:sha:va\",\"Down\",\"40\",\"1\",\"19\",\"9\",\"C1\",\"C\",\"19\"
\"\",\"\",\"approach-retreat\",\"168\",\"1165855\",\"0.0-168.0\",\"\",\"\",\"2-4\",\"4968\",\"40\",\"1\",\"Testing\",\"Stims/Figures/57-J-0-1.bmp\",\"ma:la:na\",\"Down\",\"40\",\"1\",\"20\",\"9\",\"S\",\"C\",\"20\"
\"\",\"\",\"approach-retreat\",\"169\",\"1171650\",\"0.0-169.0\",\"\",\"\",\"2-4\",\"4288\",\"40\",\"1\",\"Testing\",\"Stims/Figures/7-C-20-4.bmp\",\"ta:pa:ta\",\"Up\",\"40\",\"1\",\"21\",\"9\",\"P\",\"C\",\"21\"
\"\",\"\",\"approach-retreat\",\"170\",\"1177918\",\"0.0-170.0\",\"\",\"\",\"2-4\",\"4761\",\"39\",\"1\",\"Testing\",\"Stims/Figures/7-J-10-4.bmp\",\"sasaha\",\"Right\",\"39\",\"1\",\"22\",\"9\",\"C2\",\"C\",\"22\"
\"\",\"\",\"approach-retreat\",\"171\",\"1184107\",\"0.0-171.0\",\"\",\"\",\"2-4\",\"4683\",\"38\",\"1\",\"Testing\",\"Stims/Figures/74-J-10-4.bmp\",\"pa:ka:ka\",\"Up\",\"38\",\"1\",\"23\",\"9\",\"P\",\"C\",\"23\"
\"\",\"\",\"approach-retreat\",\"172\",\"1189834\",\"0.0-172.0\",\"\",\"\",\"2-4\",\"4221\",\"39\",\"1\",\"Testing\",\"Stims/Figures/85-J-0-2.bmp\",\"ta:ka:ka\",\"Right\",\"39\",\"1\",\"24\",\"9\",\"P\",\"C\",\"24\"
\"\",\"\",\"approach-retreat\",\"173\",\"1195880\",\"0.0-173.0\",\"\",\"\",\"2-4\",\"4540\",\"40\",\"1\",\"Testing\",\"Stims/Figures/139-J-0-2.bmp\",\"pa:pa:ka\",\"Down\",\"40\",\"2\",\"1\",\"9\",\"P\",\"C\",\"25\"
\"\",\"\",\"approach-retreat\",\"174\",\"1202961\",\"0.0-174.0\",\"\",\"\",\"2-4\",\"5574\",\"38\",\"0\",\"Testing\",\"Stims/Figures/139-C-20-2.bmp\",\"na:lana\",\"Up\",\"40\",\"2\",\"2\",\"9\",\"S\",\"C\",\"26\"
\"\",\"\",\"approach-retreat\",\"175\",\"1208875\",\"0.0-175.0\",\"\",\"\",\"2-4\",\"4407\",\"39\",\"1\",\"Testing\",\"Stims/Figures/144-J-10-3.bmp\",\"fashasha\",\"Right\",\"39\",\"2\",\"3\",\"9\",\"C1\",\"C\",\"27\"
\"\",\"\",\"approach-retreat\",\"176\",\"1215164\",\"0.0-176.0\",\"\",\"\",\"2-4\",\"4783\",\"37\",\"1\",\"Testing\",\"Stims/Figures/86-J-0-1.bmp\",\"vafa:va\",\"Left\",\"37\",\"2\",\"4\",\"9\",\"C1\",\"C\",\"28\"
\"\",\"\",\"approach-retreat\",\"177\",\"1221175\",\"0.0-177.0\",\"\",\"\",\"2-4\",\"4504\",\"37\",\"1\",\"Testing\",\"Stims/Figures/74-J-10-4.bmp\",\"pa:ka:ka\",\"Left\",\"37\",\"2\",\"5\",\"9\",\"P\",\"C\",\"29\"
\"\",\"\",\"approach-retreat\",\"178\",\"1227112\",\"0.0-178.0\",\"\",\"\",\"2-4\",\"4429\",\"37\",\"1\",\"Testing\",\"Stims/Figures/85-C-20-2.bmp\",\"sa:sa:za\",\"Right\",\"37\",\"2\",\"6\",\"9\",\"C2\",\"C\",\"30\"
\"\",\"\",\"approach-retreat\",\"179\",\"1233056\",\"0.0-179.0\",\"\",\"\",\"2-4\",\"4438\",\"39\",\"1\",\"Testing\",\"Stims/Figures/144-C-30-3.bmp\",\"za:saza\",\"Left\",\"39\",\"2\",\"7\",\"9\",\"C2\",\"C\",\"31\"
\"\",\"\",\"approach-retreat\",\"180\",\"1238902\",\"0.0-180.0\",\"\",\"\",\"2-4\",\"4340\",\"40\",\"1\",\"Testing\",\"Stims/Figures/128-C-30-3.bmp\",\"sa:ha:ha\",\"Up\",\"40\",\"2\",\"8\",\"9\",\"C2\",\"C\",\"32\"
\"\",\"\",\"approach-retreat\",\"181\",\"1244620\",\"0.0-181.0\",\"\",\"\",\"2-4\",\"4211\",\"38\",\"1\",\"Testing\",\"Stims/Figures/57-C-30-1.bmp\",\"tapa:ta\",\"Down\",\"38\",\"2\",\"9\",\"9\",\"P\",\"C\",\"33\"
\"\",\"\",\"approach-retreat\",\"182\",\"1250335\",\"0.0-182.0\",\"\",\"\",\"2-4\",\"4207\",\"40\",\"1\",\"Testing\",\"Stims/Figures/87-C-20-4.bmp\",\"nala:la\",\"Up\",\"40\",\"2\",\"10\",\"9\",\"S\",\"C\",\"34\"
\"\",\"\",\"approach-retreat\",\"183\",\"1256277\",\"0.0-183.0\",\"\",\"\",\"2-4\",\"4435\",\"39\",\"1\",\"Testing\",\"Stims/Figures/27-J-0-1.bmp\",\"mama:la\",\"Right\",\"39\",\"2\",\"11\",\"9\",\"S\",\"C\",\"35\"
\"\",\"\",\"approach-retreat\",\"184\",\"1262129\",\"0.0-184.0\",\"\",\"\",\"2-4\",\"4345\",\"39\",\"1\",\"Testing\",\"Stims/Figures/57-J-0-1.bmp\",\"ma:la:na\",\"Right\",\"39\",\"2\",\"12\",\"9\",\"S\",\"C\",\"36\"
\"\",\"\",\"approach-retreat\",\"185\",\"1267980\",\"0.0-185.0\",\"\",\"\",\"2-4\",\"4344\",\"37\",\"1\",\"Testing\",\"Stims/Figures/94-J-0-2.bmp\",\"fa:sha:va\",\"Left\",\"37\",\"2\",\"13\",\"9\",\"C1\",\"C\",\"37\"
\"\",\"\",\"approach-retreat\",\"186\",\"1273621\",\"0.0-186.0\",\"\",\"\",\"2-4\",\"4135\",\"40\",\"1\",\"Testing\",\"Stims/Figures/44-C-30-3.bmp\",\"sasa:ha\",\"Up\",\"40\",\"2\",\"14\",\"9\",\"C2\",\"C\",\"38\"
\"\",\"\",\"approach-retreat\",\"187\",\"1279367\",\"0.0-187.0\",\"\",\"\",\"2-4\",\"4239\",\"38\",\"1\",\"Testing\",\"Stims/Figures/27-C-30-1.bmp\",\"fa:sha:sha\",\"Down\",\"38\",\"2\",\"15\",\"9\",\"C1\",\"C\",\"39\"
\"\",\"\",\"approach-retreat\",\"188\",\"1286665\",\"0.0-188.0\",\"\",\"\",\"2-4\",\"5790\",\"38\",\"0\",\"Testing\",\"Stims/Figures/87-J-10-4.bmp\",\"na:la:la\",\"Down\",\"40\",\"2\",\"16\",\"9\",\"S\",\"C\",\"40\"
\"\",\"\",\"approach-retreat\",\"189\",\"1292630\",\"0.0-189.0\",\"\",\"\",\"2-4\",\"4458\",\"38\",\"1\",\"Testing\",\"Stims/Figures/7-J-10-4.bmp\",\"sasaha\",\"Up\",\"38\",\"2\",\"17\",\"9\",\"C2\",\"C\",\"41\"
\"\",\"\",\"approach-retreat\",\"190\",\"1298518\",\"0.0-190.0\",\"\",\"\",\"2-4\",\"4377\",\"38\",\"1\",\"Testing\",\"Stims/Figures/74-C-20-4.bmp\",\"za:saha\",\"Down\",\"38\",\"2\",\"18\",\"9\",\"C2\",\"C\",\"42\"
\"\",\"\",\"approach-retreat\",\"191\",\"1304443\",\"0.0-191.0\",\"\",\"\",\"2-4\",\"4419\",\"37\",\"1\",\"Testing\",\"Stims/Figures/44-J-10-3.bmp\",\"fa:shava\",\"Left\",\"37\",\"2\",\"19\",\"9\",\"C1\",\"C\",\"43\"
\"\",\"\",\"approach-retreat\",\"192\",\"1310279\",\"0.0-192.0\",\"\",\"\",\"2-4\",\"4329\",\"37\",\"1\",\"Testing\",\"Stims/Figures/94-C-20-2.bmp\",\"na:ma:na\",\"Right\",\"37\",\"2\",\"20\",\"9\",\"S\",\"C\",\"44\"
\"\",\"\",\"approach-retreat\",\"193\",\"1315941\",\"0.0-193.0\",\"\",\"\",\"2-4\",\"4155\",\"38\",\"1\",\"Testing\",\"Stims/Figures/86-C-30-1.bmp\",\"saha:ha\",\"Down\",\"38\",\"2\",\"21\",\"9\",\"C2\",\"C\",\"45\"
\"\",\"\",\"approach-retreat\",\"194\",\"1321831\",\"0.0-194.0\",\"\",\"\",\"2-4\",\"4383\",\"39\",\"1\",\"Testing\",\"Stims/Figures/128-J-10-3.bmp\",\"na:mana\",\"Right\",\"39\",\"2\",\"22\",\"9\",\"S\",\"C\",\"46\"
\"\",\"\",\"approach-retreat\",\"195\",\"1329700\",\"0.0-195.0\",\"\",\"\",\"2-4\",\"6362\",\"40\",\"1\",\"Testing\",\"Stims/Figures/7-C-20-4.bmp\",\"ta:pa:ta\",\"Up\",\"40\",\"2\",\"23\",\"9\",\"P\",\"C\",\"47\"
\"\",\"\",\"approach-retreat\",\"196\",\"1335678\",\"0.0-196.0\",\"\",\"\",\"2-4\",\"4470\",\"37\",\"1\",\"Testing\",\"Stims/Figures/85-J-0-2.bmp\",\"ta:ka:ka\",\"Left\",\"37\",\"2\",\"24\",\"9\",\"P\",\"C\",\"48\"
\"\",\"\",\"approach-retreat\",\"197\",\"1341998\",\"0.0-197.0\",\"\",\"\",\"2-4\",\"4812\",\"40\",\"1\",\"Testing\",\"Stims/Figures/57-J-0-1.bmp\",\"ma:la:na\",\"Down\",\"40\",\"3\",\"1\",\"9\",\"S\",\"C\",\"49\"
\"\",\"\",\"approach-retreat\",\"198\",\"1348463\",\"0.0-198.0\",\"\",\"\",\"2-4\",\"4957\",\"38\",\"1\",\"Testing\",\"Stims/Figures/7-C-20-4.bmp\",\"ta:pa:ta\",\"Down\",\"38\",\"3\",\"2\",\"9\",\"P\",\"C\",\"50\"
\"\",\"\",\"approach-retreat\",\"199\",\"1354330\",\"0.0-199.0\",\"\",\"\",\"2-4\",\"4361\",\"37\",\"1\",\"Testing\",\"Stims/Figures/144-J-10-3.bmp\",\"fashasha\",\"Left\",\"37\",\"3\",\"3\",\"9\",\"C1\",\"C\",\"51\"
\"\",\"\",\"approach-retreat\",\"200\",\"1360011\",\"0.0-200.0\",\"\",\"\",\"2-4\",\"4175\",\"37\",\"1\",\"Testing\",\"Stims/Figures/27-C-30-1.bmp\",\"fa:sha:sha\",\"Right\",\"37\",\"3\",\"4\",\"9\",\"C1\",\"C\",\"52\"
\"\",\"\",\"approach-retreat\",\"201\",\"1365698\",\"0.0-201.0\",\"\",\"\",\"2-4\",\"4180\",\"39\",\"1\",\"Testing\",\"Stims/Figures/128-C-30-3.bmp\",\"sa:ha:ha\",\"Left\",\"39\",\"3\",\"5\",\"9\",\"C2\",\"C\",\"53\"
\"\",\"\",\"approach-retreat\",\"202\",\"1371738\",\"0.0-202.0\",\"\",\"\",\"2-4\",\"4534\",\"38\",\"1\",\"Testing\",\"Stims/Figures/85-J-0-2.bmp\",\"ta:ka:ka\",\"Up\",\"38\",\"3\",\"6\",\"9\",\"P\",\"C\",\"54\"
\"\",\"\",\"approach-retreat\",\"203\",\"1377607\",\"0.0-203.0\",\"\",\"\",\"2-4\",\"4362\",\"39\",\"1\",\"Testing\",\"Stims/Figures/27-J-0-1.bmp\",\"mama:la\",\"Right\",\"39\",\"3\",\"7\",\"9\",\"S\",\"C\",\"55\"
\"\",\"\",\"approach-retreat\",\"204\",\"1383288\",\"0.0-204.0\",\"\",\"\",\"2-4\",\"4172\",\"40\",\"1\",\"Testing\",\"Stims/Figures/86-C-30-1.bmp\",\"saha:ha\",\"Up\",\"40\",\"3\",\"8\",\"9\",\"C2\",\"C\",\"56\"
\"\",\"\",\"approach-retreat\",\"205\",\"1388915\",\"0.0-205.0\",\"\",\"\",\"2-4\",\"4120\",\"39\",\"1\",\"Testing\",\"Stims/Figures/94-C-20-2.bmp\",\"na:ma:na\",\"Left\",\"39\",\"3\",\"9\",\"9\",\"S\",\"C\",\"57\"
\"\",\"\",\"approach-retreat\",\"206\",\"1394528\",\"0.0-206.0\",\"\",\"\",\"2-4\",\"4105\",\"39\",\"1\",\"Testing\",\"Stims/Figures/57-C-30-1.bmp\",\"tapa:ta\",\"Left\",\"39\",\"3\",\"10\",\"9\",\"P\",\"C\",\"58\"
\"\",\"\",\"approach-retreat\",\"207\",\"1400393\",\"0.0-207.0\",\"\",\"\",\"2-4\",\"4359\",\"40\",\"1\",\"Testing\",\"Stims/Figures/87-C-20-4.bmp\",\"nala:la\",\"Up\",\"40\",\"3\",\"11\",\"9\",\"S\",\"C\",\"59\"
\"\",\"\",\"approach-retreat\",\"208\",\"1406115\",\"0.0-208.0\",\"\",\"\",\"2-4\",\"4213\",\"37\",\"1\",\"Testing\",\"Stims/Figures/7-J-10-4.bmp\",\"sasaha\",\"Left\",\"37\",\"3\",\"12\",\"9\",\"C2\",\"C\",\"60\"
\"\",\"\",\"approach-retreat\",\"209\",\"1411815\",\"0.0-209.0\",\"\",\"\",\"2-4\",\"4195\",\"39\",\"0\",\"Testing\",\"Stims/Figures/44-C-30-3.bmp\",\"sasa:ha\",\"Right\",\"37\",\"3\",\"13\",\"9\",\"C2\",\"C\",\"61\"
\"\",\"\",\"approach-retreat\",\"210\",\"1417533\",\"0.0-210.0\",\"\",\"\",\"2-4\",\"4211\",\"40\",\"0\",\"Testing\",\"Stims/Figures/87-J-10-4.bmp\",\"na:la:la\",\"Up\",\"38\",\"3\",\"14\",\"9\",\"S\",\"C\",\"62\"
\"\",\"\",\"approach-retreat\",\"211\",\"1423434\",\"0.0-211.0\",\"\",\"\",\"2-4\",\"4394\",\"39\",\"0\",\"Testing\",\"Stims/Figures/139-C-20-2.bmp\",\"na:lana\",\"Right\",\"37\",\"3\",\"15\",\"9\",\"S\",\"C\",\"63\"
\"\",\"\",\"approach-retreat\",\"212\",\"1429708\",\"0.0-212.0\",\"\",\"\",\"2-4\",\"4767\",\"40\",\"1\",\"Testing\",\"Stims/Figures/86-J-0-1.bmp\",\"vafa:va\",\"Down\",\"40\",\"3\",\"16\",\"9\",\"C1\",\"C\",\"64\"
\"\",\"\",\"approach-retreat\",\"213\",\"1436763\",\"0.0-213.0\",\"\",\"\",\"2-4\",\"5549\",\"38\",\"1\",\"Testing\",\"Stims/Figures/85-C-20-2.bmp\",\"sa:sa:za\",\"Down\",\"38\",\"3\",\"17\",\"9\",\"C2\",\"C\",\"65\"
\"\",\"\",\"approach-retreat\",\"214\",\"1442558\",\"0.0-214.0\",\"\",\"\",\"2-4\",\"4289\",\"40\",\"1\",\"Testing\",\"Stims/Figures/144-C-30-3.bmp\",\"za:saza\",\"Up\",\"40\",\"3\",\"18\",\"9\",\"C2\",\"C\",\"66\"
\"\",\"\",\"approach-retreat\",\"215\",\"1449123\",\"0.0-215.0\",\"\",\"\",\"2-4\",\"5058\",\"40\",\"1\",\"Testing\",\"Stims/Figures/139-J-0-2.bmp\",\"pa:pa:ka\",\"Down\",\"40\",\"3\",\"19\",\"9\",\"P\",\"C\",\"67\"
\"\",\"\",\"approach-retreat\",\"216\",\"1455318\",\"0.0-216.0\",\"\",\"\",\"2-4\",\"4689\",\"40\",\"1\",\"Testing\",\"Stims/Figures/44-J-10-3.bmp\",\"fa:shava\",\"Down\",\"40\",\"3\",\"20\",\"9\",\"C1\",\"C\",\"68\"
\"\",\"\",\"approach-retreat\",\"217\",\"1461146\",\"0.0-217.0\",\"\",\"\",\"2-4\",\"4321\",\"37\",\"1\",\"Testing\",\"Stims/Figures/74-J-10-4.bmp\",\"pa:ka:ka\",\"Left\",\"37\",\"3\",\"21\",\"9\",\"P\",\"C\",\"69\"
\"\",\"\",\"approach-retreat\",\"218\",\"1467724\",\"0.0-218.0\",\"\",\"\",\"2-4\",\"5072\",\"39\",\"1\",\"Testing\",\"Stims/Figures/128-J-10-3.bmp\",\"na:mana\",\"Right\",\"39\",\"3\",\"22\",\"9\",\"S\",\"C\",\"70\"
\"\",\"\",\"approach-retreat\",\"219\",\"1473456\",\"0.0-219.0\",\"\",\"\",\"2-4\",\"4225\",\"38\",\"1\",\"Testing\",\"Stims/Figures/94-J-0-2.bmp\",\"fa:sha:va\",\"Up\",\"38\",\"3\",\"23\",\"9\",\"C1\",\"C\",\"71\"
\"\",\"\",\"approach-retreat\",\"220\",\"1481754\",\"0.0-220.0\",\"\",\"\",\"2-4\",\"6792\",\"37\",\"1\",\"Testing\",\"Stims/Figures/74-C-20-4.bmp\",\"za:saha\",\"Right\",\"37\",\"3\",\"24\",\"9\",\"C2\",\"C\",\"72\"
\"\",\"\",\"approach-retreat\",\"221\",\"1487349\",\"0.0-221.0\",\"\",\"\",\"2-4\",\"4089\",\"37\",\"1\",\"Testing\",\"Stims/Figures/86-C-30-1.bmp\",\"saha:ha\",\"Right\",\"37\",\"4\",\"1\",\"9\",\"C2\",\"C\",\"73\"
\"\",\"\",\"approach-retreat\",\"222\",\"1492958\",\"0.0-222.0\",\"\",\"\",\"2-4\",\"4098\",\"38\",\"0\",\"Testing\",\"Stims/Figures/87-J-10-4.bmp\",\"na:la:la\",\"Down\",\"40\",\"4\",\"2\",\"9\",\"S\",\"C\",\"74\"
\"\",\"\",\"approach-retreat\",\"223\",\"1498605\",\"0.0-223.0\",\"\",\"\",\"2-4\",\"4140\",\"40\",\"0\",\"Testing\",\"Stims/Figures/27-J-0-1.bmp\",\"mama:la\",\"Up\",\"38\",\"4\",\"3\",\"9\",\"S\",\"C\",\"75\"
\"\",\"\",\"approach-retreat\",\"224\",\"1504816\",\"0.0-224.0\",\"\",\"\",\"2-4\",\"4702\",\"39\",\"1\",\"Testing\",\"Stims/Figures/144-J-10-3.bmp\",\"fashasha\",\"Right\",\"39\",\"4\",\"4\",\"9\",\"C1\",\"C\",\"76\"
\"\",\"\",\"approach-retreat\",\"225\",\"1510786\",\"0.0-225.0\",\"\",\"\",\"2-4\",\"4465\",\"39\",\"1\",\"Testing\",\"Stims/Figures/74-C-20-4.bmp\",\"za:saha\",\"Left\",\"39\",\"4\",\"5\",\"9\",\"C2\",\"C\",\"77\"
\"\",\"\",\"approach-retreat\",\"226\",\"1517071\",\"0.0-226.0\",\"\",\"\",\"2-4\",\"4778\",\"38\",\"1\",\"Testing\",\"Stims/Figures/74-J-10-4.bmp\",\"pa:ka:ka\",\"Up\",\"38\",\"4\",\"6\",\"9\",\"P\",\"C\",\"78\"
\"\",\"\",\"approach-retreat\",\"227\",\"1524900\",\"0.0-227.0\",\"\",\"\",\"2-4\",\"6322\",\"38\",\"1\",\"Testing\",\"Stims/Figures/7-C-20-4.bmp\",\"ta:pa:ta\",\"Down\",\"38\",\"4\",\"7\",\"9\",\"P\",\"C\",\"79\"
\"\",\"\",\"approach-retreat\",\"228\",\"1530689\",\"0.0-228.0\",\"\",\"\",\"2-4\",\"4283\",\"40\",\"1\",\"Testing\",\"Stims/Figures/85-J-0-2.bmp\",\"ta:ka:ka\",\"Down\",\"40\",\"4\",\"8\",\"9\",\"P\",\"C\",\"80\"
\"\",\"\",\"approach-retreat\",\"229\",\"1536546\",\"0.0-229.0\",\"\",\"\",\"2-4\",\"4350\",\"37\",\"1\",\"Testing\",\"Stims/Figures/94-C-20-2.bmp\",\"na:ma:na\",\"Right\",\"37\",\"4\",\"9\",\"9\",\"S\",\"C\",\"81\"
\"\",\"\",\"approach-retreat\",\"230\",\"1542894\",\"0.0-230.0\",\"\",\"\",\"2-4\",\"4841\",\"38\",\"1\",\"Testing\",\"Stims/Figures/139-J-0-2.bmp\",\"pa:pa:ka\",\"Up\",\"38\",\"4\",\"10\",\"9\",\"P\",\"C\",\"82\"
\"\",\"\",\"approach-retreat\",\"231\",\"1549162\",\"0.0-231.0\",\"\",\"\",\"2-4\",\"4761\",\"39\",\"0\",\"Testing\",\"Stims/Figures/85-C-20-2.bmp\",\"sa:sa:za\",\"Right\",\"37\",\"4\",\"11\",\"9\",\"C2\",\"C\",\"83\"
\"\",\"\",\"approach-retreat\",\"232\",\"1555898\",\"0.0-232.0\",\"\",\"\",\"2-4\",\"5229\",\"38\",\"1\",\"Testing\",\"Stims/Figures/139-C-20-2.bmp\",\"na:lana\",\"Down\",\"38\",\"4\",\"12\",\"9\",\"S\",\"C\",\"84\"
\"\",\"\",\"approach-retreat\",\"233\",\"1561684\",\"0.0-233.0\",\"\",\"\",\"2-4\",\"4276\",\"37\",\"1\",\"Testing\",\"Stims/Figures/144-C-30-3.bmp\",\"za:saza\",\"Right\",\"37\",\"4\",\"13\",\"9\",\"C2\",\"C\",\"85\"
\"\",\"\",\"approach-retreat\",\"234\",\"1567716\",\"0.0-234.0\",\"\",\"\",\"2-4\",\"4525\",\"40\",\"1\",\"Testing\",\"Stims/Figures/44-J-10-3.bmp\",\"fa:shava\",\"Down\",\"40\",\"4\",\"14\",\"9\",\"C1\",\"C\",\"86\"
\"\",\"\",\"approach-retreat\",\"235\",\"1573639\",\"0.0-235.0\",\"\",\"\",\"2-4\",\"4416\",\"38\",\"1\",\"Testing\",\"Stims/Figures/94-J-0-2.bmp\",\"fa:sha:va\",\"Up\",\"38\",\"4\",\"15\",\"9\",\"C1\",\"C\",\"87\"
\"\",\"\",\"approach-retreat\",\"236\",\"1579387\",\"0.0-236.0\",\"\",\"\",\"2-4\",\"4241\",\"38\",\"1\",\"Testing\",\"Stims/Figures/87-C-20-4.bmp\",\"nala:la\",\"Down\",\"38\",\"4\",\"16\",\"9\",\"S\",\"C\",\"88\"
\"\",\"\",\"approach-retreat\",\"237\",\"1585093\",\"0.0-237.0\",\"\",\"\",\"2-4\",\"4199\",\"39\",\"1\",\"Testing\",\"Stims/Figures/57-C-30-1.bmp\",\"tapa:ta\",\"Left\",\"39\",\"4\",\"17\",\"9\",\"P\",\"C\",\"89\"
\"\",\"\",\"approach-retreat\",\"238\",\"1591031\",\"0.0-238.0\",\"\",\"\",\"2-4\",\"4430\",\"37\",\"1\",\"Testing\",\"Stims/Figures/128-J-10-3.bmp\",\"na:mana\",\"Left\",\"37\",\"4\",\"18\",\"9\",\"S\",\"C\",\"90\"
\"\",\"\",\"approach-retreat\",\"239\",\"1597567\",\"0.0-239.0\",\"\",\"\",\"2-4\",\"5029\",\"38\",\"1\",\"Testing\",\"Stims/Figures/57-J-0-1.bmp\",\"ma:la:na\",\"Up\",\"38\",\"4\",\"19\",\"9\",\"S\",\"C\",\"91\"
\"\",\"\",\"approach-retreat\",\"240\",\"1603173\",\"0.0-240.0\",\"\",\"\",\"2-4\",\"4097\",\"39\",\"0\",\"Testing\",\"Stims/Figures/27-C-30-1.bmp\",\"fa:sha:sha\",\"Right\",\"37\",\"4\",\"20\",\"9\",\"C1\",\"C\",\"92\"
\"\",\"\",\"approach-retreat\",\"241\",\"1609229\",\"0.0-241.0\",\"\",\"\",\"2-4\",\"4550\",\"40\",\"1\",\"Testing\",\"Stims/Figures/44-C-30-3.bmp\",\"sasa:ha\",\"Up\",\"40\",\"4\",\"21\",\"9\",\"C2\",\"C\",\"93\"
\"\",\"\",\"approach-retreat\",\"242\",\"1615977\",\"0.0-242.0\",\"\",\"\",\"2-4\",\"5241\",\"37\",\"1\",\"Testing\",\"Stims/Figures/86-J-0-1.bmp\",\"vafa:va\",\"Left\",\"37\",\"4\",\"22\",\"9\",\"C1\",\"C\",\"94\"
\"\",\"\",\"approach-retreat\",\"243\",\"1623099\",\"0.0-243.0\",\"\",\"\",\"2-4\",\"5615\",\"37\",\"0\",\"Testing\",\"Stims/Figures/128-C-30-3.bmp\",\"sa:ha:ha\",\"Left\",\"39\",\"4\",\"23\",\"9\",\"C2\",\"C\",\"95\"
\"\",\"\",\"approach-retreat\",\"244\",\"1628795\",\"0.0-244.0\",\"\",\"\",\"2-4\",\"4190\",\"37\",\"1\",\"Testing\",\"Stims/Figures/7-J-10-4.bmp\",\"sasaha\",\"Left\",\"37\",\"4\",\"24\",\"9\",\"C2\",\"C\",\"96\"
\"37840\",\"\",\"survey-text\",\"245\",\"1666643\",\"0.0-245.0\",\"\",\"{\"\"Q0\"\":\"\"PS160024\"\"}\",\"\",\"\",\"\",\"\",\"\",\"\",\"\",\"\",\"\",\"\",\"\",\"\",\"\",\"\",\"\"
