\"rt\",\"key_press\",\"trial_type\",\"trial_index\",\"time_elapsed\",\"internal_node_id\",\"view_history\",\"responses\",\"Id\",\"Rt\",\"ResKeyCode\",\"ResCorr\",\"TrialType2\",\"Image\",\"Label\",\"Location\",\"CorrectResponse\",\"Block\",\"BlockTrial\",\"Condition\",\"LabelType\",\"Subcondition\",\"trialNum\"
\"42450\",\"32\",\"text\",\"0\",\"42455\",\"0.0-0.0-0.0\",\"\",\"\",\"\",\"\",\"\",\"\",\"\",\"\",\"\",\"\",\"\",\"\",\"\",\"\",\"\",\"\",\"\"
\"85282\",\"\",\"instructions\",\"1\",\"127738\",\"0.0-1.0\",\"[{\"\"page_index\"\":0,\"\"viewing_time\"\":85281}]\",\"\",\"\",\"\",\"\",\"\",\"\",\"\",\"\",\"\",\"\",\"\",\"\",\"\",\"\",\"\",\"\"
\"19251\",\"\",\"survey-multi-choice\",\"2\",\"147018\",\"0.0-2.0\",\"\",\"{\"\"Q0\"\":\"\"Da\"\",\"\"Q1\"\":\"\"Da\"\",\"\"Q2\"\":\"\"Da\"\",\"\"Q3\"\":\"\"Da\"\",\"\"Q4\"\":\"\"Da\"\",\"\"Q5\"\":\"\"Da\"\"}\",\"\",\"\",\"\",\"\",\"\",\"\",\"\",\"\",\"\",\"\",\"\",\"\",\"\",\"\",\"\"
\"\",\"\",\"bio\",\"3\",\"154763\",\"0.0-3.0\",\"\",\"{\"\"age\"\":\"\"20\"\",\"\"gender\"\":\"\"f\"\",\"\"specify\"\":\"\"\"\"}\",\"\",\"\",\"\",\"\",\"\",\"\",\"\",\"\",\"\",\"\",\"\",\"\",\"\",\"\",\"\"
\"\",\"\",\"approach-retreat\",\"4\",\"168447\",\"0.0-4.0\",\"\",\"\",\"1-2\",\"12177\",\"39\",\"0\",\"Training\",\"Stims/Figures/94-J-0-2.bmp\",\"ta:paka\",\"Right\",\"37\",\"1\",\"1\",\"1\",\"P\",\"J\",\"1\"
\"\",\"\",\"approach-retreat\",\"5\",\"177729\",\"0.0-5.0\",\"\",\"\",\"1-2\",\"7775\",\"38\",\"0\",\"Training\",\"Stims/Figures/7-J-10-4.bmp\",\"ta:paka\",\"Up\",\"40\",\"1\",\"2\",\"1\",\"P\",\"J\",\"2\"
\"\",\"\",\"approach-retreat\",\"6\",\"184216\",\"0.0-6.0\",\"\",\"\",\"1-2\",\"4981\",\"38\",\"0\",\"Training\",\"Stims/Figures/118-C-20-2.bmp\",\"na:la:la\",\"Down\",\"40\",\"1\",\"3\",\"1\",\"S\",\"J\",\"3\"
\"\",\"\",\"approach-retreat\",\"7\",\"193262\",\"0.0-7.0\",\"\",\"\",\"1-2\",\"7540\",\"39\",\"1\",\"Training\",\"Stims/Figures/71-J-0-1.bmp\",\"ta:paka\",\"Left\",\"39\",\"1\",\"4\",\"1\",\"P\",\"J\",\"4\"
\"\",\"\",\"approach-retreat\",\"8\",\"200812\",\"0.0-8.0\",\"\",\"\",\"1-2\",\"6044\",\"37\",\"1\",\"Training\",\"Stims/Figures/144-C-30-3.bmp\",\"na:la:la\",\"Left\",\"37\",\"1\",\"5\",\"1\",\"S\",\"J\",\"5\"
\"\",\"\",\"approach-retreat\",\"9\",\"206888\",\"0.0-9.0\",\"\",\"\",\"1-2\",\"4571\",\"40\",\"1\",\"Training\",\"Stims/Figures/111-J-10-3.bmp\",\"ta:paka\",\"Up\",\"40\",\"1\",\"6\",\"1\",\"P\",\"J\",\"6\"
\"\",\"\",\"approach-retreat\",\"10\",\"215964\",\"0.0-10.0\",\"\",\"\",\"1-2\",\"7570\",\"39\",\"1\",\"Training\",\"Stims/Figures/94-C-20-2.bmp\",\"na:la:la\",\"Right\",\"39\",\"1\",\"7\",\"1\",\"S\",\"J\",\"7\"
\"\",\"\",\"approach-retreat\",\"11\",\"221254\",\"0.0-11.0\",\"\",\"\",\"1-2\",\"3784\",\"40\",\"1\",\"Training\",\"Stims/Figures/93-J-0-1.bmp\",\"ta:paka\",\"Up\",\"40\",\"1\",\"8\",\"1\",\"P\",\"J\",\"8\"
\"\",\"\",\"approach-retreat\",\"12\",\"226681\",\"0.0-12.0\",\"\",\"\",\"1-2\",\"3919\",\"38\",\"0\",\"Training\",\"Stims/Figures/7-C-20-4.bmp\",\"na:la:la\",\"Down\",\"40\",\"1\",\"9\",\"1\",\"S\",\"J\",\"9\"
\"\",\"\",\"approach-retreat\",\"13\",\"233102\",\"0.0-13.0\",\"\",\"\",\"1-2\",\"4916\",\"39\",\"1\",\"Training\",\"Stims/Figures/71-C-30-1.bmp\",\"na:la:la\",\"Right\",\"39\",\"1\",\"10\",\"1\",\"S\",\"J\",\"10\"
\"\",\"\",\"approach-retreat\",\"14\",\"240280\",\"0.0-14.0\",\"\",\"\",\"1-2\",\"5672\",\"38\",\"1\",\"Training\",\"Stims/Figures/111-C-30-3.bmp\",\"na:la:la\",\"Up\",\"38\",\"1\",\"11\",\"1\",\"S\",\"J\",\"11\"
\"\",\"\",\"approach-retreat\",\"15\",\"246400\",\"0.0-15.0\",\"\",\"\",\"1-2\",\"4614\",\"39\",\"1\",\"Training\",\"Stims/Figures/74-J-10-4.bmp\",\"ta:paka\",\"Left\",\"39\",\"1\",\"12\",\"1\",\"P\",\"J\",\"12\"
\"\",\"\",\"approach-retreat\",\"16\",\"252061\",\"0.0-16.0\",\"\",\"\",\"1-2\",\"4155\",\"39\",\"1\",\"Training\",\"Stims/Figures/144-J-10-3.bmp\",\"ta:paka\",\"Left\",\"39\",\"1\",\"13\",\"1\",\"P\",\"J\",\"13\"
\"\",\"\",\"approach-retreat\",\"17\",\"258552\",\"0.0-17.0\",\"\",\"\",\"1-2\",\"4986\",\"40\",\"1\",\"Training\",\"Stims/Figures/93-C-30-1.bmp\",\"na:la:la\",\"Down\",\"40\",\"1\",\"14\",\"1\",\"S\",\"J\",\"14\"
\"\",\"\",\"approach-retreat\",\"18\",\"264893\",\"0.0-18.0\",\"\",\"\",\"1-2\",\"4836\",\"37\",\"1\",\"Training\",\"Stims/Figures/118-J-0-2.bmp\",\"ta:paka\",\"Right\",\"37\",\"1\",\"15\",\"1\",\"P\",\"J\",\"15\"
\"\",\"\",\"approach-retreat\",\"19\",\"270959\",\"0.0-19.0\",\"\",\"\",\"1-2\",\"4561\",\"40\",\"1\",\"Training\",\"Stims/Figures/74-C-20-4.bmp\",\"na:la:la\",\"Down\",\"40\",\"1\",\"16\",\"1\",\"S\",\"J\",\"16\"
\"\",\"\",\"approach-retreat\",\"20\",\"277591\",\"0.0-20.0\",\"\",\"\",\"1-2\",\"5125\",\"40\",\"1\",\"Training\",\"Stims/Figures/111-J-10-3.bmp\",\"ta:paka\",\"Up\",\"40\",\"2\",\"1\",\"1\",\"P\",\"J\",\"17\"
\"\",\"\",\"approach-retreat\",\"21\",\"283658\",\"0.0-21.0\",\"\",\"\",\"1-2\",\"4560\",\"39\",\"1\",\"Training\",\"Stims/Figures/118-J-0-2.bmp\",\"ta:paka\",\"Left\",\"39\",\"2\",\"2\",\"1\",\"P\",\"J\",\"18\"
\"\",\"\",\"approach-retreat\",\"22\",\"289697\",\"0.0-22.0\",\"\",\"\",\"1-2\",\"4534\",\"39\",\"1\",\"Training\",\"Stims/Figures/118-C-20-2.bmp\",\"na:la:la\",\"Right\",\"39\",\"2\",\"3\",\"1\",\"S\",\"J\",\"19\"
\"\",\"\",\"approach-retreat\",\"23\",\"296218\",\"0.0-23.0\",\"\",\"\",\"1-2\",\"5016\",\"39\",\"1\",\"Training\",\"Stims/Figures/93-C-30-1.bmp\",\"na:la:la\",\"Right\",\"39\",\"2\",\"4\",\"1\",\"S\",\"J\",\"20\"
\"\",\"\",\"approach-retreat\",\"24\",\"302667\",\"0.0-24.0\",\"\",\"\",\"1-2\",\"4943\",\"37\",\"1\",\"Training\",\"Stims/Figures/74-J-10-4.bmp\",\"ta:paka\",\"Right\",\"37\",\"2\",\"5\",\"1\",\"P\",\"J\",\"21\"
\"\",\"\",\"approach-retreat\",\"25\",\"308599\",\"0.0-25.0\",\"\",\"\",\"1-2\",\"4426\",\"40\",\"1\",\"Training\",\"Stims/Figures/94-C-20-2.bmp\",\"na:la:la\",\"Down\",\"40\",\"2\",\"6\",\"1\",\"S\",\"J\",\"22\"
\"\",\"\",\"approach-retreat\",\"26\",\"314977\",\"0.0-26.0\",\"\",\"\",\"1-2\",\"4871\",\"38\",\"1\",\"Training\",\"Stims/Figures/74-C-20-4.bmp\",\"na:la:la\",\"Up\",\"38\",\"2\",\"7\",\"1\",\"S\",\"J\",\"23\"
\"\",\"\",\"approach-retreat\",\"27\",\"320675\",\"0.0-27.0\",\"\",\"\",\"1-2\",\"4193\",\"39\",\"1\",\"Training\",\"Stims/Figures/71-C-30-1.bmp\",\"na:la:la\",\"Right\",\"39\",\"2\",\"8\",\"1\",\"S\",\"J\",\"24\"
\"\",\"\",\"approach-retreat\",\"28\",\"326508\",\"0.0-28.0\",\"\",\"\",\"1-2\",\"4328\",\"38\",\"1\",\"Training\",\"Stims/Figures/7-J-10-4.bmp\",\"ta:paka\",\"Down\",\"38\",\"2\",\"9\",\"1\",\"P\",\"J\",\"25\"
\"\",\"\",\"approach-retreat\",\"29\",\"332269\",\"0.0-29.0\",\"\",\"\",\"1-2\",\"4256\",\"39\",\"1\",\"Training\",\"Stims/Figures/94-J-0-2.bmp\",\"ta:paka\",\"Left\",\"39\",\"2\",\"10\",\"1\",\"P\",\"J\",\"26\"
\"\",\"\",\"approach-retreat\",\"30\",\"337817\",\"0.0-30.0\",\"\",\"\",\"1-2\",\"4043\",\"39\",\"1\",\"Training\",\"Stims/Figures/71-J-0-1.bmp\",\"ta:paka\",\"Left\",\"39\",\"2\",\"11\",\"1\",\"P\",\"J\",\"27\"
\"\",\"\",\"approach-retreat\",\"31\",\"343545\",\"0.0-31.0\",\"\",\"\",\"1-2\",\"4224\",\"38\",\"1\",\"Training\",\"Stims/Figures/144-J-10-3.bmp\",\"ta:paka\",\"Down\",\"38\",\"2\",\"12\",\"1\",\"P\",\"J\",\"28\"
\"\",\"\",\"approach-retreat\",\"32\",\"349345\",\"0.0-32.0\",\"\",\"\",\"1-2\",\"4294\",\"37\",\"1\",\"Training\",\"Stims/Figures/144-C-30-3.bmp\",\"na:la:la\",\"Left\",\"37\",\"2\",\"13\",\"1\",\"S\",\"J\",\"29\"
\"\",\"\",\"approach-retreat\",\"33\",\"355193\",\"0.0-33.0\",\"\",\"\",\"1-2\",\"4342\",\"40\",\"1\",\"Training\",\"Stims/Figures/7-C-20-4.bmp\",\"na:la:la\",\"Down\",\"40\",\"2\",\"14\",\"1\",\"S\",\"J\",\"30\"
\"\",\"\",\"approach-retreat\",\"34\",\"361039\",\"0.0-34.0\",\"\",\"\",\"1-2\",\"4340\",\"38\",\"1\",\"Training\",\"Stims/Figures/111-C-30-3.bmp\",\"na:la:la\",\"Up\",\"38\",\"2\",\"15\",\"1\",\"S\",\"J\",\"31\"
\"\",\"\",\"approach-retreat\",\"35\",\"366745\",\"0.0-35.0\",\"\",\"\",\"1-2\",\"4199\",\"40\",\"1\",\"Training\",\"Stims/Figures/93-J-0-1.bmp\",\"ta:paka\",\"Up\",\"40\",\"2\",\"16\",\"1\",\"P\",\"J\",\"32\"
\"\",\"\",\"approach-retreat\",\"36\",\"372531\",\"0.0-36.0\",\"\",\"\",\"1-2\",\"4281\",\"38\",\"1\",\"Training\",\"Stims/Figures/93-C-30-1.bmp\",\"na:la:la\",\"Up\",\"38\",\"3\",\"1\",\"1\",\"S\",\"J\",\"33\"
\"\",\"\",\"approach-retreat\",\"37\",\"378219\",\"0.0-37.0\",\"\",\"\",\"1-2\",\"4183\",\"38\",\"1\",\"Training\",\"Stims/Figures/118-C-20-2.bmp\",\"na:la:la\",\"Up\",\"38\",\"3\",\"2\",\"1\",\"S\",\"J\",\"34\"
\"\",\"\",\"approach-retreat\",\"38\",\"383638\",\"0.0-38.0\",\"\",\"\",\"1-2\",\"3912\",\"40\",\"1\",\"Training\",\"Stims/Figures/94-J-0-2.bmp\",\"ta:paka\",\"Up\",\"40\",\"3\",\"3\",\"1\",\"P\",\"J\",\"35\"
\"\",\"\",\"approach-retreat\",\"39\",\"390721\",\"0.0-39.0\",\"\",\"\",\"1-2\",\"5577\",\"39\",\"1\",\"Training\",\"Stims/Figures/71-C-30-1.bmp\",\"na:la:la\",\"Right\",\"39\",\"3\",\"4\",\"1\",\"S\",\"J\",\"36\"
\"\",\"\",\"approach-retreat\",\"40\",\"397341\",\"0.0-40.0\",\"\",\"\",\"1-2\",\"5114\",\"37\",\"1\",\"Training\",\"Stims/Figures/7-C-20-4.bmp\",\"na:la:la\",\"Left\",\"37\",\"3\",\"5\",\"1\",\"S\",\"J\",\"37\"
\"\",\"\",\"approach-retreat\",\"41\",\"403315\",\"0.0-41.0\",\"\",\"\",\"1-2\",\"4469\",\"39\",\"1\",\"Training\",\"Stims/Figures/118-J-0-2.bmp\",\"ta:paka\",\"Left\",\"39\",\"3\",\"6\",\"1\",\"P\",\"J\",\"38\"
\"\",\"\",\"approach-retreat\",\"42\",\"409131\",\"0.0-42.0\",\"\",\"\",\"1-2\",\"4311\",\"38\",\"1\",\"Training\",\"Stims/Figures/7-J-10-4.bmp\",\"ta:paka\",\"Down\",\"38\",\"3\",\"7\",\"1\",\"P\",\"J\",\"39\"
\"\",\"\",\"approach-retreat\",\"43\",\"414843\",\"0.0-43.0\",\"\",\"\",\"1-2\",\"4207\",\"37\",\"1\",\"Training\",\"Stims/Figures/144-J-10-3.bmp\",\"ta:paka\",\"Right\",\"37\",\"3\",\"8\",\"1\",\"P\",\"J\",\"40\"
\"\",\"\",\"approach-retreat\",\"44\",\"420778\",\"0.0-44.0\",\"\",\"\",\"1-2\",\"4430\",\"40\",\"1\",\"Training\",\"Stims/Figures/94-C-20-2.bmp\",\"na:la:la\",\"Down\",\"40\",\"3\",\"9\",\"1\",\"S\",\"J\",\"41\"
\"\",\"\",\"approach-retreat\",\"45\",\"426536\",\"0.0-45.0\",\"\",\"\",\"1-2\",\"4252\",\"40\",\"1\",\"Training\",\"Stims/Figures/144-C-30-3.bmp\",\"na:la:la\",\"Down\",\"40\",\"3\",\"10\",\"1\",\"S\",\"J\",\"42\"
\"\",\"\",\"approach-retreat\",\"46\",\"432567\",\"0.0-46.0\",\"\",\"\",\"1-2\",\"4527\",\"39\",\"1\",\"Training\",\"Stims/Figures/74-J-10-4.bmp\",\"ta:paka\",\"Left\",\"39\",\"3\",\"11\",\"1\",\"P\",\"J\",\"43\"
\"\",\"\",\"approach-retreat\",\"47\",\"438455\",\"0.0-47.0\",\"\",\"\",\"1-2\",\"4383\",\"40\",\"1\",\"Training\",\"Stims/Figures/74-C-20-4.bmp\",\"na:la:la\",\"Down\",\"40\",\"3\",\"12\",\"1\",\"S\",\"J\",\"44\"
\"\",\"\",\"approach-retreat\",\"48\",\"444548\",\"0.0-48.0\",\"\",\"\",\"1-2\",\"4587\",\"37\",\"1\",\"Training\",\"Stims/Figures/71-J-0-1.bmp\",\"ta:paka\",\"Right\",\"37\",\"3\",\"13\",\"1\",\"P\",\"J\",\"45\"
\"\",\"\",\"approach-retreat\",\"49\",\"450215\",\"0.0-49.0\",\"\",\"\",\"1-2\",\"4162\",\"37\",\"1\",\"Training\",\"Stims/Figures/93-J-0-1.bmp\",\"ta:paka\",\"Right\",\"37\",\"3\",\"14\",\"1\",\"P\",\"J\",\"46\"
\"\",\"\",\"approach-retreat\",\"50\",\"455892\",\"0.0-50.0\",\"\",\"\",\"1-2\",\"4170\",\"40\",\"1\",\"Training\",\"Stims/Figures/111-J-10-3.bmp\",\"ta:paka\",\"Up\",\"40\",\"3\",\"15\",\"1\",\"P\",\"J\",\"47\"
\"\",\"\",\"approach-retreat\",\"51\",\"461567\",\"0.0-51.0\",\"\",\"\",\"1-2\",\"4169\",\"37\",\"1\",\"Training\",\"Stims/Figures/111-C-30-3.bmp\",\"na:la:la\",\"Left\",\"37\",\"3\",\"16\",\"1\",\"S\",\"J\",\"48\"
\"\",\"\",\"approach-retreat\",\"52\",\"467053\",\"0.0-52.0\",\"\",\"\",\"1-2\",\"3980\",\"40\",\"1\",\"Training\",\"Stims/Figures/71-J-0-1.bmp\",\"ta:paka\",\"Up\",\"40\",\"4\",\"1\",\"1\",\"P\",\"J\",\"49\"
\"\",\"\",\"approach-retreat\",\"53\",\"472804\",\"0.0-53.0\",\"\",\"\",\"1-2\",\"4245\",\"37\",\"1\",\"Training\",\"Stims/Figures/7-C-20-4.bmp\",\"na:la:la\",\"Left\",\"37\",\"4\",\"2\",\"1\",\"S\",\"J\",\"50\"
\"\",\"\",\"approach-retreat\",\"54\",\"479013\",\"0.0-54.0\",\"\",\"\",\"1-2\",\"4700\",\"40\",\"1\",\"Training\",\"Stims/Figures/111-C-30-3.bmp\",\"na:la:la\",\"Down\",\"40\",\"4\",\"3\",\"1\",\"S\",\"J\",\"51\"
\"\",\"\",\"approach-retreat\",\"55\",\"484741\",\"0.0-55.0\",\"\",\"\",\"1-2\",\"4222\",\"39\",\"1\",\"Training\",\"Stims/Figures/94-C-20-2.bmp\",\"na:la:la\",\"Right\",\"39\",\"4\",\"4\",\"1\",\"S\",\"J\",\"52\"
\"\",\"\",\"approach-retreat\",\"56\",\"490358\",\"0.0-56.0\",\"\",\"\",\"1-2\",\"4112\",\"40\",\"1\",\"Training\",\"Stims/Figures/111-J-10-3.bmp\",\"ta:paka\",\"Up\",\"40\",\"4\",\"5\",\"1\",\"P\",\"J\",\"53\"
\"\",\"\",\"approach-retreat\",\"57\",\"497079\",\"0.0-57.0\",\"\",\"\",\"1-2\",\"5216\",\"39\",\"1\",\"Training\",\"Stims/Figures/144-C-30-3.bmp\",\"na:la:la\",\"Right\",\"39\",\"4\",\"6\",\"1\",\"S\",\"J\",\"54\"
\"\",\"\",\"approach-retreat\",\"58\",\"502822\",\"0.0-58.0\",\"\",\"\",\"1-2\",\"4238\",\"40\",\"0\",\"Training\",\"Stims/Figures/93-J-0-1.bmp\",\"ta:paka\",\"Down\",\"38\",\"4\",\"7\",\"1\",\"P\",\"J\",\"55\"
\"\",\"\",\"approach-retreat\",\"59\",\"508658\",\"0.0-59.0\",\"\",\"\",\"1-2\",\"4331\",\"37\",\"1\",\"Training\",\"Stims/Figures/7-J-10-4.bmp\",\"ta:paka\",\"Right\",\"37\",\"4\",\"8\",\"1\",\"P\",\"J\",\"56\"
\"\",\"\",\"approach-retreat\",\"60\",\"514528\",\"0.0-60.0\",\"\",\"\",\"1-2\",\"4365\",\"38\",\"1\",\"Training\",\"Stims/Figures/93-C-30-1.bmp\",\"na:la:la\",\"Up\",\"38\",\"4\",\"9\",\"1\",\"S\",\"J\",\"57\"
\"\",\"\",\"approach-retreat\",\"61\",\"520992\",\"0.0-61.0\",\"\",\"\",\"1-2\",\"4959\",\"40\",\"1\",\"Training\",\"Stims/Figures/74-C-20-4.bmp\",\"na:la:la\",\"Down\",\"40\",\"4\",\"10\",\"1\",\"S\",\"J\",\"58\"
\"\",\"\",\"approach-retreat\",\"62\",\"526677\",\"0.0-62.0\",\"\",\"\",\"1-2\",\"4180\",\"40\",\"1\",\"Training\",\"Stims/Figures/118-J-0-2.bmp\",\"ta:paka\",\"Up\",\"40\",\"4\",\"11\",\"1\",\"P\",\"J\",\"59\"
\"\",\"\",\"approach-retreat\",\"63\",\"532339\",\"0.0-63.0\",\"\",\"\",\"1-2\",\"4157\",\"39\",\"1\",\"Training\",\"Stims/Figures/74-J-10-4.bmp\",\"ta:paka\",\"Left\",\"39\",\"4\",\"12\",\"1\",\"P\",\"J\",\"60\"
\"\",\"\",\"approach-retreat\",\"64\",\"538626\",\"0.0-64.0\",\"\",\"\",\"1-2\",\"4781\",\"37\",\"1\",\"Training\",\"Stims/Figures/118-C-20-2.bmp\",\"na:la:la\",\"Left\",\"37\",\"4\",\"13\",\"1\",\"S\",\"J\",\"61\"
\"\",\"\",\"approach-retreat\",\"65\",\"545115\",\"0.0-65.0\",\"\",\"\",\"1-2\",\"4984\",\"37\",\"1\",\"Training\",\"Stims/Figures/94-J-0-2.bmp\",\"ta:paka\",\"Right\",\"37\",\"4\",\"14\",\"1\",\"P\",\"J\",\"62\"
\"\",\"\",\"approach-retreat\",\"66\",\"550652\",\"0.0-66.0\",\"\",\"\",\"1-2\",\"4031\",\"39\",\"1\",\"Training\",\"Stims/Figures/144-J-10-3.bmp\",\"ta:paka\",\"Left\",\"39\",\"4\",\"15\",\"1\",\"P\",\"J\",\"63\"
\"\",\"\",\"approach-retreat\",\"67\",\"557065\",\"0.0-67.0\",\"\",\"\",\"1-2\",\"4908\",\"40\",\"1\",\"Training\",\"Stims/Figures/71-C-30-1.bmp\",\"na:la:la\",\"Down\",\"40\",\"4\",\"16\",\"1\",\"S\",\"J\",\"64\"
\"\",\"\",\"approach-retreat\",\"68\",\"563823\",\"0.0-68.0\",\"\",\"\",\"1-2\",\"5252\",\"39\",\"1\",\"Training\",\"Stims/Figures/74-J-10-4.bmp\",\"ta:paka\",\"Left\",\"39\",\"5\",\"1\",\"1\",\"P\",\"J\",\"65\"
\"\",\"\",\"approach-retreat\",\"69\",\"569968\",\"0.0-69.0\",\"\",\"\",\"1-2\",\"4641\",\"40\",\"1\",\"Training\",\"Stims/Figures/71-C-30-1.bmp\",\"na:la:la\",\"Down\",\"40\",\"5\",\"2\",\"1\",\"S\",\"J\",\"66\"
\"\",\"\",\"approach-retreat\",\"70\",\"576426\",\"0.0-70.0\",\"\",\"\",\"1-2\",\"4951\",\"37\",\"1\",\"Training\",\"Stims/Figures/111-J-10-3.bmp\",\"ta:paka\",\"Right\",\"37\",\"5\",\"3\",\"1\",\"P\",\"J\",\"67\"
\"\",\"\",\"approach-retreat\",\"71\",\"582087\",\"0.0-71.0\",\"\",\"\",\"1-2\",\"4154\",\"37\",\"1\",\"Training\",\"Stims/Figures/144-J-10-3.bmp\",\"ta:paka\",\"Right\",\"37\",\"5\",\"4\",\"1\",\"P\",\"J\",\"68\"
\"\",\"\",\"approach-retreat\",\"72\",\"587610\",\"0.0-72.0\",\"\",\"\",\"1-2\",\"4018\",\"39\",\"1\",\"Training\",\"Stims/Figures/118-J-0-2.bmp\",\"ta:paka\",\"Left\",\"39\",\"5\",\"5\",\"1\",\"P\",\"J\",\"69\"
\"\",\"\",\"approach-retreat\",\"73\",\"593010\",\"0.0-73.0\",\"\",\"\",\"1-2\",\"3895\",\"40\",\"1\",\"Training\",\"Stims/Figures/93-J-0-1.bmp\",\"ta:paka\",\"Up\",\"40\",\"5\",\"6\",\"1\",\"P\",\"J\",\"70\"
\"\",\"\",\"approach-retreat\",\"74\",\"599026\",\"0.0-74.0\",\"\",\"\",\"1-2\",\"4510\",\"40\",\"1\",\"Training\",\"Stims/Figures/7-C-20-4.bmp\",\"na:la:la\",\"Down\",\"40\",\"5\",\"7\",\"1\",\"S\",\"J\",\"71\"
\"\",\"\",\"approach-retreat\",\"75\",\"604638\",\"0.0-75.0\",\"\",\"\",\"1-2\",\"4106\",\"40\",\"0\",\"Training\",\"Stims/Figures/74-C-20-4.bmp\",\"na:la:la\",\"Up\",\"38\",\"5\",\"8\",\"1\",\"S\",\"J\",\"72\"
\"\",\"\",\"approach-retreat\",\"76\",\"610374\",\"0.0-76.0\",\"\",\"\",\"1-2\",\"4232\",\"37\",\"1\",\"Training\",\"Stims/Figures/94-C-20-2.bmp\",\"na:la:la\",\"Left\",\"37\",\"5\",\"9\",\"1\",\"S\",\"J\",\"73\"
\"\",\"\",\"approach-retreat\",\"77\",\"616048\",\"0.0-77.0\",\"\",\"\",\"1-2\",\"4171\",\"37\",\"1\",\"Training\",\"Stims/Figures/71-J-0-1.bmp\",\"ta:paka\",\"Right\",\"37\",\"5\",\"10\",\"1\",\"P\",\"J\",\"74\"
\"\",\"\",\"approach-retreat\",\"78\",\"623965\",\"0.0-78.0\",\"\",\"\",\"1-2\",\"6411\",\"37\",\"1\",\"Training\",\"Stims/Figures/111-C-30-3.bmp\",\"na:la:la\",\"Left\",\"37\",\"5\",\"11\",\"1\",\"S\",\"J\",\"75\"
\"\",\"\",\"approach-retreat\",\"79\",\"630418\",\"0.0-79.0\",\"\",\"\",\"1-2\",\"4946\",\"38\",\"1\",\"Training\",\"Stims/Figures/94-J-0-2.bmp\",\"ta:paka\",\"Down\",\"38\",\"5\",\"12\",\"1\",\"P\",\"J\",\"76\"
\"\",\"\",\"approach-retreat\",\"80\",\"636609\",\"0.0-80.0\",\"\",\"\",\"1-2\",\"4684\",\"39\",\"1\",\"Training\",\"Stims/Figures/118-C-20-2.bmp\",\"na:la:la\",\"Right\",\"39\",\"5\",\"13\",\"1\",\"S\",\"J\",\"77\"
\"\",\"\",\"approach-retreat\",\"81\",\"643215\",\"0.0-81.0\",\"\",\"\",\"1-2\",\"5101\",\"38\",\"1\",\"Training\",\"Stims/Figures/93-C-30-1.bmp\",\"na:la:la\",\"Up\",\"38\",\"5\",\"14\",\"1\",\"S\",\"J\",\"78\"
\"\",\"\",\"approach-retreat\",\"82\",\"650573\",\"0.0-82.0\",\"\",\"\",\"1-2\",\"5852\",\"38\",\"1\",\"Training\",\"Stims/Figures/144-C-30-3.bmp\",\"na:la:la\",\"Up\",\"38\",\"5\",\"15\",\"1\",\"S\",\"J\",\"79\"
\"\",\"\",\"approach-retreat\",\"83\",\"656497\",\"0.0-83.0\",\"\",\"\",\"1-2\",\"4419\",\"38\",\"1\",\"Training\",\"Stims/Figures/7-J-10-4.bmp\",\"ta:paka\",\"Down\",\"38\",\"5\",\"16\",\"1\",\"P\",\"J\",\"80\"
\"\",\"\",\"approach-retreat\",\"84\",\"662070\",\"0.0-84.0\",\"\",\"\",\"1-2\",\"4067\",\"37\",\"1\",\"Training\",\"Stims/Figures/94-J-0-2.bmp\",\"ta:paka\",\"Right\",\"37\",\"6\",\"1\",\"1\",\"P\",\"J\",\"81\"
\"\",\"\",\"approach-retreat\",\"85\",\"668860\",\"0.0-85.0\",\"\",\"\",\"1-2\",\"5284\",\"38\",\"1\",\"Training\",\"Stims/Figures/94-C-20-2.bmp\",\"na:la:la\",\"Up\",\"38\",\"6\",\"2\",\"1\",\"S\",\"J\",\"82\"
\"\",\"\",\"approach-retreat\",\"86\",\"674559\",\"0.0-86.0\",\"\",\"\",\"1-2\",\"4194\",\"37\",\"1\",\"Training\",\"Stims/Figures/111-C-30-3.bmp\",\"na:la:la\",\"Left\",\"37\",\"6\",\"3\",\"1\",\"S\",\"J\",\"83\"
\"\",\"\",\"approach-retreat\",\"87\",\"680082\",\"0.0-87.0\",\"\",\"\",\"1-2\",\"4018\",\"38\",\"1\",\"Training\",\"Stims/Figures/111-J-10-3.bmp\",\"ta:paka\",\"Down\",\"38\",\"6\",\"4\",\"1\",\"P\",\"J\",\"84\"
\"\",\"\",\"approach-retreat\",\"88\",\"685857\",\"0.0-88.0\",\"\",\"\",\"1-2\",\"4269\",\"37\",\"1\",\"Training\",\"Stims/Figures/74-C-20-4.bmp\",\"na:la:la\",\"Left\",\"37\",\"6\",\"5\",\"1\",\"S\",\"J\",\"85\"
\"\",\"\",\"approach-retreat\",\"89\",\"691430\",\"0.0-89.0\",\"\",\"\",\"1-2\",\"4068\",\"37\",\"1\",\"Training\",\"Stims/Figures/118-J-0-2.bmp\",\"ta:paka\",\"Right\",\"37\",\"6\",\"6\",\"1\",\"P\",\"J\",\"86\"
\"\",\"\",\"approach-retreat\",\"90\",\"697044\",\"0.0-90.0\",\"\",\"\",\"1-2\",\"4109\",\"38\",\"1\",\"Training\",\"Stims/Figures/144-J-10-3.bmp\",\"ta:paka\",\"Down\",\"38\",\"6\",\"7\",\"1\",\"P\",\"J\",\"87\"
\"\",\"\",\"approach-retreat\",\"91\",\"702502\",\"0.0-91.0\",\"\",\"\",\"1-2\",\"3952\",\"38\",\"1\",\"Training\",\"Stims/Figures/71-C-30-1.bmp\",\"na:la:la\",\"Up\",\"38\",\"6\",\"8\",\"1\",\"S\",\"J\",\"88\"
\"\",\"\",\"approach-retreat\",\"92\",\"708120\",\"0.0-92.0\",\"\",\"\",\"1-2\",\"4112\",\"37\",\"1\",\"Training\",\"Stims/Figures/7-C-20-4.bmp\",\"na:la:la\",\"Left\",\"37\",\"6\",\"9\",\"1\",\"S\",\"J\",\"89\"
\"\",\"\",\"approach-retreat\",\"93\",\"714309\",\"0.0-93.0\",\"\",\"\",\"1-2\",\"4685\",\"38\",\"1\",\"Training\",\"Stims/Figures/93-C-30-1.bmp\",\"na:la:la\",\"Up\",\"38\",\"6\",\"10\",\"1\",\"S\",\"J\",\"90\"
\"\",\"\",\"approach-retreat\",\"94\",\"720146\",\"0.0-94.0\",\"\",\"\",\"1-2\",\"4331\",\"38\",\"1\",\"Training\",\"Stims/Figures/7-J-10-4.bmp\",\"ta:paka\",\"Down\",\"38\",\"6\",\"11\",\"1\",\"P\",\"J\",\"91\"
\"\",\"\",\"approach-retreat\",\"95\",\"725835\",\"0.0-95.0\",\"\",\"\",\"1-2\",\"4185\",\"38\",\"1\",\"Training\",\"Stims/Figures/93-J-0-1.bmp\",\"ta:paka\",\"Down\",\"38\",\"6\",\"12\",\"1\",\"P\",\"J\",\"92\"
\"\",\"\",\"approach-retreat\",\"96\",\"731535\",\"0.0-96.0\",\"\",\"\",\"1-2\",\"4195\",\"37\",\"1\",\"Training\",\"Stims/Figures/118-C-20-2.bmp\",\"na:la:la\",\"Left\",\"37\",\"6\",\"13\",\"1\",\"S\",\"J\",\"93\"
\"\",\"\",\"approach-retreat\",\"97\",\"737281\",\"0.0-97.0\",\"\",\"\",\"1-2\",\"4241\",\"38\",\"1\",\"Training\",\"Stims/Figures/144-C-30-3.bmp\",\"na:la:la\",\"Up\",\"38\",\"6\",\"14\",\"1\",\"S\",\"J\",\"94\"
\"\",\"\",\"approach-retreat\",\"98\",\"742932\",\"0.0-98.0\",\"\",\"\",\"1-2\",\"4144\",\"37\",\"1\",\"Training\",\"Stims/Figures/71-J-0-1.bmp\",\"ta:paka\",\"Right\",\"37\",\"6\",\"15\",\"1\",\"P\",\"J\",\"95\"
\"\",\"\",\"approach-retreat\",\"99\",\"748845\",\"0.0-99.0\",\"\",\"\",\"1-2\",\"4409\",\"37\",\"1\",\"Training\",\"Stims/Figures/74-J-10-4.bmp\",\"ta:paka\",\"Right\",\"37\",\"6\",\"16\",\"1\",\"P\",\"J\",\"96\"
\"\",\"\",\"approach-retreat\",\"100\",\"754412\",\"0.0-100.0\",\"\",\"\",\"1-2\",\"4064\",\"37\",\"1\",\"Training\",\"Stims/Figures/71-J-0-1.bmp\",\"ta:paka\",\"Right\",\"37\",\"7\",\"1\",\"1\",\"P\",\"J\",\"97\"
\"\",\"\",\"approach-retreat\",\"101\",\"760242\",\"0.0-101.0\",\"\",\"\",\"1-2\",\"4324\",\"38\",\"1\",\"Training\",\"Stims/Figures/93-C-30-1.bmp\",\"na:la:la\",\"Up\",\"38\",\"7\",\"2\",\"1\",\"S\",\"J\",\"98\"
\"\",\"\",\"approach-retreat\",\"102\",\"765729\",\"0.0-102.0\",\"\",\"\",\"1-2\",\"3981\",\"38\",\"1\",\"Training\",\"Stims/Figures/94-J-0-2.bmp\",\"ta:paka\",\"Down\",\"38\",\"7\",\"3\",\"1\",\"P\",\"J\",\"99\"
\"\",\"\",\"approach-retreat\",\"103\",\"771232\",\"0.0-103.0\",\"\",\"\",\"1-2\",\"3999\",\"40\",\"1\",\"Training\",\"Stims/Figures/7-J-10-4.bmp\",\"ta:paka\",\"Up\",\"40\",\"7\",\"4\",\"1\",\"P\",\"J\",\"100\"
\"\",\"\",\"approach-retreat\",\"104\",\"777025\",\"0.0-104.0\",\"\",\"\",\"1-2\",\"4287\",\"39\",\"1\",\"Training\",\"Stims/Figures/118-C-20-2.bmp\",\"na:la:la\",\"Right\",\"39\",\"7\",\"5\",\"1\",\"S\",\"J\",\"101\"
\"\",\"\",\"approach-retreat\",\"105\",\"784491\",\"0.0-105.0\",\"\",\"\",\"1-2\",\"5961\",\"37\",\"1\",\"Training\",\"Stims/Figures/111-C-30-3.bmp\",\"na:la:la\",\"Left\",\"37\",\"7\",\"6\",\"1\",\"S\",\"J\",\"102\"
\"\",\"\",\"approach-retreat\",\"106\",\"790028\",\"0.0-106.0\",\"\",\"\",\"1-2\",\"4033\",\"39\",\"1\",\"Training\",\"Stims/Figures/111-J-10-3.bmp\",\"ta:paka\",\"Left\",\"39\",\"7\",\"7\",\"1\",\"P\",\"J\",\"103\"
\"\",\"\",\"approach-retreat\",\"107\",\"795926\",\"0.0-107.0\",\"\",\"\",\"1-2\",\"4394\",\"40\",\"1\",\"Training\",\"Stims/Figures/71-C-30-1.bmp\",\"na:la:la\",\"Down\",\"40\",\"7\",\"8\",\"1\",\"S\",\"J\",\"104\"
\"\",\"\",\"approach-retreat\",\"108\",\"803433\",\"0.0-108.0\",\"\",\"\",\"1-2\",\"6001\",\"37\",\"1\",\"Training\",\"Stims/Figures/93-J-0-1.bmp\",\"ta:paka\",\"Right\",\"37\",\"7\",\"9\",\"1\",\"P\",\"J\",\"105\"
\"\",\"\",\"approach-retreat\",\"109\",\"809560\",\"0.0-109.0\",\"\",\"\",\"1-2\",\"4622\",\"37\",\"1\",\"Training\",\"Stims/Figures/144-J-10-3.bmp\",\"ta:paka\",\"Right\",\"37\",\"7\",\"10\",\"1\",\"P\",\"J\",\"106\"
\"\",\"\",\"approach-retreat\",\"110\",\"815111\",\"0.0-110.0\",\"\",\"\",\"1-2\",\"4041\",\"38\",\"1\",\"Training\",\"Stims/Figures/118-J-0-2.bmp\",\"ta:paka\",\"Down\",\"38\",\"7\",\"11\",\"1\",\"P\",\"J\",\"107\"
\"\",\"\",\"approach-retreat\",\"111\",\"821094\",\"0.0-111.0\",\"\",\"\",\"1-2\",\"4477\",\"37\",\"1\",\"Training\",\"Stims/Figures/7-C-20-4.bmp\",\"na:la:la\",\"Left\",\"37\",\"7\",\"12\",\"1\",\"S\",\"J\",\"108\"
\"\",\"\",\"approach-retreat\",\"112\",\"826842\",\"0.0-112.0\",\"\",\"\",\"1-2\",\"4243\",\"37\",\"1\",\"Training\",\"Stims/Figures/94-C-20-2.bmp\",\"na:la:la\",\"Left\",\"37\",\"7\",\"13\",\"1\",\"S\",\"J\",\"109\"
\"\",\"\",\"approach-retreat\",\"113\",\"832759\",\"0.0-113.0\",\"\",\"\",\"1-2\",\"4412\",\"40\",\"1\",\"Training\",\"Stims/Figures/74-C-20-4.bmp\",\"na:la:la\",\"Down\",\"40\",\"7\",\"14\",\"1\",\"S\",\"J\",\"110\"
\"\",\"\",\"approach-retreat\",\"114\",\"838752\",\"0.0-114.0\",\"\",\"\",\"1-2\",\"4489\",\"38\",\"1\",\"Training\",\"Stims/Figures/144-C-30-3.bmp\",\"na:la:la\",\"Up\",\"38\",\"7\",\"15\",\"1\",\"S\",\"J\",\"111\"
\"\",\"\",\"approach-retreat\",\"115\",\"844252\",\"0.0-115.0\",\"\",\"\",\"1-2\",\"3996\",\"40\",\"1\",\"Training\",\"Stims/Figures/74-J-10-4.bmp\",\"ta:paka\",\"Up\",\"40\",\"7\",\"16\",\"1\",\"P\",\"J\",\"112\"
\"\",\"\",\"approach-retreat\",\"116\",\"850468\",\"0.0-116.0\",\"\",\"\",\"1-2\",\"4711\",\"38\",\"1\",\"Training\",\"Stims/Figures/111-C-30-3.bmp\",\"na:la:la\",\"Up\",\"38\",\"8\",\"1\",\"1\",\"S\",\"J\",\"113\"
\"\",\"\",\"approach-retreat\",\"117\",\"855909\",\"0.0-117.0\",\"\",\"\",\"1-2\",\"3936\",\"37\",\"1\",\"Training\",\"Stims/Figures/71-J-0-1.bmp\",\"ta:paka\",\"Right\",\"37\",\"8\",\"2\",\"1\",\"P\",\"J\",\"114\"
\"\",\"\",\"approach-retreat\",\"118\",\"861427\",\"0.0-118.0\",\"\",\"\",\"1-2\",\"4013\",\"39\",\"1\",\"Training\",\"Stims/Figures/7-J-10-4.bmp\",\"ta:paka\",\"Left\",\"39\",\"8\",\"3\",\"1\",\"P\",\"J\",\"115\"
\"\",\"\",\"approach-retreat\",\"119\",\"867045\",\"0.0-119.0\",\"\",\"\",\"1-2\",\"4112\",\"39\",\"1\",\"Training\",\"Stims/Figures/74-C-20-4.bmp\",\"na:la:la\",\"Right\",\"39\",\"8\",\"4\",\"1\",\"S\",\"J\",\"116\"
\"\",\"\",\"approach-retreat\",\"120\",\"872838\",\"0.0-120.0\",\"\",\"\",\"1-2\",\"4288\",\"38\",\"1\",\"Training\",\"Stims/Figures/93-C-30-1.bmp\",\"na:la:la\",\"Up\",\"38\",\"8\",\"5\",\"1\",\"S\",\"J\",\"117\"
\"\",\"\",\"approach-retreat\",\"121\",\"878446\",\"0.0-121.0\",\"\",\"\",\"1-2\",\"4103\",\"40\",\"1\",\"Training\",\"Stims/Figures/71-C-30-1.bmp\",\"na:la:la\",\"Down\",\"40\",\"8\",\"6\",\"1\",\"S\",\"J\",\"118\"
\"\",\"\",\"approach-retreat\",\"122\",\"884310\",\"0.0-122.0\",\"\",\"\",\"1-2\",\"4359\",\"38\",\"1\",\"Training\",\"Stims/Figures/118-J-0-2.bmp\",\"ta:paka\",\"Down\",\"38\",\"8\",\"7\",\"1\",\"P\",\"J\",\"119\"
\"\",\"\",\"approach-retreat\",\"123\",\"889788\",\"0.0-123.0\",\"\",\"\",\"1-2\",\"3975\",\"40\",\"1\",\"Training\",\"Stims/Figures/74-J-10-4.bmp\",\"ta:paka\",\"Up\",\"40\",\"8\",\"8\",\"1\",\"P\",\"J\",\"120\"
\"\",\"\",\"approach-retreat\",\"124\",\"895641\",\"0.0-124.0\",\"\",\"\",\"1-2\",\"4347\",\"38\",\"1\",\"Training\",\"Stims/Figures/111-J-10-3.bmp\",\"ta:paka\",\"Down\",\"38\",\"8\",\"9\",\"1\",\"P\",\"J\",\"121\"
\"\",\"\",\"approach-retreat\",\"125\",\"901398\",\"0.0-125.0\",\"\",\"\",\"1-2\",\"4252\",\"40\",\"1\",\"Training\",\"Stims/Figures/93-J-0-1.bmp\",\"ta:paka\",\"Up\",\"40\",\"8\",\"10\",\"1\",\"P\",\"J\",\"122\"
\"\",\"\",\"approach-retreat\",\"126\",\"907156\",\"0.0-126.0\",\"\",\"\",\"1-2\",\"4251\",\"39\",\"1\",\"Training\",\"Stims/Figures/118-C-20-2.bmp\",\"na:la:la\",\"Right\",\"39\",\"8\",\"11\",\"1\",\"S\",\"J\",\"123\"
\"\",\"\",\"approach-retreat\",\"127\",\"913094\",\"0.0-127.0\",\"\",\"\",\"1-2\",\"4434\",\"39\",\"1\",\"Training\",\"Stims/Figures/144-J-10-3.bmp\",\"ta:paka\",\"Left\",\"39\",\"8\",\"12\",\"1\",\"P\",\"J\",\"124\"
\"\",\"\",\"approach-retreat\",\"128\",\"919260\",\"0.0-128.0\",\"\",\"\",\"1-2\",\"4661\",\"37\",\"1\",\"Training\",\"Stims/Figures/144-C-30-3.bmp\",\"na:la:la\",\"Left\",\"37\",\"8\",\"13\",\"1\",\"S\",\"J\",\"125\"
\"\",\"\",\"approach-retreat\",\"129\",\"925621\",\"0.0-129.0\",\"\",\"\",\"1-2\",\"4856\",\"40\",\"1\",\"Training\",\"Stims/Figures/7-C-20-4.bmp\",\"na:la:la\",\"Down\",\"40\",\"8\",\"14\",\"1\",\"S\",\"J\",\"126\"
\"\",\"\",\"approach-retreat\",\"130\",\"931698\",\"0.0-130.0\",\"\",\"\",\"1-2\",\"4572\",\"37\",\"1\",\"Training\",\"Stims/Figures/94-C-20-2.bmp\",\"na:la:la\",\"Left\",\"37\",\"8\",\"15\",\"1\",\"S\",\"J\",\"127\"
\"\",\"\",\"approach-retreat\",\"131\",\"937946\",\"0.0-131.0\",\"\",\"\",\"1-2\",\"4742\",\"37\",\"1\",\"Training\",\"Stims/Figures/94-J-0-2.bmp\",\"ta:paka\",\"Right\",\"37\",\"8\",\"16\",\"1\",\"P\",\"J\",\"128\"
\"\",\"\",\"approach-retreat\",\"132\",\"943723\",\"0.0-132.0\",\"\",\"\",\"1-2\",\"4272\",\"40\",\"1\",\"Training\",\"Stims/Figures/118-C-20-2.bmp\",\"na:la:la\",\"Down\",\"40\",\"9\",\"1\",\"1\",\"S\",\"J\",\"129\"
\"\",\"\",\"approach-retreat\",\"133\",\"949373\",\"0.0-133.0\",\"\",\"\",\"1-2\",\"4146\",\"38\",\"1\",\"Training\",\"Stims/Figures/74-C-20-4.bmp\",\"na:la:la\",\"Up\",\"38\",\"9\",\"2\",\"1\",\"S\",\"J\",\"130\"
\"\",\"\",\"approach-retreat\",\"134\",\"954933\",\"0.0-134.0\",\"\",\"\",\"1-2\",\"4055\",\"38\",\"1\",\"Training\",\"Stims/Figures/7-C-20-4.bmp\",\"na:la:la\",\"Up\",\"38\",\"9\",\"3\",\"1\",\"S\",\"J\",\"131\"
\"\",\"\",\"approach-retreat\",\"135\",\"960440\",\"0.0-135.0\",\"\",\"\",\"1-2\",\"3998\",\"37\",\"1\",\"Training\",\"Stims/Figures/7-J-10-4.bmp\",\"ta:paka\",\"Right\",\"37\",\"9\",\"4\",\"1\",\"P\",\"J\",\"132\"
\"\",\"\",\"approach-retreat\",\"136\",\"966666\",\"0.0-136.0\",\"\",\"\",\"1-2\",\"4720\",\"37\",\"1\",\"Training\",\"Stims/Figures/111-C-30-3.bmp\",\"na:la:la\",\"Left\",\"37\",\"9\",\"5\",\"1\",\"S\",\"J\",\"133\"
\"\",\"\",\"approach-retreat\",\"137\",\"972849\",\"0.0-137.0\",\"\",\"\",\"1-2\",\"4675\",\"38\",\"1\",\"Training\",\"Stims/Figures/118-J-0-2.bmp\",\"ta:paka\",\"Down\",\"38\",\"9\",\"6\",\"1\",\"P\",\"J\",\"134\"
\"\",\"\",\"approach-retreat\",\"138\",\"978503\",\"0.0-138.0\",\"\",\"\",\"1-2\",\"4148\",\"38\",\"1\",\"Training\",\"Stims/Figures/94-J-0-2.bmp\",\"ta:paka\",\"Down\",\"38\",\"9\",\"7\",\"1\",\"P\",\"J\",\"135\"
\"\",\"\",\"approach-retreat\",\"139\",\"984052\",\"0.0-139.0\",\"\",\"\",\"1-2\",\"4044\",\"39\",\"1\",\"Training\",\"Stims/Figures/111-J-10-3.bmp\",\"ta:paka\",\"Left\",\"39\",\"9\",\"8\",\"1\",\"P\",\"J\",\"136\"
\"\",\"\",\"approach-retreat\",\"140\",\"989651\",\"0.0-140.0\",\"\",\"\",\"1-2\",\"4094\",\"39\",\"1\",\"Training\",\"Stims/Figures/94-C-20-2.bmp\",\"na:la:la\",\"Right\",\"39\",\"9\",\"9\",\"1\",\"S\",\"J\",\"137\"
\"\",\"\",\"approach-retreat\",\"141\",\"995732\",\"0.0-141.0\",\"\",\"\",\"1-2\",\"4574\",\"37\",\"1\",\"Training\",\"Stims/Figures/144-C-30-3.bmp\",\"na:la:la\",\"Left\",\"37\",\"9\",\"10\",\"1\",\"S\",\"J\",\"138\"
\"\",\"\",\"approach-retreat\",\"142\",\"1001716\",\"0.0-142.0\",\"\",\"\",\"1-2\",\"4479\",\"38\",\"1\",\"Training\",\"Stims/Figures/93-J-0-1.bmp\",\"ta:paka\",\"Down\",\"38\",\"9\",\"11\",\"1\",\"P\",\"J\",\"139\"
\"\",\"\",\"approach-retreat\",\"143\",\"1007466\",\"0.0-143.0\",\"\",\"\",\"1-2\",\"4247\",\"40\",\"1\",\"Training\",\"Stims/Figures/71-J-0-1.bmp\",\"ta:paka\",\"Up\",\"40\",\"9\",\"12\",\"1\",\"P\",\"J\",\"140\"
\"\",\"\",\"approach-retreat\",\"144\",\"1012946\",\"0.0-144.0\",\"\",\"\",\"1-2\",\"3973\",\"37\",\"1\",\"Training\",\"Stims/Figures/74-J-10-4.bmp\",\"ta:paka\",\"Right\",\"37\",\"9\",\"13\",\"1\",\"P\",\"J\",\"141\"
\"\",\"\",\"approach-retreat\",\"145\",\"1018882\",\"0.0-145.0\",\"\",\"\",\"1-2\",\"4431\",\"37\",\"1\",\"Training\",\"Stims/Figures/93-C-30-1.bmp\",\"na:la:la\",\"Left\",\"37\",\"9\",\"14\",\"1\",\"S\",\"J\",\"142\"
\"\",\"\",\"approach-retreat\",\"146\",\"1025378\",\"0.0-146.0\",\"\",\"\",\"1-2\",\"4990\",\"38\",\"1\",\"Training\",\"Stims/Figures/71-C-30-1.bmp\",\"na:la:la\",\"Up\",\"38\",\"9\",\"15\",\"1\",\"S\",\"J\",\"143\"
\"\",\"\",\"approach-retreat\",\"147\",\"1031020\",\"0.0-147.0\",\"\",\"\",\"1-2\",\"4137\",\"37\",\"1\",\"Training\",\"Stims/Figures/144-J-10-3.bmp\",\"ta:paka\",\"Right\",\"37\",\"9\",\"16\",\"1\",\"P\",\"J\",\"144\"
\"91938\",\"\",\"instructions\",\"148\",\"1122958\",\"0.0-148.0\",\"[{\"\"page_index\"\":0,\"\"viewing_time\"\":91938}]\",\"\",\"\",\"\",\"\",\"\",\"\",\"\",\"\",\"\",\"\",\"\",\"\",\"\",\"\",\"\",\"\"
\"\",\"\",\"approach-retreat\",\"149\",\"1131617\",\"0.0-149.0\",\"\",\"\",\"1-2\",\"7155\",\"38\",\"1\",\"Testing\",\"Stims/Figures/139-J-0-2.bmp\",\"ta:paka\",\"Down\",\"38\",\"1\",\"1\",\"1\",\"P\",\"J\",\"1\"
\"\",\"\",\"approach-retreat\",\"150\",\"1138799\",\"0.0-150.0\",\"\",\"\",\"1-2\",\"5677\",\"40\",\"1\",\"Testing\",\"Stims/Figures/74-J-10-4.bmp\",\"ta:paka\",\"Up\",\"40\",\"1\",\"2\",\"1\",\"P\",\"J\",\"2\"
\"\",\"\",\"approach-retreat\",\"151\",\"1144600\",\"0.0-151.0\",\"\",\"\",\"1-2\",\"4274\",\"38\",\"0\",\"Testing\",\"Stims/Figures/7-J-10-4.bmp\",\"ta:paka\",\"Up\",\"40\",\"1\",\"3\",\"1\",\"P\",\"J\",\"3\"
\"\",\"\",\"approach-retreat\",\"152\",\"1150378\",\"0.0-152.0\",\"\",\"\",\"1-2\",\"4272\",\"39\",\"1\",\"Testing\",\"Stims/Figures/144-C-30-3.bmp\",\"na:la:la\",\"Right\",\"39\",\"1\",\"4\",\"1\",\"S\",\"J\",\"4\"
\"\",\"\",\"approach-retreat\",\"153\",\"1156040\",\"0.0-153.0\",\"\",\"\",\"1-2\",\"4158\",\"38\",\"0\",\"Testing\",\"Stims/Figures/118-C-20-2.bmp\",\"na:la:la\",\"Down\",\"40\",\"1\",\"5\",\"1\",\"S\",\"J\",\"5\"
\"\",\"\",\"approach-retreat\",\"154\",\"1161762\",\"0.0-154.0\",\"\",\"\",\"1-2\",\"4218\",\"39\",\"1\",\"Testing\",\"Stims/Figures/94-J-0-2.bmp\",\"ta:paka\",\"Left\",\"39\",\"1\",\"6\",\"1\",\"P\",\"J\",\"6\"
\"\",\"\",\"approach-retreat\",\"155\",\"1167618\",\"0.0-155.0\",\"\",\"\",\"1-2\",\"4352\",\"38\",\"0\",\"Testing\",\"Stims/Figures/144-J-10-3.bmp\",\"ta:paka\",\"Up\",\"40\",\"1\",\"7\",\"1\",\"P\",\"J\",\"7\"
\"\",\"\",\"approach-retreat\",\"156\",\"1173675\",\"0.0-156.0\",\"\",\"\",\"1-2\",\"4552\",\"38\",\"1\",\"Testing\",\"Stims/Figures/19-C-20-4.bmp\",\"na:la:la\",\"Up\",\"38\",\"1\",\"8\",\"1\",\"S\",\"J\",\"8\"
\"\",\"\",\"approach-retreat\",\"157\",\"1179516\",\"0.0-157.0\",\"\",\"\",\"1-2\",\"4337\",\"38\",\"1\",\"Testing\",\"Stims/Figures/118-J-0-2.bmp\",\"ta:paka\",\"Down\",\"38\",\"1\",\"9\",\"1\",\"P\",\"J\",\"9\"
\"\",\"\",\"approach-retreat\",\"158\",\"1185254\",\"0.0-158.0\",\"\",\"\",\"1-2\",\"4232\",\"39\",\"1\",\"Testing\",\"Stims/Figures/93-C-30-1.bmp\",\"na:la:la\",\"Right\",\"39\",\"1\",\"10\",\"1\",\"S\",\"J\",\"10\"
\"\",\"\",\"approach-retreat\",\"159\",\"1191111\",\"0.0-159.0\",\"\",\"\",\"1-2\",\"4353\",\"40\",\"1\",\"Testing\",\"Stims/Figures/111-C-30-3.bmp\",\"na:la:la\",\"Down\",\"40\",\"1\",\"11\",\"1\",\"S\",\"J\",\"11\"
\"\",\"\",\"approach-retreat\",\"160\",\"1196848\",\"0.0-160.0\",\"\",\"\",\"1-2\",\"4233\",\"37\",\"1\",\"Testing\",\"Stims/Figures/74-C-20-4.bmp\",\"na:la:la\",\"Left\",\"37\",\"1\",\"12\",\"1\",\"S\",\"J\",\"12\"
\"\",\"\",\"approach-retreat\",\"161\",\"1202570\",\"0.0-161.0\",\"\",\"\",\"1-2\",\"4217\",\"39\",\"1\",\"Testing\",\"Stims/Figures/100-J-10-3.bmp\",\"ta:paka\",\"Left\",\"39\",\"1\",\"13\",\"1\",\"P\",\"J\",\"13\"
\"\",\"\",\"approach-retreat\",\"162\",\"1208467\",\"0.0-162.0\",\"\",\"\",\"1-2\",\"4393\",\"39\",\"1\",\"Testing\",\"Stims/Figures/139-C-20-2.bmp\",\"na:la:la\",\"Right\",\"39\",\"1\",\"14\",\"1\",\"S\",\"J\",\"14\"
\"\",\"\",\"approach-retreat\",\"163\",\"1214306\",\"0.0-163.0\",\"\",\"\",\"1-2\",\"4337\",\"39\",\"1\",\"Testing\",\"Stims/Figures/93-J-0-1.bmp\",\"ta:paka\",\"Left\",\"39\",\"1\",\"15\",\"1\",\"P\",\"J\",\"15\"
\"\",\"\",\"approach-retreat\",\"164\",\"1219856\",\"0.0-164.0\",\"\",\"\",\"1-2\",\"4046\",\"38\",\"1\",\"Testing\",\"Stims/Figures/86-C-30-1.bmp\",\"na:la:la\",\"Up\",\"38\",\"1\",\"16\",\"1\",\"S\",\"J\",\"16\"
\"\",\"\",\"approach-retreat\",\"165\",\"1225426\",\"0.0-165.0\",\"\",\"\",\"1-2\",\"4063\",\"39\",\"1\",\"Testing\",\"Stims/Figures/86-J-0-1.bmp\",\"ta:paka\",\"Left\",\"39\",\"1\",\"17\",\"1\",\"P\",\"J\",\"17\"
\"\",\"\",\"approach-retreat\",\"166\",\"1231246\",\"0.0-166.0\",\"\",\"\",\"1-2\",\"4318\",\"40\",\"0\",\"Testing\",\"Stims/Figures/19-J-10-4.bmp\",\"ta:paka\",\"Down\",\"38\",\"1\",\"18\",\"1\",\"P\",\"J\",\"18\"
\"\",\"\",\"approach-retreat\",\"167\",\"1236798\",\"0.0-167.0\",\"\",\"\",\"1-2\",\"4044\",\"40\",\"0\",\"Testing\",\"Stims/Figures/111-J-10-3.bmp\",\"ta:paka\",\"Down\",\"38\",\"1\",\"19\",\"1\",\"P\",\"J\",\"19\"
\"\",\"\",\"approach-retreat\",\"168\",\"1242382\",\"0.0-168.0\",\"\",\"\",\"1-2\",\"4076\",\"37\",\"1\",\"Testing\",\"Stims/Figures/7-C-20-4.bmp\",\"na:la:la\",\"Left\",\"37\",\"1\",\"20\",\"1\",\"S\",\"J\",\"20\"
\"\",\"\",\"approach-retreat\",\"169\",\"1247971\",\"0.0-169.0\",\"\",\"\",\"1-2\",\"4085\",\"40\",\"1\",\"Testing\",\"Stims/Figures/71-J-0-1.bmp\",\"ta:paka\",\"Up\",\"40\",\"1\",\"21\",\"1\",\"P\",\"J\",\"21\"
\"\",\"\",\"approach-retreat\",\"170\",\"1253436\",\"0.0-170.0\",\"\",\"\",\"1-2\",\"3961\",\"39\",\"1\",\"Testing\",\"Stims/Figures/100-C-30-3.bmp\",\"na:la:la\",\"Right\",\"39\",\"1\",\"22\",\"1\",\"S\",\"J\",\"22\"
\"\",\"\",\"approach-retreat\",\"171\",\"1259223\",\"0.0-171.0\",\"\",\"\",\"1-2\",\"4284\",\"39\",\"1\",\"Testing\",\"Stims/Figures/94-C-20-2.bmp\",\"na:la:la\",\"Right\",\"39\",\"1\",\"23\",\"1\",\"S\",\"J\",\"23\"
\"\",\"\",\"approach-retreat\",\"172\",\"1264785\",\"0.0-172.0\",\"\",\"\",\"1-2\",\"4057\",\"39\",\"1\",\"Testing\",\"Stims/Figures/71-C-30-1.bmp\",\"na:la:la\",\"Right\",\"39\",\"1\",\"24\",\"1\",\"S\",\"J\",\"24\"
\"\",\"\",\"approach-retreat\",\"173\",\"1270415\",\"0.0-173.0\",\"\",\"\",\"1-2\",\"4126\",\"40\",\"1\",\"Testing\",\"Stims/Figures/7-J-10-4.bmp\",\"ta:paka\",\"Up\",\"40\",\"2\",\"1\",\"1\",\"P\",\"J\",\"25\"
\"\",\"\",\"approach-retreat\",\"174\",\"1276292\",\"0.0-174.0\",\"\",\"\",\"1-2\",\"4373\",\"40\",\"1\",\"Testing\",\"Stims/Figures/19-C-20-4.bmp\",\"na:la:la\",\"Down\",\"40\",\"2\",\"2\",\"1\",\"S\",\"J\",\"26\"
\"\",\"\",\"approach-retreat\",\"175\",\"1281916\",\"0.0-175.0\",\"\",\"\",\"1-2\",\"4120\",\"40\",\"1\",\"Testing\",\"Stims/Figures/86-C-30-1.bmp\",\"na:la:la\",\"Down\",\"40\",\"2\",\"3\",\"1\",\"S\",\"J\",\"27\"
\"\",\"\",\"approach-retreat\",\"176\",\"1287498\",\"0.0-176.0\",\"\",\"\",\"1-2\",\"4077\",\"40\",\"1\",\"Testing\",\"Stims/Figures/71-C-30-1.bmp\",\"na:la:la\",\"Down\",\"40\",\"2\",\"4\",\"1\",\"S\",\"J\",\"28\"
\"\",\"\",\"approach-retreat\",\"177\",\"1293379\",\"0.0-177.0\",\"\",\"\",\"1-2\",\"4377\",\"37\",\"1\",\"Testing\",\"Stims/Figures/118-J-0-2.bmp\",\"ta:paka\",\"Right\",\"37\",\"2\",\"5\",\"1\",\"P\",\"J\",\"29\"
\"\",\"\",\"approach-retreat\",\"178\",\"1299289\",\"0.0-178.0\",\"\",\"\",\"1-2\",\"4406\",\"37\",\"0\",\"Testing\",\"Stims/Figures/111-J-10-3.bmp\",\"ta:paka\",\"Left\",\"39\",\"2\",\"6\",\"1\",\"P\",\"J\",\"30\"
\"\",\"\",\"approach-retreat\",\"179\",\"1305036\",\"0.0-179.0\",\"\",\"\",\"1-2\",\"4244\",\"39\",\"1\",\"Testing\",\"Stims/Figures/86-J-0-1.bmp\",\"ta:paka\",\"Left\",\"39\",\"2\",\"7\",\"1\",\"P\",\"J\",\"31\"
\"\",\"\",\"approach-retreat\",\"180\",\"1311901\",\"0.0-180.0\",\"\",\"\",\"1-2\",\"5360\",\"40\",\"1\",\"Testing\",\"Stims/Figures/74-J-10-4.bmp\",\"ta:paka\",\"Up\",\"40\",\"2\",\"8\",\"1\",\"P\",\"J\",\"32\"
\"\",\"\",\"approach-retreat\",\"181\",\"1317579\",\"0.0-181.0\",\"\",\"\",\"1-2\",\"4175\",\"38\",\"1\",\"Testing\",\"Stims/Figures/144-C-30-3.bmp\",\"na:la:la\",\"Up\",\"38\",\"2\",\"9\",\"1\",\"S\",\"J\",\"33\"
\"\",\"\",\"approach-retreat\",\"182\",\"1323219\",\"0.0-182.0\",\"\",\"\",\"1-2\",\"4134\",\"39\",\"1\",\"Testing\",\"Stims/Figures/94-J-0-2.bmp\",\"ta:paka\",\"Left\",\"39\",\"2\",\"10\",\"1\",\"P\",\"J\",\"34\"
\"\",\"\",\"approach-retreat\",\"183\",\"1329436\",\"0.0-183.0\",\"\",\"\",\"1-2\",\"4713\",\"37\",\"1\",\"Testing\",\"Stims/Figures/71-J-0-1.bmp\",\"ta:paka\",\"Right\",\"37\",\"2\",\"11\",\"1\",\"P\",\"J\",\"35\"
\"\",\"\",\"approach-retreat\",\"184\",\"1336229\",\"0.0-184.0\",\"\",\"\",\"1-2\",\"5288\",\"37\",\"1\",\"Testing\",\"Stims/Figures/111-C-30-3.bmp\",\"na:la:la\",\"Left\",\"37\",\"2\",\"12\",\"1\",\"S\",\"J\",\"36\"
\"\",\"\",\"approach-retreat\",\"185\",\"1342626\",\"0.0-185.0\",\"\",\"\",\"1-2\",\"4894\",\"37\",\"1\",\"Testing\",\"Stims/Figures/7-C-20-4.bmp\",\"na:la:la\",\"Left\",\"37\",\"2\",\"13\",\"1\",\"S\",\"J\",\"37\"
\"\",\"\",\"approach-retreat\",\"186\",\"1348298\",\"0.0-186.0\",\"\",\"\",\"1-2\",\"4167\",\"39\",\"0\",\"Testing\",\"Stims/Figures/100-J-10-3.bmp\",\"ta:paka\",\"Right\",\"37\",\"2\",\"14\",\"1\",\"P\",\"J\",\"38\"
\"\",\"\",\"approach-retreat\",\"187\",\"1353909\",\"0.0-187.0\",\"\",\"\",\"1-2\",\"4107\",\"37\",\"1\",\"Testing\",\"Stims/Figures/93-J-0-1.bmp\",\"ta:paka\",\"Right\",\"37\",\"2\",\"15\",\"1\",\"P\",\"J\",\"39\"
\"\",\"\",\"approach-retreat\",\"188\",\"1359893\",\"0.0-188.0\",\"\",\"\",\"1-2\",\"4479\",\"40\",\"0\",\"Testing\",\"Stims/Figures/19-J-10-4.bmp\",\"ta:paka\",\"Down\",\"38\",\"2\",\"16\",\"1\",\"P\",\"J\",\"40\"
\"\",\"\",\"approach-retreat\",\"189\",\"1366293\",\"0.0-189.0\",\"\",\"\",\"1-2\",\"4897\",\"38\",\"1\",\"Testing\",\"Stims/Figures/94-C-20-2.bmp\",\"na:la:la\",\"Up\",\"38\",\"2\",\"17\",\"1\",\"S\",\"J\",\"41\"
\"\",\"\",\"approach-retreat\",\"190\",\"1371911\",\"0.0-190.0\",\"\",\"\",\"1-2\",\"4115\",\"38\",\"1\",\"Testing\",\"Stims/Figures/139-C-20-2.bmp\",\"na:la:la\",\"Up\",\"38\",\"2\",\"18\",\"1\",\"S\",\"J\",\"42\"
\"\",\"\",\"approach-retreat\",\"191\",\"1377483\",\"0.0-191.0\",\"\",\"\",\"1-2\",\"4068\",\"38\",\"1\",\"Testing\",\"Stims/Figures/118-C-20-2.bmp\",\"na:la:la\",\"Up\",\"38\",\"2\",\"19\",\"1\",\"S\",\"J\",\"43\"
\"\",\"\",\"approach-retreat\",\"192\",\"1383446\",\"0.0-192.0\",\"\",\"\",\"1-2\",\"4459\",\"37\",\"1\",\"Testing\",\"Stims/Figures/144-J-10-3.bmp\",\"ta:paka\",\"Right\",\"37\",\"2\",\"20\",\"1\",\"P\",\"J\",\"44\"
\"\",\"\",\"approach-retreat\",\"193\",\"1389552\",\"0.0-193.0\",\"\",\"\",\"1-2\",\"4602\",\"40\",\"1\",\"Testing\",\"Stims/Figures/74-C-20-4.bmp\",\"na:la:la\",\"Down\",\"40\",\"2\",\"21\",\"1\",\"S\",\"J\",\"45\"
\"\",\"\",\"approach-retreat\",\"194\",\"1395067\",\"0.0-194.0\",\"\",\"\",\"1-2\",\"4011\",\"37\",\"1\",\"Testing\",\"Stims/Figures/139-J-0-2.bmp\",\"ta:paka\",\"Right\",\"37\",\"2\",\"22\",\"1\",\"P\",\"J\",\"46\"
\"\",\"\",\"approach-retreat\",\"195\",\"1400931\",\"0.0-195.0\",\"\",\"\",\"1-2\",\"4361\",\"40\",\"1\",\"Testing\",\"Stims/Figures/93-C-30-1.bmp\",\"na:la:la\",\"Down\",\"40\",\"2\",\"23\",\"1\",\"S\",\"J\",\"47\"
\"\",\"\",\"approach-retreat\",\"196\",\"1406558\",\"0.0-196.0\",\"\",\"\",\"1-2\",\"4124\",\"37\",\"1\",\"Testing\",\"Stims/Figures/100-C-30-3.bmp\",\"na:la:la\",\"Left\",\"37\",\"2\",\"24\",\"1\",\"S\",\"J\",\"48\"
\"\",\"\",\"approach-retreat\",\"197\",\"1413213\",\"0.0-197.0\",\"\",\"\",\"1-2\",\"5151\",\"39\",\"1\",\"Testing\",\"Stims/Figures/100-C-30-3.bmp\",\"na:la:la\",\"Right\",\"39\",\"3\",\"1\",\"1\",\"S\",\"J\",\"49\"
\"\",\"\",\"approach-retreat\",\"198\",\"1420423\",\"0.0-198.0\",\"\",\"\",\"1-2\",\"5706\",\"37\",\"1\",\"Testing\",\"Stims/Figures/118-C-20-2.bmp\",\"na:la:la\",\"Left\",\"37\",\"3\",\"2\",\"1\",\"S\",\"J\",\"50\"
\"\",\"\",\"approach-retreat\",\"199\",\"1425909\",\"0.0-199.0\",\"\",\"\",\"1-2\",\"3982\",\"37\",\"1\",\"Testing\",\"Stims/Figures/93-C-30-1.bmp\",\"na:la:la\",\"Left\",\"37\",\"3\",\"3\",\"1\",\"S\",\"J\",\"51\"
\"\",\"\",\"approach-retreat\",\"200\",\"1431469\",\"0.0-200.0\",\"\",\"\",\"1-2\",\"4056\",\"37\",\"1\",\"Testing\",\"Stims/Figures/139-J-0-2.bmp\",\"ta:paka\",\"Right\",\"37\",\"3\",\"4\",\"1\",\"P\",\"J\",\"52\"
\"\",\"\",\"approach-retreat\",\"201\",\"1437010\",\"0.0-201.0\",\"\",\"\",\"1-2\",\"4039\",\"39\",\"1\",\"Testing\",\"Stims/Figures/144-J-10-3.bmp\",\"ta:paka\",\"Left\",\"39\",\"3\",\"5\",\"1\",\"P\",\"J\",\"53\"
\"\",\"\",\"approach-retreat\",\"202\",\"1442586\",\"0.0-202.0\",\"\",\"\",\"1-2\",\"4072\",\"38\",\"1\",\"Testing\",\"Stims/Figures/94-C-20-2.bmp\",\"na:la:la\",\"Up\",\"38\",\"3\",\"6\",\"1\",\"S\",\"J\",\"54\"
\"\",\"\",\"approach-retreat\",\"203\",\"1448647\",\"0.0-203.0\",\"\",\"\",\"1-2\",\"4557\",\"40\",\"1\",\"Testing\",\"Stims/Figures/86-J-0-1.bmp\",\"ta:paka\",\"Up\",\"40\",\"3\",\"7\",\"1\",\"P\",\"J\",\"55\"
\"\",\"\",\"approach-retreat\",\"204\",\"1454800\",\"0.0-204.0\",\"\",\"\",\"1-2\",\"4649\",\"38\",\"1\",\"Testing\",\"Stims/Figures/118-J-0-2.bmp\",\"ta:paka\",\"Down\",\"38\",\"3\",\"8\",\"1\",\"P\",\"J\",\"56\"
\"\",\"\",\"approach-retreat\",\"205\",\"1460923\",\"0.0-205.0\",\"\",\"\",\"1-2\",\"4618\",\"39\",\"1\",\"Testing\",\"Stims/Figures/71-J-0-1.bmp\",\"ta:paka\",\"Left\",\"39\",\"3\",\"9\",\"1\",\"P\",\"J\",\"57\"
\"\",\"\",\"approach-retreat\",\"206\",\"1466457\",\"0.0-206.0\",\"\",\"\",\"1-2\",\"4031\",\"38\",\"1\",\"Testing\",\"Stims/Figures/19-C-20-4.bmp\",\"na:la:la\",\"Up\",\"38\",\"3\",\"10\",\"1\",\"S\",\"J\",\"58\"
\"\",\"\",\"approach-retreat\",\"207\",\"1473036\",\"0.0-207.0\",\"\",\"\",\"1-2\",\"5074\",\"40\",\"1\",\"Testing\",\"Stims/Figures/111-C-30-3.bmp\",\"na:la:la\",\"Down\",\"40\",\"3\",\"11\",\"1\",\"S\",\"J\",\"59\"
\"\",\"\",\"approach-retreat\",\"208\",\"1479232\",\"0.0-208.0\",\"\",\"\",\"1-2\",\"4692\",\"37\",\"1\",\"Testing\",\"Stims/Figures/71-C-30-1.bmp\",\"na:la:la\",\"Left\",\"37\",\"3\",\"12\",\"1\",\"S\",\"J\",\"60\"
\"\",\"\",\"approach-retreat\",\"209\",\"1484848\",\"0.0-209.0\",\"\",\"\",\"1-2\",\"4112\",\"38\",\"0\",\"Testing\",\"Stims/Figures/100-J-10-3.bmp\",\"ta:paka\",\"Up\",\"40\",\"3\",\"13\",\"1\",\"P\",\"J\",\"61\"
\"\",\"\",\"approach-retreat\",\"210\",\"1490628\",\"0.0-210.0\",\"\",\"\",\"1-2\",\"4275\",\"38\",\"1\",\"Testing\",\"Stims/Figures/74-C-20-4.bmp\",\"na:la:la\",\"Up\",\"38\",\"3\",\"14\",\"1\",\"S\",\"J\",\"62\"
\"\",\"\",\"approach-retreat\",\"211\",\"1496634\",\"0.0-211.0\",\"\",\"\",\"1-2\",\"4503\",\"39\",\"1\",\"Testing\",\"Stims/Figures/7-C-20-4.bmp\",\"na:la:la\",\"Right\",\"39\",\"3\",\"15\",\"1\",\"S\",\"J\",\"63\"
\"\",\"\",\"approach-retreat\",\"212\",\"1502221\",\"0.0-212.0\",\"\",\"\",\"1-2\",\"4084\",\"38\",\"1\",\"Testing\",\"Stims/Figures/93-J-0-1.bmp\",\"ta:paka\",\"Down\",\"38\",\"3\",\"16\",\"1\",\"P\",\"J\",\"64\"
\"\",\"\",\"approach-retreat\",\"213\",\"1509233\",\"0.0-213.0\",\"\",\"\",\"1-2\",\"5507\",\"37\",\"1\",\"Testing\",\"Stims/Figures/139-C-20-2.bmp\",\"na:la:la\",\"Left\",\"37\",\"3\",\"17\",\"1\",\"S\",\"J\",\"65\"
\"\",\"\",\"approach-retreat\",\"214\",\"1516093\",\"0.0-214.0\",\"\",\"\",\"1-2\",\"5356\",\"38\",\"1\",\"Testing\",\"Stims/Figures/7-J-10-4.bmp\",\"ta:paka\",\"Down\",\"38\",\"3\",\"18\",\"1\",\"P\",\"J\",\"66\"
\"\",\"\",\"approach-retreat\",\"215\",\"1521951\",\"0.0-215.0\",\"\",\"\",\"1-2\",\"4355\",\"38\",\"1\",\"Testing\",\"Stims/Figures/94-J-0-2.bmp\",\"ta:paka\",\"Down\",\"38\",\"3\",\"19\",\"1\",\"P\",\"J\",\"67\"
\"\",\"\",\"approach-retreat\",\"216\",\"1528245\",\"0.0-216.0\",\"\",\"\",\"1-2\",\"4789\",\"39\",\"1\",\"Testing\",\"Stims/Figures/144-C-30-3.bmp\",\"na:la:la\",\"Right\",\"39\",\"3\",\"20\",\"1\",\"S\",\"J\",\"68\"
\"\",\"\",\"approach-retreat\",\"217\",\"1534992\",\"0.0-217.0\",\"\",\"\",\"1-2\",\"5244\",\"39\",\"1\",\"Testing\",\"Stims/Figures/86-C-30-1.bmp\",\"na:la:la\",\"Right\",\"39\",\"3\",\"21\",\"1\",\"S\",\"J\",\"69\"
\"\",\"\",\"approach-retreat\",\"218\",\"1540617\",\"0.0-218.0\",\"\",\"\",\"1-2\",\"4122\",\"38\",\"1\",\"Testing\",\"Stims/Figures/111-J-10-3.bmp\",\"ta:paka\",\"Down\",\"38\",\"3\",\"22\",\"1\",\"P\",\"J\",\"70\"
\"\",\"\",\"approach-retreat\",\"219\",\"1546173\",\"0.0-219.0\",\"\",\"\",\"1-2\",\"4053\",\"40\",\"1\",\"Testing\",\"Stims/Figures/19-J-10-4.bmp\",\"ta:paka\",\"Up\",\"40\",\"3\",\"23\",\"1\",\"P\",\"J\",\"71\"
\"\",\"\",\"approach-retreat\",\"220\",\"1551733\",\"0.0-220.0\",\"\",\"\",\"1-2\",\"4056\",\"39\",\"0\",\"Testing\",\"Stims/Figures/74-J-10-4.bmp\",\"ta:paka\",\"Right\",\"37\",\"3\",\"24\",\"1\",\"P\",\"J\",\"72\"
\"\",\"\",\"approach-retreat\",\"221\",\"1557327\",\"0.0-221.0\",\"\",\"\",\"1-2\",\"4090\",\"37\",\"1\",\"Testing\",\"Stims/Figures/93-J-0-1.bmp\",\"ta:paka\",\"Right\",\"37\",\"4\",\"1\",\"1\",\"P\",\"J\",\"73\"
\"\",\"\",\"approach-retreat\",\"222\",\"1563112\",\"0.0-222.0\",\"\",\"\",\"1-2\",\"4279\",\"38\",\"1\",\"Testing\",\"Stims/Figures/86-J-0-1.bmp\",\"ta:paka\",\"Down\",\"38\",\"4\",\"2\",\"1\",\"P\",\"J\",\"74\"
\"\",\"\",\"approach-retreat\",\"223\",\"1568821\",\"0.0-223.0\",\"\",\"\",\"1-2\",\"4206\",\"40\",\"1\",\"Testing\",\"Stims/Figures/93-C-30-1.bmp\",\"na:la:la\",\"Down\",\"40\",\"4\",\"3\",\"1\",\"S\",\"J\",\"75\"
\"\",\"\",\"approach-retreat\",\"224\",\"1576518\",\"0.0-224.0\",\"\",\"\",\"1-2\",\"6193\",\"38\",\"0\",\"Testing\",\"Stims/Figures/144-J-10-3.bmp\",\"ta:paka\",\"Up\",\"40\",\"4\",\"4\",\"1\",\"P\",\"J\",\"76\"
\"\",\"\",\"approach-retreat\",\"225\",\"1583164\",\"0.0-225.0\",\"\",\"\",\"1-2\",\"5142\",\"37\",\"0\",\"Testing\",\"Stims/Figures/74-J-10-4.bmp\",\"ta:paka\",\"Left\",\"39\",\"4\",\"5\",\"1\",\"P\",\"J\",\"77\"
\"\",\"\",\"approach-retreat\",\"226\",\"1589664\",\"0.0-226.0\",\"\",\"\",\"1-2\",\"4996\",\"37\",\"1\",\"Testing\",\"Stims/Figures/118-C-20-2.bmp\",\"na:la:la\",\"Left\",\"37\",\"4\",\"6\",\"1\",\"S\",\"J\",\"78\"
\"\",\"\",\"approach-retreat\",\"227\",\"1595285\",\"0.0-227.0\",\"\",\"\",\"1-2\",\"4117\",\"37\",\"1\",\"Testing\",\"Stims/Figures/111-C-30-3.bmp\",\"na:la:la\",\"Left\",\"37\",\"4\",\"7\",\"1\",\"S\",\"J\",\"79\"
\"\",\"\",\"approach-retreat\",\"228\",\"1601517\",\"0.0-228.0\",\"\",\"\",\"1-2\",\"4728\",\"38\",\"1\",\"Testing\",\"Stims/Figures/100-C-30-3.bmp\",\"na:la:la\",\"Up\",\"38\",\"4\",\"8\",\"1\",\"S\",\"J\",\"80\"
\"\",\"\",\"approach-retreat\",\"229\",\"1607560\",\"0.0-229.0\",\"\",\"\",\"1-2\",\"4537\",\"40\",\"1\",\"Testing\",\"Stims/Figures/7-J-10-4.bmp\",\"ta:paka\",\"Up\",\"40\",\"4\",\"9\",\"1\",\"P\",\"J\",\"81\"
\"\",\"\",\"approach-retreat\",\"230\",\"1613219\",\"0.0-230.0\",\"\",\"\",\"1-2\",\"4156\",\"38\",\"1\",\"Testing\",\"Stims/Figures/94-J-0-2.bmp\",\"ta:paka\",\"Down\",\"38\",\"4\",\"10\",\"1\",\"P\",\"J\",\"82\"
\"\",\"\",\"approach-retreat\",\"231\",\"1618930\",\"0.0-231.0\",\"\",\"\",\"1-2\",\"4208\",\"39\",\"1\",\"Testing\",\"Stims/Figures/86-C-30-1.bmp\",\"na:la:la\",\"Right\",\"39\",\"4\",\"11\",\"1\",\"S\",\"J\",\"83\"
\"\",\"\",\"approach-retreat\",\"232\",\"1624585\",\"0.0-232.0\",\"\",\"\",\"1-2\",\"4151\",\"38\",\"1\",\"Testing\",\"Stims/Figures/7-C-20-4.bmp\",\"na:la:la\",\"Up\",\"38\",\"4\",\"12\",\"1\",\"S\",\"J\",\"84\"
\"\",\"\",\"approach-retreat\",\"233\",\"1630229\",\"0.0-233.0\",\"\",\"\",\"1-2\",\"4139\",\"37\",\"1\",\"Testing\",\"Stims/Figures/94-C-20-2.bmp\",\"na:la:la\",\"Left\",\"37\",\"4\",\"13\",\"1\",\"S\",\"J\",\"85\"
\"\",\"\",\"approach-retreat\",\"234\",\"1636262\",\"0.0-234.0\",\"\",\"\",\"1-2\",\"4529\",\"39\",\"0\",\"Testing\",\"Stims/Figures/100-J-10-3.bmp\",\"ta:paka\",\"Right\",\"37\",\"4\",\"14\",\"1\",\"P\",\"J\",\"86\"
\"\",\"\",\"approach-retreat\",\"235\",\"1642109\",\"0.0-235.0\",\"\",\"\",\"1-2\",\"4340\",\"39\",\"1\",\"Testing\",\"Stims/Figures/118-J-0-2.bmp\",\"ta:paka\",\"Left\",\"39\",\"4\",\"15\",\"1\",\"P\",\"J\",\"87\"
\"\",\"\",\"approach-retreat\",\"236\",\"1648216\",\"0.0-236.0\",\"\",\"\",\"1-2\",\"4602\",\"40\",\"1\",\"Testing\",\"Stims/Figures/144-C-30-3.bmp\",\"na:la:la\",\"Down\",\"40\",\"4\",\"16\",\"1\",\"S\",\"J\",\"88\"
\"\",\"\",\"approach-retreat\",\"237\",\"1653749\",\"0.0-237.0\",\"\",\"\",\"1-2\",\"4029\",\"37\",\"1\",\"Testing\",\"Stims/Figures/19-J-10-4.bmp\",\"ta:paka\",\"Right\",\"37\",\"4\",\"17\",\"1\",\"P\",\"J\",\"89\"
\"\",\"\",\"approach-retreat\",\"238\",\"1659309\",\"0.0-238.0\",\"\",\"\",\"1-2\",\"4056\",\"37\",\"1\",\"Testing\",\"Stims/Figures/111-J-10-3.bmp\",\"ta:paka\",\"Right\",\"37\",\"4\",\"18\",\"1\",\"P\",\"J\",\"90\"
\"\",\"\",\"approach-retreat\",\"239\",\"1665282\",\"0.0-239.0\",\"\",\"\",\"1-2\",\"4468\",\"39\",\"1\",\"Testing\",\"Stims/Figures/74-C-20-4.bmp\",\"na:la:la\",\"Right\",\"39\",\"4\",\"19\",\"1\",\"S\",\"J\",\"91\"
\"\",\"\",\"approach-retreat\",\"240\",\"1671976\",\"0.0-240.0\",\"\",\"\",\"1-2\",\"5190\",\"38\",\"1\",\"Testing\",\"Stims/Figures/139-C-20-2.bmp\",\"na:la:la\",\"Up\",\"38\",\"4\",\"20\",\"1\",\"S\",\"J\",\"92\"
\"\",\"\",\"approach-retreat\",\"241\",\"1678270\",\"0.0-241.0\",\"\",\"\",\"1-2\",\"4790\",\"38\",\"1\",\"Testing\",\"Stims/Figures/139-J-0-2.bmp\",\"ta:paka\",\"Down\",\"38\",\"4\",\"21\",\"1\",\"P\",\"J\",\"93\"
\"\",\"\",\"approach-retreat\",\"242\",\"1683792\",\"0.0-242.0\",\"\",\"\",\"1-2\",\"4017\",\"37\",\"1\",\"Testing\",\"Stims/Figures/19-C-20-4.bmp\",\"na:la:la\",\"Left\",\"37\",\"4\",\"22\",\"1\",\"S\",\"J\",\"94\"
\"\",\"\",\"approach-retreat\",\"243\",\"1689536\",\"0.0-243.0\",\"\",\"\",\"1-2\",\"4240\",\"38\",\"1\",\"Testing\",\"Stims/Figures/71-J-0-1.bmp\",\"ta:paka\",\"Down\",\"38\",\"4\",\"23\",\"1\",\"P\",\"J\",\"95\"
\"\",\"\",\"approach-retreat\",\"244\",\"1695060\",\"0.0-244.0\",\"\",\"\",\"1-2\",\"4020\",\"38\",\"1\",\"Testing\",\"Stims/Figures/71-C-30-1.bmp\",\"na:la:la\",\"Up\",\"38\",\"4\",\"24\",\"1\",\"S\",\"J\",\"96\"
\"19836\",\"\",\"survey-text\",\"245\",\"1714901\",\"0.0-245.0\",\"\",\"{\"\"Q0\"\":\"\"PS160040\"\"}\",\"\",\"\",\"\",\"\",\"\",\"\",\"\",\"\",\"\",\"\",\"\",\"\",\"\",\"\",\"\"
