\"rt\",\"key_press\",\"trial_type\",\"trial_index\",\"time_elapsed\",\"internal_node_id\",\"view_history\",\"responses\",\"Id\",\"Rt\",\"ResKeyCode\",\"ResCorr\",\"TrialType2\",\"Image\",\"Label\",\"Location\",\"CorrectResponse\",\"Block\",\"BlockTrial\",\"Condition\",\"LabelType\",\"Subcondition\",\"trialNum\"
\"5051\",\"32\",\"text\",\"0\",\"5055\",\"0.0-0.0-0.0\",\"\",\"\",\"\",\"\",\"\",\"\",\"\",\"\",\"\",\"\",\"\",\"\",\"\",\"\",\"\",\"\",\"\"
\"114283\",\"\",\"instructions\",\"1\",\"119340\",\"0.0-1.0\",\"[{\"\"page_index\"\":0,\"\"viewing_time\"\":114281}]\",\"\",\"\",\"\",\"\",\"\",\"\",\"\",\"\",\"\",\"\",\"\",\"\",\"\",\"\",\"\",\"\"
\"18998\",\"\",\"survey-multi-choice\",\"2\",\"138376\",\"0.0-2.0\",\"\",\"{\"\"Q0\"\":\"\"Da\"\",\"\"Q1\"\":\"\"Da\"\",\"\"Q2\"\":\"\"Da\"\",\"\"Q3\"\":\"\"Da\"\",\"\"Q4\"\":\"\"Da\"\",\"\"Q5\"\":\"\"Da\"\"}\",\"\",\"\",\"\",\"\",\"\",\"\",\"\",\"\",\"\",\"\",\"\",\"\",\"\",\"\",\"\"
\"\",\"\",\"bio\",\"3\",\"147131\",\"0.0-3.0\",\"\",\"{\"\"age\"\":\"\"20\"\",\"\"gender\"\":\"\"f\"\",\"\"specify\"\":\"\"\"\"}\",\"\",\"\",\"\",\"\",\"\",\"\",\"\",\"\",\"\",\"\",\"\",\"\",\"\",\"\",\"\"
\"\",\"\",\"approach-retreat\",\"4\",\"156424\",\"0.0-4.0\",\"\",\"\",\"3-1\",\"7786\",\"40\",\"1\",\"Training\",\"Stims/Figures/7-J-10-4.bmp\",\"va:fa:va\",\"Down\",\"40\",\"1\",\"1\",\"6A\",\"C1\",\"C\",\"1\"
\"\",\"\",\"approach-retreat\",\"5\",\"163033\",\"0.0-5.0\",\"\",\"\",\"3-1\",\"5098\",\"39\",\"0\",\"Training\",\"Stims/Figures/139-C-20-2.bmp\",\"sasa:za\",\"Right\",\"37\",\"1\",\"2\",\"6A\",\"C2\",\"C\",\"2\"
\"\",\"\",\"approach-retreat\",\"6\",\"168950\",\"0.0-6.0\",\"\",\"\",\"3-1\",\"4409\",\"39\",\"0\",\"Training\",\"Stims/Figures/144-C-30-3.bmp\",\"sahaha\",\"Right\",\"37\",\"1\",\"3\",\"6A\",\"C2\",\"C\",\"3\"
\"\",\"\",\"approach-retreat\",\"7\",\"175664\",\"0.0-7.0\",\"\",\"\",\"3-1\",\"5205\",\"40\",\"1\",\"Training\",\"Stims/Figures/74-J-10-4.bmp\",\"fafa:sha\",\"Down\",\"40\",\"1\",\"4\",\"6A\",\"C1\",\"C\",\"4\"
\"\",\"\",\"approach-retreat\",\"8\",\"183175\",\"0.0-8.0\",\"\",\"\",\"3-1\",\"6007\",\"38\",\"1\",\"Training\",\"Stims/Figures/57-C-30-1.bmp\",\"sa:haza\",\"Down\",\"38\",\"1\",\"5\",\"6A\",\"C2\",\"C\",\"5\"
\"\",\"\",\"approach-retreat\",\"9\",\"189365\",\"0.0-9.0\",\"\",\"\",\"3-1\",\"4681\",\"37\",\"0\",\"Training\",\"Stims/Figures/57-J-0-1.bmp\",\"vashasha\",\"Right\",\"39\",\"1\",\"6\",\"6A\",\"C1\",\"C\",\"6\"
\"\",\"\",\"approach-retreat\",\"10\",\"195832\",\"0.0-10.0\",\"\",\"\",\"3-1\",\"4954\",\"40\",\"0\",\"Training\",\"Stims/Figures/84-J-0-2.bmp\",\"fasha:sha\",\"Up\",\"38\",\"1\",\"7\",\"6A\",\"C1\",\"C\",\"7\"
\"\",\"\",\"approach-retreat\",\"11\",\"202594\",\"0.0-11.0\",\"\",\"\",\"3-1\",\"5256\",\"37\",\"1\",\"Training\",\"Stims/Figures/86-C-30-1.bmp\",\"za:ha:za\",\"Right\",\"37\",\"1\",\"8\",\"6A\",\"C2\",\"C\",\"8\"
\"\",\"\",\"approach-retreat\",\"12\",\"208428\",\"0.0-12.0\",\"\",\"\",\"3-1\",\"4319\",\"39\",\"0\",\"Training\",\"Stims/Figures/44-J-10-3.bmp\",\"fa:fa:sha\",\"Left\",\"37\",\"1\",\"9\",\"6A\",\"C1\",\"C\",\"9\"
\"\",\"\",\"approach-retreat\",\"13\",\"214328\",\"0.0-13.0\",\"\",\"\",\"3-1\",\"4390\",\"40\",\"1\",\"Training\",\"Stims/Figures/84-C-20-2.bmp\",\"za:sa:za\",\"Up\",\"40\",\"1\",\"10\",\"6A\",\"C2\",\"C\",\"10\"
\"\",\"\",\"approach-retreat\",\"14\",\"220593\",\"0.0-14.0\",\"\",\"\",\"3-1\",\"4754\",\"40\",\"1\",\"Training\",\"Stims/Figures/74-C-20-4.bmp\",\"zaha:za\",\"Up\",\"40\",\"1\",\"11\",\"6A\",\"C2\",\"C\",\"11\"
\"\",\"\",\"approach-retreat\",\"15\",\"226479\",\"0.0-15.0\",\"\",\"\",\"3-1\",\"4375\",\"39\",\"1\",\"Training\",\"Stims/Figures/44-C-30-3.bmp\",\"za:haza\",\"Left\",\"39\",\"1\",\"12\",\"6A\",\"C2\",\"C\",\"12\"
\"\",\"\",\"approach-retreat\",\"16\",\"232558\",\"0.0-16.0\",\"\",\"\",\"3-1\",\"4568\",\"39\",\"1\",\"Training\",\"Stims/Figures/7-C-20-4.bmp\",\"zasaza\",\"Left\",\"39\",\"1\",\"13\",\"6A\",\"C2\",\"C\",\"13\"
\"\",\"\",\"approach-retreat\",\"17\",\"238995\",\"0.0-17.0\",\"\",\"\",\"3-1\",\"4928\",\"40\",\"1\",\"Training\",\"Stims/Figures/144-J-10-3.bmp\",\"vafasha\",\"Down\",\"40\",\"1\",\"14\",\"6A\",\"C1\",\"C\",\"14\"
\"\",\"\",\"approach-retreat\",\"18\",\"245754\",\"0.0-18.0\",\"\",\"\",\"3-1\",\"5248\",\"38\",\"1\",\"Training\",\"Stims/Figures/139-J-0-2.bmp\",\"fa:shava\",\"Up\",\"38\",\"1\",\"15\",\"6A\",\"C1\",\"C\",\"15\"
\"\",\"\",\"approach-retreat\",\"19\",\"251550\",\"0.0-19.0\",\"\",\"\",\"3-1\",\"4287\",\"37\",\"1\",\"Training\",\"Stims/Figures/86-J-0-1.bmp\",\"fa:fa:va\",\"Left\",\"37\",\"1\",\"16\",\"6A\",\"C1\",\"C\",\"16\"
\"\",\"\",\"approach-retreat\",\"20\",\"257727\",\"0.0-20.0\",\"\",\"\",\"3-1\",\"4671\",\"37\",\"1\",\"Training\",\"Stims/Figures/74-C-20-4.bmp\",\"zaha:za\",\"Right\",\"37\",\"2\",\"1\",\"6A\",\"C2\",\"C\",\"17\"
\"\",\"\",\"approach-retreat\",\"21\",\"263517\",\"0.0-21.0\",\"\",\"\",\"3-1\",\"4280\",\"37\",\"0\",\"Training\",\"Stims/Figures/7-J-10-4.bmp\",\"va:fa:va\",\"Right\",\"39\",\"2\",\"2\",\"6A\",\"C1\",\"C\",\"18\"
\"\",\"\",\"approach-retreat\",\"22\",\"269933\",\"0.0-22.0\",\"\",\"\",\"3-1\",\"4908\",\"37\",\"1\",\"Training\",\"Stims/Figures/84-J-0-2.bmp\",\"fasha:sha\",\"Left\",\"37\",\"2\",\"3\",\"6A\",\"C1\",\"C\",\"19\"
\"\",\"\",\"approach-retreat\",\"23\",\"276104\",\"0.0-23.0\",\"\",\"\",\"3-1\",\"4661\",\"38\",\"1\",\"Training\",\"Stims/Figures/44-J-10-3.bmp\",\"fa:fa:sha\",\"Up\",\"38\",\"2\",\"4\",\"6A\",\"C1\",\"C\",\"20\"
\"\",\"\",\"approach-retreat\",\"24\",\"282177\",\"0.0-24.0\",\"\",\"\",\"3-1\",\"4561\",\"38\",\"0\",\"Training\",\"Stims/Figures/74-J-10-4.bmp\",\"fafa:sha\",\"Down\",\"40\",\"2\",\"5\",\"6A\",\"C1\",\"C\",\"21\"
\"\",\"\",\"approach-retreat\",\"25\",\"288269\",\"0.0-25.0\",\"\",\"\",\"3-1\",\"4583\",\"40\",\"1\",\"Training\",\"Stims/Figures/84-C-20-2.bmp\",\"za:sa:za\",\"Up\",\"40\",\"2\",\"6\",\"6A\",\"C2\",\"C\",\"22\"
\"\",\"\",\"approach-retreat\",\"26\",\"295229\",\"0.0-26.0\",\"\",\"\",\"3-1\",\"5448\",\"40\",\"1\",\"Training\",\"Stims/Figures/144-J-10-3.bmp\",\"vafasha\",\"Down\",\"40\",\"2\",\"7\",\"6A\",\"C1\",\"C\",\"23\"
\"\",\"\",\"approach-retreat\",\"27\",\"301305\",\"0.0-27.0\",\"\",\"\",\"3-1\",\"4566\",\"39\",\"1\",\"Training\",\"Stims/Figures/86-J-0-1.bmp\",\"fa:fa:va\",\"Right\",\"39\",\"2\",\"8\",\"6A\",\"C1\",\"C\",\"24\"
\"\",\"\",\"approach-retreat\",\"28\",\"307065\",\"0.0-28.0\",\"\",\"\",\"3-1\",\"4250\",\"38\",\"0\",\"Training\",\"Stims/Figures/86-C-30-1.bmp\",\"za:ha:za\",\"Up\",\"40\",\"2\",\"9\",\"6A\",\"C2\",\"C\",\"25\"
\"\",\"\",\"approach-retreat\",\"29\",\"312623\",\"0.0-29.0\",\"\",\"\",\"3-1\",\"4047\",\"40\",\"1\",\"Training\",\"Stims/Figures/144-C-30-3.bmp\",\"sahaha\",\"Up\",\"40\",\"2\",\"10\",\"6A\",\"C2\",\"C\",\"26\"
\"\",\"\",\"approach-retreat\",\"30\",\"320341\",\"0.0-30.0\",\"\",\"\",\"3-1\",\"6208\",\"37\",\"1\",\"Training\",\"Stims/Figures/139-J-0-2.bmp\",\"fa:shava\",\"Left\",\"37\",\"2\",\"11\",\"6A\",\"C1\",\"C\",\"27\"
\"\",\"\",\"approach-retreat\",\"31\",\"326226\",\"0.0-31.0\",\"\",\"\",\"3-1\",\"4376\",\"37\",\"1\",\"Training\",\"Stims/Figures/57-J-0-1.bmp\",\"vashasha\",\"Left\",\"37\",\"2\",\"12\",\"6A\",\"C1\",\"C\",\"28\"
\"\",\"\",\"approach-retreat\",\"32\",\"332138\",\"0.0-32.0\",\"\",\"\",\"3-1\",\"4400\",\"39\",\"0\",\"Training\",\"Stims/Figures/139-C-20-2.bmp\",\"sasa:za\",\"Right\",\"37\",\"2\",\"13\",\"6A\",\"C2\",\"C\",\"29\"
\"\",\"\",\"approach-retreat\",\"33\",\"339015\",\"0.0-33.0\",\"\",\"\",\"3-1\",\"5368\",\"40\",\"0\",\"Training\",\"Stims/Figures/57-C-30-1.bmp\",\"sa:haza\",\"Down\",\"38\",\"2\",\"14\",\"6A\",\"C2\",\"C\",\"30\"
\"\",\"\",\"approach-retreat\",\"34\",\"344649\",\"0.0-34.0\",\"\",\"\",\"3-1\",\"4124\",\"38\",\"1\",\"Training\",\"Stims/Figures/7-C-20-4.bmp\",\"zasaza\",\"Down\",\"38\",\"2\",\"15\",\"6A\",\"C2\",\"C\",\"31\"
\"\",\"\",\"approach-retreat\",\"35\",\"350447\",\"0.0-35.0\",\"\",\"\",\"3-1\",\"4287\",\"37\",\"0\",\"Training\",\"Stims/Figures/44-C-30-3.bmp\",\"za:haza\",\"Left\",\"39\",\"2\",\"16\",\"6A\",\"C2\",\"C\",\"32\"
\"\",\"\",\"approach-retreat\",\"36\",\"356223\",\"0.0-36.0\",\"\",\"\",\"3-1\",\"4265\",\"38\",\"1\",\"Training\",\"Stims/Figures/84-J-0-2.bmp\",\"fasha:sha\",\"Up\",\"38\",\"3\",\"1\",\"6A\",\"C1\",\"C\",\"33\"
\"\",\"\",\"approach-retreat\",\"37\",\"361943\",\"0.0-37.0\",\"\",\"\",\"3-1\",\"4207\",\"37\",\"0\",\"Training\",\"Stims/Figures/86-C-30-1.bmp\",\"za:ha:za\",\"Left\",\"39\",\"3\",\"2\",\"6A\",\"C2\",\"C\",\"34\"
\"\",\"\",\"approach-retreat\",\"38\",\"367748\",\"0.0-38.0\",\"\",\"\",\"3-1\",\"4296\",\"38\",\"1\",\"Training\",\"Stims/Figures/57-J-0-1.bmp\",\"vashasha\",\"Up\",\"38\",\"3\",\"3\",\"6A\",\"C1\",\"C\",\"35\"
\"\",\"\",\"approach-retreat\",\"39\",\"374005\",\"0.0-39.0\",\"\",\"\",\"3-1\",\"4746\",\"39\",\"1\",\"Training\",\"Stims/Figures/144-J-10-3.bmp\",\"vafasha\",\"Right\",\"39\",\"3\",\"4\",\"6A\",\"C1\",\"C\",\"36\"
\"\",\"\",\"approach-retreat\",\"40\",\"380978\",\"0.0-40.0\",\"\",\"\",\"3-1\",\"5460\",\"40\",\"1\",\"Training\",\"Stims/Figures/139-J-0-2.bmp\",\"fa:shava\",\"Down\",\"40\",\"3\",\"5\",\"6A\",\"C1\",\"C\",\"37\"
\"\",\"\",\"approach-retreat\",\"41\",\"386731\",\"0.0-41.0\",\"\",\"\",\"3-1\",\"4245\",\"39\",\"0\",\"Training\",\"Stims/Figures/57-C-30-1.bmp\",\"sa:haza\",\"Right\",\"37\",\"3\",\"6\",\"6A\",\"C2\",\"C\",\"38\"
\"\",\"\",\"approach-retreat\",\"42\",\"395107\",\"0.0-42.0\",\"\",\"\",\"3-1\",\"6864\",\"39\",\"0\",\"Training\",\"Stims/Figures/74-J-10-4.bmp\",\"fafa:sha\",\"Left\",\"37\",\"3\",\"7\",\"6A\",\"C1\",\"C\",\"39\"
\"\",\"\",\"approach-retreat\",\"43\",\"401551\",\"0.0-43.0\",\"\",\"\",\"3-1\",\"4935\",\"38\",\"1\",\"Training\",\"Stims/Figures/74-C-20-4.bmp\",\"zaha:za\",\"Down\",\"38\",\"3\",\"8\",\"6A\",\"C2\",\"C\",\"40\"
\"\",\"\",\"approach-retreat\",\"44\",\"407778\",\"0.0-44.0\",\"\",\"\",\"3-1\",\"4718\",\"39\",\"0\",\"Training\",\"Stims/Figures/44-C-30-3.bmp\",\"za:haza\",\"Right\",\"37\",\"3\",\"9\",\"6A\",\"C2\",\"C\",\"41\"
\"\",\"\",\"approach-retreat\",\"45\",\"413563\",\"0.0-45.0\",\"\",\"\",\"3-1\",\"4273\",\"39\",\"1\",\"Training\",\"Stims/Figures/139-C-20-2.bmp\",\"sasa:za\",\"Left\",\"39\",\"3\",\"10\",\"6A\",\"C2\",\"C\",\"42\"
\"\",\"\",\"approach-retreat\",\"46\",\"419523\",\"0.0-46.0\",\"\",\"\",\"3-1\",\"4451\",\"38\",\"1\",\"Training\",\"Stims/Figures/84-C-20-2.bmp\",\"za:sa:za\",\"Down\",\"38\",\"3\",\"11\",\"6A\",\"C2\",\"C\",\"43\"
\"\",\"\",\"approach-retreat\",\"47\",\"425296\",\"0.0-47.0\",\"\",\"\",\"3-1\",\"4262\",\"39\",\"1\",\"Training\",\"Stims/Figures/7-J-10-4.bmp\",\"va:fa:va\",\"Right\",\"39\",\"3\",\"12\",\"6A\",\"C1\",\"C\",\"44\"
\"\",\"\",\"approach-retreat\",\"48\",\"431210\",\"0.0-48.0\",\"\",\"\",\"3-1\",\"4403\",\"38\",\"1\",\"Training\",\"Stims/Figures/44-J-10-3.bmp\",\"fa:fa:sha\",\"Up\",\"38\",\"3\",\"13\",\"6A\",\"C1\",\"C\",\"45\"
\"\",\"\",\"approach-retreat\",\"49\",\"437795\",\"0.0-49.0\",\"\",\"\",\"3-1\",\"5076\",\"40\",\"1\",\"Training\",\"Stims/Figures/144-C-30-3.bmp\",\"sahaha\",\"Up\",\"40\",\"3\",\"14\",\"6A\",\"C2\",\"C\",\"46\"
\"\",\"\",\"approach-retreat\",\"50\",\"443746\",\"0.0-50.0\",\"\",\"\",\"3-1\",\"4443\",\"37\",\"1\",\"Training\",\"Stims/Figures/86-J-0-1.bmp\",\"fa:fa:va\",\"Left\",\"37\",\"3\",\"15\",\"6A\",\"C1\",\"C\",\"47\"
\"\",\"\",\"approach-retreat\",\"51\",\"450696\",\"0.0-51.0\",\"\",\"\",\"3-1\",\"5438\",\"40\",\"0\",\"Training\",\"Stims/Figures/7-C-20-4.bmp\",\"zasaza\",\"Down\",\"38\",\"3\",\"16\",\"6A\",\"C2\",\"C\",\"48\"
\"\",\"\",\"approach-retreat\",\"52\",\"456478\",\"0.0-52.0\",\"\",\"\",\"3-1\",\"4273\",\"38\",\"1\",\"Training\",\"Stims/Figures/57-J-0-1.bmp\",\"vashasha\",\"Up\",\"38\",\"4\",\"1\",\"6A\",\"C1\",\"C\",\"49\"
\"\",\"\",\"approach-retreat\",\"53\",\"464961\",\"0.0-53.0\",\"\",\"\",\"3-1\",\"6978\",\"40\",\"0\",\"Training\",\"Stims/Figures/84-C-20-2.bmp\",\"za:sa:za\",\"Down\",\"38\",\"4\",\"2\",\"6A\",\"C2\",\"C\",\"50\"
\"\",\"\",\"approach-retreat\",\"54\",\"470568\",\"0.0-54.0\",\"\",\"\",\"3-1\",\"4098\",\"38\",\"1\",\"Training\",\"Stims/Figures/74-J-10-4.bmp\",\"fafa:sha\",\"Up\",\"38\",\"4\",\"3\",\"6A\",\"C1\",\"C\",\"51\"
\"\",\"\",\"approach-retreat\",\"55\",\"476645\",\"0.0-55.0\",\"\",\"\",\"3-1\",\"4566\",\"39\",\"1\",\"Training\",\"Stims/Figures/74-C-20-4.bmp\",\"zaha:za\",\"Left\",\"39\",\"4\",\"4\",\"6A\",\"C2\",\"C\",\"52\"
\"\",\"\",\"approach-retreat\",\"56\",\"482494\",\"0.0-56.0\",\"\",\"\",\"3-1\",\"4337\",\"40\",\"0\",\"Training\",\"Stims/Figures/139-J-0-2.bmp\",\"fa:shava\",\"Up\",\"38\",\"4\",\"5\",\"6A\",\"C1\",\"C\",\"53\"
\"\",\"\",\"approach-retreat\",\"57\",\"488384\",\"0.0-57.0\",\"\",\"\",\"3-1\",\"4384\",\"39\",\"0\",\"Training\",\"Stims/Figures/86-C-30-1.bmp\",\"za:ha:za\",\"Right\",\"37\",\"4\",\"6\",\"6A\",\"C2\",\"C\",\"54\"
\"\",\"\",\"approach-retreat\",\"58\",\"493917\",\"0.0-58.0\",\"\",\"\",\"3-1\",\"4020\",\"37\",\"0\",\"Training\",\"Stims/Figures/144-C-30-3.bmp\",\"sahaha\",\"Left\",\"39\",\"4\",\"7\",\"6A\",\"C2\",\"C\",\"55\"
\"\",\"\",\"approach-retreat\",\"59\",\"499992\",\"0.0-59.0\",\"\",\"\",\"3-1\",\"4566\",\"38\",\"1\",\"Training\",\"Stims/Figures/57-C-30-1.bmp\",\"sa:haza\",\"Down\",\"38\",\"4\",\"8\",\"6A\",\"C2\",\"C\",\"56\"
\"\",\"\",\"approach-retreat\",\"60\",\"506191\",\"0.0-60.0\",\"\",\"\",\"3-1\",\"4690\",\"40\",\"0\",\"Training\",\"Stims/Figures/7-J-10-4.bmp\",\"va:fa:va\",\"Up\",\"38\",\"4\",\"9\",\"6A\",\"C1\",\"C\",\"57\"
\"\",\"\",\"approach-retreat\",\"61\",\"512508\",\"0.0-61.0\",\"\",\"\",\"3-1\",\"4807\",\"37\",\"0\",\"Training\",\"Stims/Figures/86-J-0-1.bmp\",\"fa:fa:va\",\"Right\",\"39\",\"4\",\"10\",\"6A\",\"C1\",\"C\",\"58\"
\"\",\"\",\"approach-retreat\",\"62\",\"518361\",\"0.0-62.0\",\"\",\"\",\"3-1\",\"4346\",\"37\",\"0\",\"Training\",\"Stims/Figures/44-C-30-3.bmp\",\"za:haza\",\"Left\",\"39\",\"4\",\"11\",\"6A\",\"C2\",\"C\",\"59\"
\"\",\"\",\"approach-retreat\",\"63\",\"524132\",\"0.0-63.0\",\"\",\"\",\"3-1\",\"4265\",\"38\",\"1\",\"Training\",\"Stims/Figures/139-C-20-2.bmp\",\"sasa:za\",\"Down\",\"38\",\"4\",\"12\",\"6A\",\"C2\",\"C\",\"60\"
\"\",\"\",\"approach-retreat\",\"64\",\"529785\",\"0.0-64.0\",\"\",\"\",\"3-1\",\"4144\",\"39\",\"0\",\"Training\",\"Stims/Figures/7-C-20-4.bmp\",\"zasaza\",\"Right\",\"37\",\"4\",\"13\",\"6A\",\"C2\",\"C\",\"61\"
\"\",\"\",\"approach-retreat\",\"65\",\"535852\",\"0.0-65.0\",\"\",\"\",\"3-1\",\"4555\",\"38\",\"0\",\"Training\",\"Stims/Figures/84-J-0-2.bmp\",\"fasha:sha\",\"Down\",\"40\",\"4\",\"14\",\"6A\",\"C1\",\"C\",\"62\"
\"\",\"\",\"approach-retreat\",\"66\",\"541820\",\"0.0-66.0\",\"\",\"\",\"3-1\",\"4456\",\"37\",\"0\",\"Training\",\"Stims/Figures/44-J-10-3.bmp\",\"fa:fa:sha\",\"Right\",\"39\",\"4\",\"15\",\"6A\",\"C1\",\"C\",\"63\"
\"\",\"\",\"approach-retreat\",\"67\",\"547611\",\"0.0-67.0\",\"\",\"\",\"3-1\",\"4284\",\"37\",\"1\",\"Training\",\"Stims/Figures/144-J-10-3.bmp\",\"vafasha\",\"Left\",\"37\",\"4\",\"16\",\"6A\",\"C1\",\"C\",\"64\"
\"\",\"\",\"approach-retreat\",\"68\",\"553525\",\"0.0-68.0\",\"\",\"\",\"3-1\",\"4405\",\"38\",\"1\",\"Training\",\"Stims/Figures/7-C-20-4.bmp\",\"zasaza\",\"Down\",\"38\",\"5\",\"1\",\"6A\",\"C2\",\"C\",\"65\"
\"\",\"\",\"approach-retreat\",\"69\",\"559419\",\"0.0-69.0\",\"\",\"\",\"3-1\",\"4383\",\"39\",\"0\",\"Training\",\"Stims/Figures/139-J-0-2.bmp\",\"fa:shava\",\"Left\",\"37\",\"5\",\"2\",\"6A\",\"C1\",\"C\",\"66\"
\"\",\"\",\"approach-retreat\",\"70\",\"565321\",\"0.0-70.0\",\"\",\"\",\"3-1\",\"4393\",\"39\",\"1\",\"Training\",\"Stims/Figures/86-C-30-1.bmp\",\"za:ha:za\",\"Left\",\"39\",\"5\",\"3\",\"6A\",\"C2\",\"C\",\"67\"
\"\",\"\",\"approach-retreat\",\"71\",\"571320\",\"0.0-71.0\",\"\",\"\",\"3-1\",\"4492\",\"40\",\"1\",\"Training\",\"Stims/Figures/139-C-20-2.bmp\",\"sasa:za\",\"Up\",\"40\",\"5\",\"4\",\"6A\",\"C2\",\"C\",\"68\"
\"\",\"\",\"approach-retreat\",\"72\",\"577296\",\"0.0-72.0\",\"\",\"\",\"3-1\",\"4464\",\"38\",\"1\",\"Training\",\"Stims/Figures/57-C-30-1.bmp\",\"sa:haza\",\"Down\",\"38\",\"5\",\"5\",\"6A\",\"C2\",\"C\",\"69\"
\"\",\"\",\"approach-retreat\",\"73\",\"583126\",\"0.0-73.0\",\"\",\"\",\"3-1\",\"4327\",\"40\",\"0\",\"Training\",\"Stims/Figures/84-J-0-2.bmp\",\"fasha:sha\",\"Up\",\"38\",\"5\",\"6\",\"6A\",\"C1\",\"C\",\"70\"
\"\",\"\",\"approach-retreat\",\"74\",\"588776\",\"0.0-74.0\",\"\",\"\",\"3-1\",\"4138\",\"39\",\"0\",\"Training\",\"Stims/Figures/84-C-20-2.bmp\",\"za:sa:za\",\"Right\",\"37\",\"5\",\"7\",\"6A\",\"C2\",\"C\",\"71\"
\"\",\"\",\"approach-retreat\",\"75\",\"594878\",\"0.0-75.0\",\"\",\"\",\"3-1\",\"4591\",\"40\",\"1\",\"Training\",\"Stims/Figures/74-C-20-4.bmp\",\"zaha:za\",\"Up\",\"40\",\"5\",\"8\",\"6A\",\"C2\",\"C\",\"72\"
\"\",\"\",\"approach-retreat\",\"76\",\"602318\",\"0.0-76.0\",\"\",\"\",\"3-1\",\"5931\",\"38\",\"0\",\"Training\",\"Stims/Figures/7-J-10-4.bmp\",\"va:fa:va\",\"Down\",\"40\",\"5\",\"9\",\"6A\",\"C1\",\"C\",\"73\"
\"\",\"\",\"approach-retreat\",\"77\",\"607891\",\"0.0-77.0\",\"\",\"\",\"3-1\",\"4065\",\"38\",\"1\",\"Training\",\"Stims/Figures/44-C-30-3.bmp\",\"za:haza\",\"Down\",\"38\",\"5\",\"10\",\"6A\",\"C2\",\"C\",\"74\"
\"\",\"\",\"approach-retreat\",\"78\",\"613607\",\"0.0-78.0\",\"\",\"\",\"3-1\",\"4203\",\"39\",\"0\",\"Training\",\"Stims/Figures/57-J-0-1.bmp\",\"vashasha\",\"Left\",\"37\",\"5\",\"11\",\"6A\",\"C1\",\"C\",\"75\"
\"\",\"\",\"approach-retreat\",\"79\",\"619237\",\"0.0-79.0\",\"\",\"\",\"3-1\",\"4116\",\"39\",\"1\",\"Training\",\"Stims/Figures/44-J-10-3.bmp\",\"fa:fa:sha\",\"Right\",\"39\",\"5\",\"12\",\"6A\",\"C1\",\"C\",\"76\"
\"\",\"\",\"approach-retreat\",\"80\",\"624772\",\"0.0-80.0\",\"\",\"\",\"3-1\",\"4021\",\"39\",\"0\",\"Training\",\"Stims/Figures/144-C-30-3.bmp\",\"sahaha\",\"Right\",\"37\",\"5\",\"13\",\"6A\",\"C2\",\"C\",\"77\"
\"\",\"\",\"approach-retreat\",\"81\",\"630456\",\"0.0-81.0\",\"\",\"\",\"3-1\",\"4174\",\"39\",\"1\",\"Training\",\"Stims/Figures/144-J-10-3.bmp\",\"vafasha\",\"Right\",\"39\",\"5\",\"14\",\"6A\",\"C1\",\"C\",\"78\"
\"\",\"\",\"approach-retreat\",\"82\",\"636100\",\"0.0-82.0\",\"\",\"\",\"3-1\",\"4139\",\"38\",\"1\",\"Training\",\"Stims/Figures/74-J-10-4.bmp\",\"fafa:sha\",\"Up\",\"38\",\"5\",\"15\",\"6A\",\"C1\",\"C\",\"79\"
\"\",\"\",\"approach-retreat\",\"83\",\"641969\",\"0.0-83.0\",\"\",\"\",\"3-1\",\"4356\",\"39\",\"0\",\"Training\",\"Stims/Figures/86-J-0-1.bmp\",\"fa:fa:va\",\"Left\",\"37\",\"5\",\"16\",\"6A\",\"C1\",\"C\",\"80\"
\"\",\"\",\"approach-retreat\",\"84\",\"648019\",\"0.0-84.0\",\"\",\"\",\"3-1\",\"4538\",\"37\",\"0\",\"Training\",\"Stims/Figures/7-J-10-4.bmp\",\"va:fa:va\",\"Right\",\"39\",\"6\",\"1\",\"6A\",\"C1\",\"C\",\"81\"
\"\",\"\",\"approach-retreat\",\"85\",\"654068\",\"0.0-85.0\",\"\",\"\",\"3-1\",\"4542\",\"39\",\"1\",\"Training\",\"Stims/Figures/7-C-20-4.bmp\",\"zasaza\",\"Left\",\"39\",\"6\",\"2\",\"6A\",\"C2\",\"C\",\"82\"
\"\",\"\",\"approach-retreat\",\"86\",\"659651\",\"0.0-86.0\",\"\",\"\",\"3-1\",\"4080\",\"39\",\"0\",\"Training\",\"Stims/Figures/139-J-0-2.bmp\",\"fa:shava\",\"Left\",\"37\",\"6\",\"3\",\"6A\",\"C1\",\"C\",\"83\"
\"\",\"\",\"approach-retreat\",\"87\",\"666118\",\"0.0-87.0\",\"\",\"\",\"3-1\",\"4956\",\"38\",\"1\",\"Training\",\"Stims/Figures/86-C-30-1.bmp\",\"za:ha:za\",\"Down\",\"38\",\"6\",\"4\",\"6A\",\"C2\",\"C\",\"84\"
\"\",\"\",\"approach-retreat\",\"88\",\"671717\",\"0.0-88.0\",\"\",\"\",\"3-1\",\"4092\",\"39\",\"0\",\"Training\",\"Stims/Figures/144-J-10-3.bmp\",\"vafasha\",\"Left\",\"37\",\"6\",\"5\",\"6A\",\"C1\",\"C\",\"85\"
\"\",\"\",\"approach-retreat\",\"89\",\"677227\",\"0.0-89.0\",\"\",\"\",\"3-1\",\"3999\",\"39\",\"0\",\"Training\",\"Stims/Figures/44-C-30-3.bmp\",\"za:haza\",\"Right\",\"37\",\"6\",\"6\",\"6A\",\"C2\",\"C\",\"86\"
\"\",\"\",\"approach-retreat\",\"90\",\"683378\",\"0.0-90.0\",\"\",\"\",\"3-1\",\"4646\",\"39\",\"1\",\"Training\",\"Stims/Figures/84-C-20-2.bmp\",\"za:sa:za\",\"Left\",\"39\",\"6\",\"7\",\"6A\",\"C2\",\"C\",\"87\"
\"\",\"\",\"approach-retreat\",\"91\",\"689168\",\"0.0-91.0\",\"\",\"\",\"3-1\",\"4285\",\"40\",\"1\",\"Training\",\"Stims/Figures/57-C-30-1.bmp\",\"sa:haza\",\"Up\",\"40\",\"6\",\"8\",\"6A\",\"C2\",\"C\",\"88\"
\"\",\"\",\"approach-retreat\",\"92\",\"694808\",\"0.0-92.0\",\"\",\"\",\"3-1\",\"4134\",\"39\",\"1\",\"Training\",\"Stims/Figures/44-J-10-3.bmp\",\"fa:fa:sha\",\"Right\",\"39\",\"6\",\"9\",\"6A\",\"C1\",\"C\",\"89\"
\"\",\"\",\"approach-retreat\",\"93\",\"701134\",\"0.0-93.0\",\"\",\"\",\"3-1\",\"4816\",\"38\",\"1\",\"Training\",\"Stims/Figures/74-C-20-4.bmp\",\"zaha:za\",\"Down\",\"38\",\"6\",\"10\",\"6A\",\"C2\",\"C\",\"90\"
\"\",\"\",\"approach-retreat\",\"94\",\"707194\",\"0.0-94.0\",\"\",\"\",\"3-1\",\"4552\",\"40\",\"1\",\"Training\",\"Stims/Figures/139-C-20-2.bmp\",\"sasa:za\",\"Up\",\"40\",\"6\",\"11\",\"6A\",\"C2\",\"C\",\"91\"
\"\",\"\",\"approach-retreat\",\"95\",\"712883\",\"0.0-95.0\",\"\",\"\",\"3-1\",\"4177\",\"37\",\"1\",\"Training\",\"Stims/Figures/144-C-30-3.bmp\",\"sahaha\",\"Right\",\"37\",\"6\",\"12\",\"6A\",\"C2\",\"C\",\"92\"
\"\",\"\",\"approach-retreat\",\"96\",\"718835\",\"0.0-96.0\",\"\",\"\",\"3-1\",\"4442\",\"40\",\"0\",\"Training\",\"Stims/Figures/84-J-0-2.bmp\",\"fasha:sha\",\"Up\",\"38\",\"6\",\"13\",\"6A\",\"C1\",\"C\",\"93\"
\"\",\"\",\"approach-retreat\",\"97\",\"724840\",\"0.0-97.0\",\"\",\"\",\"3-1\",\"4495\",\"38\",\"0\",\"Training\",\"Stims/Figures/74-J-10-4.bmp\",\"fafa:sha\",\"Down\",\"40\",\"6\",\"14\",\"6A\",\"C1\",\"C\",\"94\"
\"\",\"\",\"approach-retreat\",\"98\",\"730797\",\"0.0-98.0\",\"\",\"\",\"3-1\",\"4454\",\"38\",\"1\",\"Training\",\"Stims/Figures/57-J-0-1.bmp\",\"vashasha\",\"Up\",\"38\",\"6\",\"15\",\"6A\",\"C1\",\"C\",\"95\"
\"\",\"\",\"approach-retreat\",\"99\",\"736738\",\"0.0-99.0\",\"\",\"\",\"3-1\",\"4431\",\"40\",\"1\",\"Training\",\"Stims/Figures/86-J-0-1.bmp\",\"fa:fa:va\",\"Down\",\"40\",\"6\",\"16\",\"6A\",\"C1\",\"C\",\"96\"
\"\",\"\",\"approach-retreat\",\"100\",\"742779\",\"0.0-100.0\",\"\",\"\",\"3-1\",\"4532\",\"38\",\"0\",\"Training\",\"Stims/Figures/57-C-30-1.bmp\",\"sa:haza\",\"Up\",\"40\",\"7\",\"1\",\"6A\",\"C2\",\"C\",\"97\"
\"\",\"\",\"approach-retreat\",\"101\",\"749084\",\"0.0-101.0\",\"\",\"\",\"3-1\",\"4795\",\"39\",\"0\",\"Training\",\"Stims/Figures/57-J-0-1.bmp\",\"vashasha\",\"Left\",\"37\",\"7\",\"2\",\"6A\",\"C1\",\"C\",\"98\"
\"\",\"\",\"approach-retreat\",\"102\",\"754987\",\"0.0-102.0\",\"\",\"\",\"3-1\",\"4399\",\"38\",\"0\",\"Training\",\"Stims/Figures/7-J-10-4.bmp\",\"va:fa:va\",\"Down\",\"40\",\"7\",\"3\",\"6A\",\"C1\",\"C\",\"99\"
\"\",\"\",\"approach-retreat\",\"103\",\"761584\",\"0.0-103.0\",\"\",\"\",\"3-1\",\"5088\",\"40\",\"0\",\"Training\",\"Stims/Figures/139-J-0-2.bmp\",\"fa:shava\",\"Up\",\"38\",\"7\",\"4\",\"6A\",\"C1\",\"C\",\"100\"
\"\",\"\",\"approach-retreat\",\"104\",\"767368\",\"0.0-104.0\",\"\",\"\",\"3-1\",\"4274\",\"38\",\"0\",\"Training\",\"Stims/Figures/144-C-30-3.bmp\",\"sahaha\",\"Up\",\"40\",\"7\",\"5\",\"6A\",\"C2\",\"C\",\"101\"
\"\",\"\",\"approach-retreat\",\"105\",\"773456\",\"0.0-105.0\",\"\",\"\",\"3-1\",\"4578\",\"37\",\"1\",\"Training\",\"Stims/Figures/74-C-20-4.bmp\",\"zaha:za\",\"Right\",\"37\",\"7\",\"6\",\"6A\",\"C2\",\"C\",\"102\"
\"\",\"\",\"approach-retreat\",\"106\",\"779469\",\"0.0-106.0\",\"\",\"\",\"3-1\",\"4508\",\"40\",\"1\",\"Training\",\"Stims/Figures/139-C-20-2.bmp\",\"sasa:za\",\"Up\",\"40\",\"7\",\"7\",\"6A\",\"C2\",\"C\",\"103\"
\"\",\"\",\"approach-retreat\",\"107\",\"785781\",\"0.0-107.0\",\"\",\"\",\"3-1\",\"4805\",\"38\",\"0\",\"Training\",\"Stims/Figures/74-J-10-4.bmp\",\"fafa:sha\",\"Down\",\"40\",\"7\",\"8\",\"6A\",\"C1\",\"C\",\"104\"
\"\",\"\",\"approach-retreat\",\"108\",\"791690\",\"0.0-108.0\",\"\",\"\",\"3-1\",\"4404\",\"37\",\"0\",\"Training\",\"Stims/Figures/44-J-10-3.bmp\",\"fa:fa:sha\",\"Right\",\"39\",\"7\",\"9\",\"6A\",\"C1\",\"C\",\"105\"
\"\",\"\",\"approach-retreat\",\"109\",\"797815\",\"0.0-109.0\",\"\",\"\",\"3-1\",\"4615\",\"38\",\"1\",\"Training\",\"Stims/Figures/7-C-20-4.bmp\",\"zasaza\",\"Down\",\"38\",\"7\",\"10\",\"6A\",\"C2\",\"C\",\"106\"
\"\",\"\",\"approach-retreat\",\"110\",\"803510\",\"0.0-110.0\",\"\",\"\",\"3-1\",\"4186\",\"39\",\"1\",\"Training\",\"Stims/Figures/86-C-30-1.bmp\",\"za:ha:za\",\"Left\",\"39\",\"7\",\"11\",\"6A\",\"C2\",\"C\",\"107\"
\"\",\"\",\"approach-retreat\",\"111\",\"809440\",\"0.0-111.0\",\"\",\"\",\"3-1\",\"4417\",\"39\",\"0\",\"Training\",\"Stims/Figures/84-J-0-2.bmp\",\"fasha:sha\",\"Left\",\"37\",\"7\",\"12\",\"6A\",\"C1\",\"C\",\"108\"
\"\",\"\",\"approach-retreat\",\"112\",\"815159\",\"0.0-112.0\",\"\",\"\",\"3-1\",\"4209\",\"37\",\"1\",\"Training\",\"Stims/Figures/84-C-20-2.bmp\",\"za:sa:za\",\"Right\",\"37\",\"7\",\"13\",\"6A\",\"C2\",\"C\",\"109\"
\"\",\"\",\"approach-retreat\",\"113\",\"821210\",\"0.0-113.0\",\"\",\"\",\"3-1\",\"4542\",\"38\",\"0\",\"Training\",\"Stims/Figures/86-J-0-1.bmp\",\"fa:fa:va\",\"Down\",\"40\",\"7\",\"14\",\"6A\",\"C1\",\"C\",\"110\"
\"\",\"\",\"approach-retreat\",\"114\",\"826902\",\"0.0-114.0\",\"\",\"\",\"3-1\",\"4186\",\"39\",\"0\",\"Training\",\"Stims/Figures/144-J-10-3.bmp\",\"vafasha\",\"Left\",\"37\",\"7\",\"15\",\"6A\",\"C1\",\"C\",\"111\"
\"\",\"\",\"approach-retreat\",\"115\",\"832836\",\"0.0-115.0\",\"\",\"\",\"3-1\",\"4427\",\"39\",\"0\",\"Training\",\"Stims/Figures/44-C-30-3.bmp\",\"za:haza\",\"Right\",\"37\",\"7\",\"16\",\"6A\",\"C2\",\"C\",\"112\"
\"\",\"\",\"approach-retreat\",\"116\",\"838634\",\"0.0-116.0\",\"\",\"\",\"3-1\",\"4287\",\"39\",\"1\",\"Training\",\"Stims/Figures/74-C-20-4.bmp\",\"zaha:za\",\"Left\",\"39\",\"8\",\"1\",\"6A\",\"C2\",\"C\",\"113\"
\"\",\"\",\"approach-retreat\",\"117\",\"844447\",\"0.0-117.0\",\"\",\"\",\"3-1\",\"4309\",\"40\",\"1\",\"Training\",\"Stims/Figures/86-C-30-1.bmp\",\"za:ha:za\",\"Up\",\"40\",\"8\",\"2\",\"6A\",\"C2\",\"C\",\"114\"
\"\",\"\",\"approach-retreat\",\"118\",\"850433\",\"0.0-118.0\",\"\",\"\",\"3-1\",\"4475\",\"38\",\"1\",\"Training\",\"Stims/Figures/144-C-30-3.bmp\",\"sahaha\",\"Down\",\"38\",\"8\",\"3\",\"6A\",\"C2\",\"C\",\"115\"
\"\",\"\",\"approach-retreat\",\"119\",\"856158\",\"0.0-119.0\",\"\",\"\",\"3-1\",\"4217\",\"40\",\"0\",\"Training\",\"Stims/Figures/74-J-10-4.bmp\",\"fafa:sha\",\"Up\",\"38\",\"8\",\"4\",\"6A\",\"C1\",\"C\",\"116\"
\"\",\"\",\"approach-retreat\",\"120\",\"861822\",\"0.0-120.0\",\"\",\"\",\"3-1\",\"4155\",\"39\",\"1\",\"Training\",\"Stims/Figures/57-C-30-1.bmp\",\"sa:haza\",\"Left\",\"39\",\"8\",\"5\",\"6A\",\"C2\",\"C\",\"117\"
\"\",\"\",\"approach-retreat\",\"121\",\"868293\",\"0.0-121.0\",\"\",\"\",\"3-1\",\"4961\",\"38\",\"0\",\"Training\",\"Stims/Figures/57-J-0-1.bmp\",\"vashasha\",\"Down\",\"40\",\"8\",\"6\",\"6A\",\"C1\",\"C\",\"118\"
\"\",\"\",\"approach-retreat\",\"122\",\"875204\",\"0.0-122.0\",\"\",\"\",\"3-1\",\"5400\",\"40\",\"1\",\"Training\",\"Stims/Figures/7-C-20-4.bmp\",\"zasaza\",\"Up\",\"40\",\"8\",\"7\",\"6A\",\"C2\",\"C\",\"119\"
\"\",\"\",\"approach-retreat\",\"123\",\"881442\",\"0.0-123.0\",\"\",\"\",\"3-1\",\"4727\",\"37\",\"0\",\"Training\",\"Stims/Figures/7-J-10-4.bmp\",\"va:fa:va\",\"Right\",\"39\",\"8\",\"8\",\"6A\",\"C1\",\"C\",\"120\"
\"\",\"\",\"approach-retreat\",\"124\",\"889079\",\"0.0-124.0\",\"\",\"\",\"3-1\",\"6125\",\"39\",\"1\",\"Training\",\"Stims/Figures/44-C-30-3.bmp\",\"za:haza\",\"Left\",\"39\",\"8\",\"9\",\"6A\",\"C2\",\"C\",\"121\"
\"\",\"\",\"approach-retreat\",\"125\",\"895165\",\"0.0-125.0\",\"\",\"\",\"3-1\",\"4575\",\"37\",\"1\",\"Training\",\"Stims/Figures/84-C-20-2.bmp\",\"za:sa:za\",\"Right\",\"37\",\"8\",\"10\",\"6A\",\"C2\",\"C\",\"122\"
\"\",\"\",\"approach-retreat\",\"126\",\"901089\",\"0.0-126.0\",\"\",\"\",\"3-1\",\"4416\",\"39\",\"1\",\"Training\",\"Stims/Figures/139-C-20-2.bmp\",\"sasa:za\",\"Left\",\"39\",\"8\",\"11\",\"6A\",\"C2\",\"C\",\"123\"
\"\",\"\",\"approach-retreat\",\"127\",\"907777\",\"0.0-127.0\",\"\",\"\",\"3-1\",\"5179\",\"40\",\"1\",\"Training\",\"Stims/Figures/44-J-10-3.bmp\",\"fa:fa:sha\",\"Down\",\"40\",\"8\",\"12\",\"6A\",\"C1\",\"C\",\"124\"
\"\",\"\",\"approach-retreat\",\"128\",\"914419\",\"0.0-128.0\",\"\",\"\",\"3-1\",\"5137\",\"38\",\"1\",\"Training\",\"Stims/Figures/84-J-0-2.bmp\",\"fasha:sha\",\"Up\",\"38\",\"8\",\"13\",\"6A\",\"C1\",\"C\",\"125\"
\"\",\"\",\"approach-retreat\",\"129\",\"920406\",\"0.0-129.0\",\"\",\"\",\"3-1\",\"4479\",\"39\",\"1\",\"Training\",\"Stims/Figures/86-J-0-1.bmp\",\"fa:fa:va\",\"Right\",\"39\",\"8\",\"14\",\"6A\",\"C1\",\"C\",\"126\"
\"\",\"\",\"approach-retreat\",\"130\",\"928262\",\"0.0-130.0\",\"\",\"\",\"3-1\",\"6347\",\"40\",\"1\",\"Training\",\"Stims/Figures/139-J-0-2.bmp\",\"fa:shava\",\"Down\",\"40\",\"8\",\"15\",\"6A\",\"C1\",\"C\",\"127\"
\"\",\"\",\"approach-retreat\",\"131\",\"934502\",\"0.0-131.0\",\"\",\"\",\"3-1\",\"4736\",\"39\",\"1\",\"Training\",\"Stims/Figures/144-J-10-3.bmp\",\"vafasha\",\"Right\",\"39\",\"8\",\"16\",\"6A\",\"C1\",\"C\",\"128\"
\"\",\"\",\"approach-retreat\",\"132\",\"940016\",\"0.0-132.0\",\"\",\"\",\"3-1\",\"4003\",\"39\",\"1\",\"Training\",\"Stims/Figures/57-C-30-1.bmp\",\"sa:haza\",\"Left\",\"39\",\"9\",\"1\",\"6A\",\"C2\",\"C\",\"129\"
\"\",\"\",\"approach-retreat\",\"133\",\"946294\",\"0.0-133.0\",\"\",\"\",\"3-1\",\"4767\",\"38\",\"1\",\"Training\",\"Stims/Figures/86-J-0-1.bmp\",\"fa:fa:va\",\"Up\",\"38\",\"9\",\"2\",\"6A\",\"C1\",\"C\",\"130\"
\"\",\"\",\"approach-retreat\",\"134\",\"952103\",\"0.0-134.0\",\"\",\"\",\"3-1\",\"4304\",\"38\",\"1\",\"Training\",\"Stims/Figures/57-J-0-1.bmp\",\"vashasha\",\"Up\",\"38\",\"9\",\"3\",\"6A\",\"C1\",\"C\",\"131\"
\"\",\"\",\"approach-retreat\",\"135\",\"958030\",\"0.0-135.0\",\"\",\"\",\"3-1\",\"4417\",\"39\",\"1\",\"Training\",\"Stims/Figures/84-J-0-2.bmp\",\"fasha:sha\",\"Right\",\"39\",\"9\",\"4\",\"6A\",\"C1\",\"C\",\"132\"
\"\",\"\",\"approach-retreat\",\"136\",\"964951\",\"0.0-136.0\",\"\",\"\",\"3-1\",\"5409\",\"40\",\"1\",\"Training\",\"Stims/Figures/139-J-0-2.bmp\",\"fa:shava\",\"Down\",\"40\",\"9\",\"5\",\"6A\",\"C1\",\"C\",\"133\"
\"\",\"\",\"approach-retreat\",\"137\",\"970819\",\"0.0-137.0\",\"\",\"\",\"3-1\",\"4360\",\"39\",\"1\",\"Training\",\"Stims/Figures/86-C-30-1.bmp\",\"za:ha:za\",\"Left\",\"39\",\"9\",\"6\",\"6A\",\"C2\",\"C\",\"134\"
\"\",\"\",\"approach-retreat\",\"138\",\"976884\",\"0.0-138.0\",\"\",\"\",\"3-1\",\"4555\",\"38\",\"1\",\"Training\",\"Stims/Figures/7-C-20-4.bmp\",\"zasaza\",\"Down\",\"38\",\"9\",\"7\",\"6A\",\"C2\",\"C\",\"135\"
\"\",\"\",\"approach-retreat\",\"139\",\"982816\",\"0.0-139.0\",\"\",\"\",\"3-1\",\"4423\",\"40\",\"1\",\"Training\",\"Stims/Figures/144-C-30-3.bmp\",\"sahaha\",\"Up\",\"40\",\"9\",\"8\",\"6A\",\"C2\",\"C\",\"136\"
\"\",\"\",\"approach-retreat\",\"140\",\"988948\",\"0.0-140.0\",\"\",\"\",\"3-1\",\"4619\",\"37\",\"1\",\"Training\",\"Stims/Figures/7-J-10-4.bmp\",\"va:fa:va\",\"Left\",\"37\",\"9\",\"9\",\"6A\",\"C1\",\"C\",\"137\"
\"\",\"\",\"approach-retreat\",\"141\",\"994692\",\"0.0-141.0\",\"\",\"\",\"3-1\",\"4233\",\"39\",\"1\",\"Training\",\"Stims/Figures/74-J-10-4.bmp\",\"fafa:sha\",\"Right\",\"39\",\"9\",\"10\",\"6A\",\"C1\",\"C\",\"138\"
\"\",\"\",\"approach-retreat\",\"142\",\"1000532\",\"0.0-142.0\",\"\",\"\",\"3-1\",\"4327\",\"39\",\"1\",\"Training\",\"Stims/Figures/84-C-20-2.bmp\",\"za:sa:za\",\"Left\",\"39\",\"9\",\"11\",\"6A\",\"C2\",\"C\",\"139\"
\"\",\"\",\"approach-retreat\",\"143\",\"1007089\",\"0.0-143.0\",\"\",\"\",\"3-1\",\"5047\",\"39\",\"1\",\"Training\",\"Stims/Figures/144-J-10-3.bmp\",\"vafasha\",\"Right\",\"39\",\"9\",\"12\",\"6A\",\"C1\",\"C\",\"140\"
\"\",\"\",\"approach-retreat\",\"144\",\"1013344\",\"0.0-144.0\",\"\",\"\",\"3-1\",\"4750\",\"40\",\"1\",\"Training\",\"Stims/Figures/139-C-20-2.bmp\",\"sasa:za\",\"Up\",\"40\",\"9\",\"13\",\"6A\",\"C2\",\"C\",\"141\"
\"\",\"\",\"approach-retreat\",\"145\",\"1019328\",\"0.0-145.0\",\"\",\"\",\"3-1\",\"4473\",\"39\",\"1\",\"Training\",\"Stims/Figures/44-J-10-3.bmp\",\"fa:fa:sha\",\"Right\",\"39\",\"9\",\"14\",\"6A\",\"C1\",\"C\",\"142\"
\"\",\"\",\"approach-retreat\",\"146\",\"1025617\",\"0.0-146.0\",\"\",\"\",\"3-1\",\"4780\",\"38\",\"1\",\"Training\",\"Stims/Figures/44-C-30-3.bmp\",\"za:haza\",\"Down\",\"38\",\"9\",\"15\",\"6A\",\"C2\",\"C\",\"143\"
\"\",\"\",\"approach-retreat\",\"147\",\"1031906\",\"0.0-147.0\",\"\",\"\",\"3-1\",\"4777\",\"38\",\"1\",\"Training\",\"Stims/Figures/74-C-20-4.bmp\",\"zaha:za\",\"Down\",\"38\",\"9\",\"16\",\"6A\",\"C2\",\"C\",\"144\"
\"22737\",\"\",\"instructions\",\"148\",\"1054644\",\"0.0-148.0\",\"[{\"\"page_index\"\":0,\"\"viewing_time\"\":22737}]\",\"\",\"\",\"\",\"\",\"\",\"\",\"\",\"\",\"\",\"\",\"\",\"\",\"\",\"\",\"\",\"\"
\"\",\"\",\"approach-retreat\",\"149\",\"1064432\",\"0.0-149.0\",\"\",\"\",\"3-1\",\"8281\",\"38\",\"1\",\"Testing\",\"Stims/Figures/57-J-0-1.bmp\",\"vashasha\",\"Up\",\"38\",\"1\",\"1\",\"6A\",\"C1\",\"C\",\"1\"
\"\",\"\",\"approach-retreat\",\"150\",\"1073931\",\"0.0-150.0\",\"\",\"\",\"3-1\",\"7990\",\"40\",\"1\",\"Testing\",\"Stims/Figures/118-J-0-2.bmp\",\"fa:sha:va\",\"Down\",\"40\",\"1\",\"2\",\"6A\",\"C1\",\"C\",\"2\"
\"\",\"\",\"approach-retreat\",\"151\",\"1080939\",\"0.0-151.0\",\"\",\"\",\"3-1\",\"5498\",\"39\",\"0\",\"Testing\",\"Stims/Figures/19-J-10-4.bmp\",\"va:shava\",\"Left\",\"37\",\"1\",\"3\",\"6A\",\"C1\",\"C\",\"3\"
\"\",\"\",\"approach-retreat\",\"152\",\"1086901\",\"0.0-152.0\",\"\",\"\",\"3-1\",\"4453\",\"37\",\"1\",\"Testing\",\"Stims/Figures/57-C-30-1.bmp\",\"sa:haza\",\"Right\",\"37\",\"1\",\"4\",\"6A\",\"C2\",\"C\",\"4\"
\"\",\"\",\"approach-retreat\",\"153\",\"1092691\",\"0.0-153.0\",\"\",\"\",\"3-1\",\"4282\",\"37\",\"0\",\"Testing\",\"Stims/Figures/7-J-10-4.bmp\",\"va:fa:va\",\"Right\",\"39\",\"1\",\"5\",\"6A\",\"C1\",\"C\",\"5\"
\"\",\"\",\"approach-retreat\",\"154\",\"1099219\",\"0.0-154.0\",\"\",\"\",\"3-1\",\"5018\",\"39\",\"1\",\"Testing\",\"Stims/Figures/100-J-10-3.bmp\",\"vafa:sha\",\"Right\",\"39\",\"1\",\"6\",\"6A\",\"C1\",\"C\",\"6\"
\"\",\"\",\"approach-retreat\",\"155\",\"1107918\",\"0.0-155.0\",\"\",\"\",\"3-1\",\"7190\",\"37\",\"1\",\"Testing\",\"Stims/Figures/144-J-10-3.bmp\",\"vafasha\",\"Left\",\"37\",\"1\",\"7\",\"6A\",\"C1\",\"C\",\"7\"
\"\",\"\",\"approach-retreat\",\"156\",\"1113844\",\"0.0-156.0\",\"\",\"\",\"3-1\",\"4418\",\"40\",\"1\",\"Testing\",\"Stims/Figures/118-C-20-2.bmp\",\"sahaza\",\"Up\",\"40\",\"1\",\"8\",\"6A\",\"C2\",\"C\",\"8\"
\"\",\"\",\"approach-retreat\",\"157\",\"1122098\",\"0.0-157.0\",\"\",\"\",\"3-1\",\"6744\",\"39\",\"0\",\"Testing\",\"Stims/Figures/139-C-20-2.bmp\",\"sasa:za\",\"Right\",\"37\",\"1\",\"9\",\"6A\",\"C2\",\"C\",\"9\"
\"\",\"\",\"approach-retreat\",\"158\",\"1129008\",\"0.0-158.0\",\"\",\"\",\"3-1\",\"5403\",\"40\",\"1\",\"Testing\",\"Stims/Figures/84-C-20-2.bmp\",\"za:sa:za\",\"Up\",\"40\",\"1\",\"10\",\"6A\",\"C2\",\"C\",\"10\"
\"\",\"\",\"approach-retreat\",\"159\",\"1135273\",\"0.0-159.0\",\"\",\"\",\"3-1\",\"4756\",\"38\",\"1\",\"Testing\",\"Stims/Figures/74-J-10-4.bmp\",\"fafa:sha\",\"Up\",\"38\",\"1\",\"11\",\"6A\",\"C1\",\"C\",\"11\"
\"\",\"\",\"approach-retreat\",\"160\",\"1141495\",\"0.0-160.0\",\"\",\"\",\"3-1\",\"4713\",\"38\",\"0\",\"Testing\",\"Stims/Figures/44-C-30-3.bmp\",\"za:haza\",\"Up\",\"40\",\"1\",\"12\",\"6A\",\"C2\",\"C\",\"12\"
\"\",\"\",\"approach-retreat\",\"161\",\"1148764\",\"0.0-161.0\",\"\",\"\",\"3-1\",\"5762\",\"38\",\"1\",\"Testing\",\"Stims/Figures/100-C-30-3.bmp\",\"sa:saha\",\"Down\",\"38\",\"1\",\"13\",\"6A\",\"C2\",\"C\",\"13\"
\"\",\"\",\"approach-retreat\",\"162\",\"1154652\",\"0.0-162.0\",\"\",\"\",\"3-1\",\"4379\",\"39\",\"0\",\"Testing\",\"Stims/Figures/84-J-0-2.bmp\",\"fasha:sha\",\"Left\",\"37\",\"1\",\"14\",\"6A\",\"C1\",\"C\",\"14\"
\"\",\"\",\"approach-retreat\",\"163\",\"1160209\",\"0.0-163.0\",\"\",\"\",\"3-1\",\"4050\",\"39\",\"0\",\"Testing\",\"Stims/Figures/7-C-20-4.bmp\",\"zasaza\",\"Right\",\"37\",\"1\",\"15\",\"6A\",\"C2\",\"C\",\"15\"
\"\",\"\",\"approach-retreat\",\"164\",\"1165965\",\"0.0-164.0\",\"\",\"\",\"3-1\",\"4247\",\"37\",\"0\",\"Testing\",\"Stims/Figures/144-C-30-3.bmp\",\"sahaha\",\"Left\",\"39\",\"1\",\"16\",\"6A\",\"C2\",\"C\",\"16\"
\"\",\"\",\"approach-retreat\",\"165\",\"1172116\",\"0.0-165.0\",\"\",\"\",\"3-1\",\"4638\",\"40\",\"0\",\"Testing\",\"Stims/Figures/139-J-0-2.bmp\",\"fa:shava\",\"Up\",\"38\",\"1\",\"17\",\"6A\",\"C1\",\"C\",\"17\"
\"\",\"\",\"approach-retreat\",\"166\",\"1178269\",\"0.0-166.0\",\"\",\"\",\"3-1\",\"4643\",\"40\",\"1\",\"Testing\",\"Stims/Figures/86-J-0-1.bmp\",\"fa:fa:va\",\"Down\",\"40\",\"1\",\"18\",\"6A\",\"C1\",\"C\",\"18\"
\"\",\"\",\"approach-retreat\",\"167\",\"1184617\",\"0.0-167.0\",\"\",\"\",\"3-1\",\"4835\",\"38\",\"0\",\"Testing\",\"Stims/Figures/44-J-10-3.bmp\",\"fa:fa:sha\",\"Down\",\"40\",\"1\",\"19\",\"6A\",\"C1\",\"C\",\"19\"
\"\",\"\",\"approach-retreat\",\"168\",\"1190476\",\"0.0-168.0\",\"\",\"\",\"3-1\",\"4350\",\"38\",\"1\",\"Testing\",\"Stims/Figures/74-C-20-4.bmp\",\"zaha:za\",\"Down\",\"38\",\"1\",\"20\",\"6A\",\"C2\",\"C\",\"20\"
\"\",\"\",\"approach-retreat\",\"169\",\"1196185\",\"0.0-169.0\",\"\",\"\",\"3-1\",\"4202\",\"38\",\"1\",\"Testing\",\"Stims/Figures/86-C-30-1.bmp\",\"za:ha:za\",\"Down\",\"38\",\"1\",\"21\",\"6A\",\"C2\",\"C\",\"21\"
\"\",\"\",\"approach-retreat\",\"170\",\"1202013\",\"0.0-170.0\",\"\",\"\",\"3-1\",\"4314\",\"37\",\"1\",\"Testing\",\"Stims/Figures/71-J-0-1.bmp\",\"vashava\",\"Left\",\"37\",\"1\",\"22\",\"6A\",\"C1\",\"C\",\"22\"
\"\",\"\",\"approach-retreat\",\"171\",\"1208163\",\"0.0-171.0\",\"\",\"\",\"3-1\",\"4638\",\"39\",\"0\",\"Testing\",\"Stims/Figures/19-C-20-4.bmp\",\"za:sa:ha\",\"Right\",\"37\",\"1\",\"23\",\"6A\",\"C2\",\"C\",\"23\"
\"\",\"\",\"approach-retreat\",\"172\",\"1214717\",\"0.0-172.0\",\"\",\"\",\"3-1\",\"5043\",\"37\",\"0\",\"Testing\",\"Stims/Figures/71-C-30-1.bmp\",\"sasaza\",\"Left\",\"39\",\"1\",\"24\",\"6A\",\"C2\",\"C\",\"24\"
\"\",\"\",\"approach-retreat\",\"173\",\"1220659\",\"0.0-173.0\",\"\",\"\",\"3-1\",\"4434\",\"39\",\"1\",\"Testing\",\"Stims/Figures/84-C-20-2.bmp\",\"za:sa:za\",\"Left\",\"39\",\"2\",\"1\",\"6A\",\"C2\",\"C\",\"25\"
\"\",\"\",\"approach-retreat\",\"174\",\"1226780\",\"0.0-174.0\",\"\",\"\",\"3-1\",\"4613\",\"38\",\"1\",\"Testing\",\"Stims/Figures/7-C-20-4.bmp\",\"zasaza\",\"Down\",\"38\",\"2\",\"2\",\"6A\",\"C2\",\"C\",\"26\"
\"\",\"\",\"approach-retreat\",\"175\",\"1232473\",\"0.0-175.0\",\"\",\"\",\"3-1\",\"4187\",\"37\",\"0\",\"Testing\",\"Stims/Figures/86-J-0-1.bmp\",\"fa:fa:va\",\"Right\",\"39\",\"2\",\"3\",\"6A\",\"C1\",\"C\",\"27\"
\"\",\"\",\"approach-retreat\",\"176\",\"1239127\",\"0.0-176.0\",\"\",\"\",\"3-1\",\"5149\",\"40\",\"1\",\"Testing\",\"Stims/Figures/100-J-10-3.bmp\",\"vafa:sha\",\"Down\",\"40\",\"2\",\"4\",\"6A\",\"C1\",\"C\",\"28\"
\"\",\"\",\"approach-retreat\",\"177\",\"1244934\",\"0.0-177.0\",\"\",\"\",\"3-1\",\"4299\",\"39\",\"0\",\"Testing\",\"Stims/Figures/7-J-10-4.bmp\",\"va:fa:va\",\"Left\",\"37\",\"2\",\"5\",\"6A\",\"C1\",\"C\",\"29\"
\"\",\"\",\"approach-retreat\",\"178\",\"1251232\",\"0.0-178.0\",\"\",\"\",\"3-1\",\"4789\",\"39\",\"1\",\"Testing\",\"Stims/Figures/71-C-30-1.bmp\",\"sasaza\",\"Left\",\"39\",\"2\",\"6\",\"6A\",\"C2\",\"C\",\"30\"
\"\",\"\",\"approach-retreat\",\"179\",\"1257839\",\"0.0-179.0\",\"\",\"\",\"3-1\",\"5099\",\"38\",\"1\",\"Testing\",\"Stims/Figures/19-J-10-4.bmp\",\"va:shava\",\"Up\",\"38\",\"2\",\"7\",\"6A\",\"C1\",\"C\",\"31\"
\"\",\"\",\"approach-retreat\",\"180\",\"1264981\",\"0.0-180.0\",\"\",\"\",\"3-1\",\"5633\",\"39\",\"0\",\"Testing\",\"Stims/Figures/144-J-10-3.bmp\",\"vafasha\",\"Left\",\"37\",\"2\",\"8\",\"6A\",\"C1\",\"C\",\"32\"
\"\",\"\",\"approach-retreat\",\"181\",\"1270644\",\"0.0-181.0\",\"\",\"\",\"3-1\",\"4153\",\"39\",\"0\",\"Testing\",\"Stims/Figures/74-J-10-4.bmp\",\"fafa:sha\",\"Left\",\"37\",\"2\",\"9\",\"6A\",\"C1\",\"C\",\"33\"
\"\",\"\",\"approach-retreat\",\"182\",\"1277107\",\"0.0-182.0\",\"\",\"\",\"3-1\",\"4954\",\"40\",\"1\",\"Testing\",\"Stims/Figures/44-C-30-3.bmp\",\"za:haza\",\"Up\",\"40\",\"2\",\"10\",\"6A\",\"C2\",\"C\",\"34\"
\"\",\"\",\"approach-retreat\",\"183\",\"1283092\",\"0.0-183.0\",\"\",\"\",\"3-1\",\"4477\",\"37\",\"1\",\"Testing\",\"Stims/Figures/118-C-20-2.bmp\",\"sahaza\",\"Right\",\"37\",\"2\",\"11\",\"6A\",\"C2\",\"C\",\"35\"
\"\",\"\",\"approach-retreat\",\"184\",\"1288994\",\"0.0-184.0\",\"\",\"\",\"3-1\",\"4394\",\"39\",\"1\",\"Testing\",\"Stims/Figures/19-C-20-4.bmp\",\"za:sa:ha\",\"Left\",\"39\",\"2\",\"12\",\"6A\",\"C2\",\"C\",\"36\"
\"\",\"\",\"approach-retreat\",\"185\",\"1295107\",\"0.0-185.0\",\"\",\"\",\"3-1\",\"4605\",\"40\",\"0\",\"Testing\",\"Stims/Figures/44-J-10-3.bmp\",\"fa:fa:sha\",\"Up\",\"38\",\"2\",\"13\",\"6A\",\"C1\",\"C\",\"37\"
\"\",\"\",\"approach-retreat\",\"186\",\"1301837\",\"0.0-186.0\",\"\",\"\",\"3-1\",\"5222\",\"40\",\"1\",\"Testing\",\"Stims/Figures/57-J-0-1.bmp\",\"vashasha\",\"Down\",\"40\",\"2\",\"14\",\"6A\",\"C1\",\"C\",\"38\"
\"\",\"\",\"approach-retreat\",\"187\",\"1308158\",\"0.0-187.0\",\"\",\"\",\"3-1\",\"4809\",\"40\",\"0\",\"Testing\",\"Stims/Figures/74-C-20-4.bmp\",\"zaha:za\",\"Down\",\"38\",\"2\",\"15\",\"6A\",\"C2\",\"C\",\"39\"
\"\",\"\",\"approach-retreat\",\"188\",\"1313982\",\"0.0-188.0\",\"\",\"\",\"3-1\",\"4316\",\"37\",\"1\",\"Testing\",\"Stims/Figures/139-C-20-2.bmp\",\"sasa:za\",\"Right\",\"37\",\"2\",\"16\",\"6A\",\"C2\",\"C\",\"40\"
\"\",\"\",\"approach-retreat\",\"189\",\"1319778\",\"0.0-189.0\",\"\",\"\",\"3-1\",\"4290\",\"40\",\"1\",\"Testing\",\"Stims/Figures/57-C-30-1.bmp\",\"sa:haza\",\"Up\",\"40\",\"2\",\"17\",\"6A\",\"C2\",\"C\",\"41\"
\"\",\"\",\"approach-retreat\",\"190\",\"1326418\",\"0.0-190.0\",\"\",\"\",\"3-1\",\"5133\",\"40\",\"1\",\"Testing\",\"Stims/Figures/118-J-0-2.bmp\",\"fa:sha:va\",\"Down\",\"40\",\"2\",\"18\",\"6A\",\"C1\",\"C\",\"42\"
\"\",\"\",\"approach-retreat\",\"191\",\"1332373\",\"0.0-191.0\",\"\",\"\",\"3-1\",\"4446\",\"40\",\"0\",\"Testing\",\"Stims/Figures/84-J-0-2.bmp\",\"fasha:sha\",\"Up\",\"38\",\"2\",\"19\",\"6A\",\"C1\",\"C\",\"43\"
\"\",\"\",\"approach-retreat\",\"192\",\"1338302\",\"0.0-192.0\",\"\",\"\",\"3-1\",\"4421\",\"38\",\"1\",\"Testing\",\"Stims/Figures/86-C-30-1.bmp\",\"za:ha:za\",\"Down\",\"38\",\"2\",\"20\",\"6A\",\"C2\",\"C\",\"44\"
\"\",\"\",\"approach-retreat\",\"193\",\"1344117\",\"0.0-193.0\",\"\",\"\",\"3-1\",\"4306\",\"37\",\"1\",\"Testing\",\"Stims/Figures/144-C-30-3.bmp\",\"sahaha\",\"Right\",\"37\",\"2\",\"21\",\"6A\",\"C2\",\"C\",\"45\"
\"\",\"\",\"approach-retreat\",\"194\",\"1351057\",\"0.0-194.0\",\"\",\"\",\"3-1\",\"5433\",\"37\",\"1\",\"Testing\",\"Stims/Figures/100-C-30-3.bmp\",\"sa:saha\",\"Right\",\"37\",\"2\",\"22\",\"6A\",\"C2\",\"C\",\"46\"
\"\",\"\",\"approach-retreat\",\"195\",\"1356943\",\"0.0-195.0\",\"\",\"\",\"3-1\",\"4378\",\"39\",\"1\",\"Testing\",\"Stims/Figures/139-J-0-2.bmp\",\"fa:shava\",\"Right\",\"39\",\"2\",\"23\",\"6A\",\"C1\",\"C\",\"47\"
\"\",\"\",\"approach-retreat\",\"196\",\"1363236\",\"0.0-196.0\",\"\",\"\",\"3-1\",\"4787\",\"38\",\"1\",\"Testing\",\"Stims/Figures/71-J-0-1.bmp\",\"vashava\",\"Up\",\"38\",\"2\",\"24\",\"6A\",\"C1\",\"C\",\"48\"
\"\",\"\",\"approach-retreat\",\"197\",\"1369237\",\"0.0-197.0\",\"\",\"\",\"3-1\",\"4491\",\"40\",\"1\",\"Testing\",\"Stims/Figures/100-J-10-3.bmp\",\"vafa:sha\",\"Down\",\"40\",\"3\",\"1\",\"6A\",\"C1\",\"C\",\"49\"
\"\",\"\",\"approach-retreat\",\"198\",\"1374828\",\"0.0-198.0\",\"\",\"\",\"3-1\",\"4081\",\"39\",\"0\",\"Testing\",\"Stims/Figures/74-J-10-4.bmp\",\"fafa:sha\",\"Left\",\"37\",\"3\",\"2\",\"6A\",\"C1\",\"C\",\"50\"
\"\",\"\",\"approach-retreat\",\"199\",\"1380869\",\"0.0-199.0\",\"\",\"\",\"3-1\",\"4530\",\"40\",\"1\",\"Testing\",\"Stims/Figures/57-J-0-1.bmp\",\"vashasha\",\"Down\",\"40\",\"3\",\"3\",\"6A\",\"C1\",\"C\",\"51\"
\"\",\"\",\"approach-retreat\",\"200\",\"1386550\",\"0.0-200.0\",\"\",\"\",\"3-1\",\"4172\",\"37\",\"1\",\"Testing\",\"Stims/Figures/118-J-0-2.bmp\",\"fa:sha:va\",\"Left\",\"37\",\"3\",\"4\",\"6A\",\"C1\",\"C\",\"52\"
\"\",\"\",\"approach-retreat\",\"201\",\"1392504\",\"0.0-201.0\",\"\",\"\",\"3-1\",\"4448\",\"40\",\"0\",\"Testing\",\"Stims/Figures/118-C-20-2.bmp\",\"sahaza\",\"Down\",\"38\",\"3\",\"5\",\"6A\",\"C2\",\"C\",\"53\"
\"\",\"\",\"approach-retreat\",\"202\",\"1398340\",\"0.0-202.0\",\"\",\"\",\"3-1\",\"4326\",\"37\",\"1\",\"Testing\",\"Stims/Figures/71-J-0-1.bmp\",\"vashava\",\"Left\",\"37\",\"3\",\"6\",\"6A\",\"C1\",\"C\",\"54\"
\"\",\"\",\"approach-retreat\",\"203\",\"1404280\",\"0.0-203.0\",\"\",\"\",\"3-1\",\"4432\",\"40\",\"1\",\"Testing\",\"Stims/Figures/71-C-30-1.bmp\",\"sasaza\",\"Up\",\"40\",\"3\",\"7\",\"6A\",\"C2\",\"C\",\"55\"
\"\",\"\",\"approach-retreat\",\"204\",\"1409828\",\"0.0-204.0\",\"\",\"\",\"3-1\",\"4039\",\"37\",\"1\",\"Testing\",\"Stims/Figures/86-C-30-1.bmp\",\"za:ha:za\",\"Right\",\"37\",\"3\",\"8\",\"6A\",\"C2\",\"C\",\"56\"
\"\",\"\",\"approach-retreat\",\"205\",\"1415681\",\"0.0-205.0\",\"\",\"\",\"3-1\",\"4343\",\"40\",\"0\",\"Testing\",\"Stims/Figures/144-J-10-3.bmp\",\"vafasha\",\"Up\",\"38\",\"3\",\"9\",\"6A\",\"C1\",\"C\",\"57\"
\"\",\"\",\"approach-retreat\",\"206\",\"1421601\",\"0.0-206.0\",\"\",\"\",\"3-1\",\"4410\",\"39\",\"1\",\"Testing\",\"Stims/Figures/7-C-20-4.bmp\",\"zasaza\",\"Left\",\"39\",\"3\",\"10\",\"6A\",\"C2\",\"C\",\"58\"
\"\",\"\",\"approach-retreat\",\"207\",\"1427365\",\"0.0-207.0\",\"\",\"\",\"3-1\",\"4254\",\"37\",\"1\",\"Testing\",\"Stims/Figures/84-C-20-2.bmp\",\"za:sa:za\",\"Right\",\"37\",\"3\",\"11\",\"6A\",\"C2\",\"C\",\"59\"
\"\",\"\",\"approach-retreat\",\"208\",\"1434560\",\"0.0-208.0\",\"\",\"\",\"3-1\",\"5689\",\"38\",\"0\",\"Testing\",\"Stims/Figures/100-C-30-3.bmp\",\"sa:saha\",\"Up\",\"40\",\"3\",\"12\",\"6A\",\"C2\",\"C\",\"60\"
\"\",\"\",\"approach-retreat\",\"209\",\"1440284\",\"0.0-209.0\",\"\",\"\",\"3-1\",\"4213\",\"37\",\"1\",\"Testing\",\"Stims/Figures/19-C-20-4.bmp\",\"za:sa:ha\",\"Right\",\"37\",\"3\",\"13\",\"6A\",\"C2\",\"C\",\"61\"
\"\",\"\",\"approach-retreat\",\"210\",\"1446601\",\"0.0-210.0\",\"\",\"\",\"3-1\",\"4809\",\"40\",\"1\",\"Testing\",\"Stims/Figures/144-C-30-3.bmp\",\"sahaha\",\"Up\",\"40\",\"3\",\"14\",\"6A\",\"C2\",\"C\",\"62\"
\"\",\"\",\"approach-retreat\",\"211\",\"1452903\",\"0.0-211.0\",\"\",\"\",\"3-1\",\"4795\",\"40\",\"1\",\"Testing\",\"Stims/Figures/86-J-0-1.bmp\",\"fa:fa:va\",\"Down\",\"40\",\"3\",\"15\",\"6A\",\"C1\",\"C\",\"63\"
\"\",\"\",\"approach-retreat\",\"212\",\"1458665\",\"0.0-212.0\",\"\",\"\",\"3-1\",\"4251\",\"39\",\"1\",\"Testing\",\"Stims/Figures/44-C-30-3.bmp\",\"za:haza\",\"Left\",\"39\",\"3\",\"16\",\"6A\",\"C2\",\"C\",\"64\"
\"\",\"\",\"approach-retreat\",\"213\",\"1464129\",\"0.0-213.0\",\"\",\"\",\"3-1\",\"3957\",\"37\",\"1\",\"Testing\",\"Stims/Figures/57-C-30-1.bmp\",\"sa:haza\",\"Right\",\"37\",\"3\",\"17\",\"6A\",\"C2\",\"C\",\"65\"
\"\",\"\",\"approach-retreat\",\"214\",\"1471319\",\"0.0-214.0\",\"\",\"\",\"3-1\",\"5681\",\"39\",\"1\",\"Testing\",\"Stims/Figures/139-C-20-2.bmp\",\"sasa:za\",\"Left\",\"39\",\"3\",\"18\",\"6A\",\"C2\",\"C\",\"66\"
\"\",\"\",\"approach-retreat\",\"215\",\"1478230\",\"0.0-215.0\",\"\",\"\",\"3-1\",\"5402\",\"38\",\"1\",\"Testing\",\"Stims/Figures/139-J-0-2.bmp\",\"fa:shava\",\"Up\",\"38\",\"3\",\"19\",\"6A\",\"C1\",\"C\",\"67\"
\"\",\"\",\"approach-retreat\",\"216\",\"1484119\",\"0.0-216.0\",\"\",\"\",\"3-1\",\"4379\",\"40\",\"0\",\"Testing\",\"Stims/Figures/74-C-20-4.bmp\",\"zaha:za\",\"Down\",\"38\",\"3\",\"20\",\"6A\",\"C2\",\"C\",\"68\"
\"\",\"\",\"approach-retreat\",\"217\",\"1489844\",\"0.0-217.0\",\"\",\"\",\"3-1\",\"4218\",\"38\",\"0\",\"Testing\",\"Stims/Figures/44-J-10-3.bmp\",\"fa:fa:sha\",\"Down\",\"40\",\"3\",\"21\",\"6A\",\"C1\",\"C\",\"69\"
\"\",\"\",\"approach-retreat\",\"218\",\"1495412\",\"0.0-218.0\",\"\",\"\",\"3-1\",\"4060\",\"37\",\"0\",\"Testing\",\"Stims/Figures/19-J-10-4.bmp\",\"va:shava\",\"Right\",\"39\",\"3\",\"22\",\"6A\",\"C1\",\"C\",\"70\"
\"\",\"\",\"approach-retreat\",\"219\",\"1501420\",\"0.0-219.0\",\"\",\"\",\"3-1\",\"4500\",\"37\",\"0\",\"Testing\",\"Stims/Figures/7-J-10-4.bmp\",\"va:fa:va\",\"Right\",\"39\",\"3\",\"23\",\"6A\",\"C1\",\"C\",\"71\"
\"\",\"\",\"approach-retreat\",\"220\",\"1507194\",\"0.0-220.0\",\"\",\"\",\"3-1\",\"4267\",\"40\",\"0\",\"Testing\",\"Stims/Figures/84-J-0-2.bmp\",\"fasha:sha\",\"Up\",\"38\",\"3\",\"24\",\"6A\",\"C1\",\"C\",\"72\"
\"\",\"\",\"approach-retreat\",\"221\",\"1512985\",\"0.0-221.0\",\"\",\"\",\"3-1\",\"4283\",\"40\",\"0\",\"Testing\",\"Stims/Figures/57-J-0-1.bmp\",\"vashasha\",\"Up\",\"38\",\"4\",\"1\",\"6A\",\"C1\",\"C\",\"73\"
\"\",\"\",\"approach-retreat\",\"222\",\"1518736\",\"0.0-222.0\",\"\",\"\",\"3-1\",\"4244\",\"39\",\"0\",\"Testing\",\"Stims/Figures/86-J-0-1.bmp\",\"fa:fa:va\",\"Left\",\"37\",\"4\",\"2\",\"6A\",\"C1\",\"C\",\"74\"
\"\",\"\",\"approach-retreat\",\"223\",\"1524559\",\"0.0-223.0\",\"\",\"\",\"3-1\",\"4316\",\"39\",\"1\",\"Testing\",\"Stims/Figures/19-C-20-4.bmp\",\"za:sa:ha\",\"Left\",\"39\",\"4\",\"3\",\"6A\",\"C2\",\"C\",\"75\"
\"\",\"\",\"approach-retreat\",\"224\",\"1530537\",\"0.0-224.0\",\"\",\"\",\"3-1\",\"4468\",\"39\",\"0\",\"Testing\",\"Stims/Figures/44-C-30-3.bmp\",\"za:haza\",\"Right\",\"37\",\"4\",\"4\",\"6A\",\"C2\",\"C\",\"76\"
\"\",\"\",\"approach-retreat\",\"225\",\"1536156\",\"0.0-225.0\",\"\",\"\",\"3-1\",\"4107\",\"37\",\"1\",\"Testing\",\"Stims/Figures/139-J-0-2.bmp\",\"fa:shava\",\"Left\",\"37\",\"4\",\"5\",\"6A\",\"C1\",\"C\",\"77\"
\"\",\"\",\"approach-retreat\",\"226\",\"1543080\",\"0.0-226.0\",\"\",\"\",\"3-1\",\"5416\",\"40\",\"1\",\"Testing\",\"Stims/Figures/86-C-30-1.bmp\",\"za:ha:za\",\"Up\",\"40\",\"4\",\"6\",\"6A\",\"C2\",\"C\",\"78\"
\"\",\"\",\"approach-retreat\",\"227\",\"1549207\",\"0.0-227.0\",\"\",\"\",\"3-1\",\"4619\",\"40\",\"0\",\"Testing\",\"Stims/Figures/84-J-0-2.bmp\",\"fasha:sha\",\"Up\",\"38\",\"4\",\"7\",\"6A\",\"C1\",\"C\",\"79\"
\"\",\"\",\"approach-retreat\",\"228\",\"1555327\",\"0.0-228.0\",\"\",\"\",\"3-1\",\"4613\",\"40\",\"1\",\"Testing\",\"Stims/Figures/139-C-20-2.bmp\",\"sasa:za\",\"Up\",\"40\",\"4\",\"8\",\"6A\",\"C2\",\"C\",\"80\"
\"\",\"\",\"approach-retreat\",\"229\",\"1561066\",\"0.0-229.0\",\"\",\"\",\"3-1\",\"4228\",\"39\",\"1\",\"Testing\",\"Stims/Figures/7-C-20-4.bmp\",\"zasaza\",\"Left\",\"39\",\"4\",\"9\",\"6A\",\"C2\",\"C\",\"81\"
\"\",\"\",\"approach-retreat\",\"230\",\"1567329\",\"0.0-230.0\",\"\",\"\",\"3-1\",\"4754\",\"39\",\"0\",\"Testing\",\"Stims/Figures/44-J-10-3.bmp\",\"fa:fa:sha\",\"Left\",\"37\",\"4\",\"10\",\"6A\",\"C1\",\"C\",\"82\"
\"\",\"\",\"approach-retreat\",\"231\",\"1573518\",\"0.0-231.0\",\"\",\"\",\"3-1\",\"4682\",\"38\",\"0\",\"Testing\",\"Stims/Figures/144-J-10-3.bmp\",\"vafasha\",\"Down\",\"40\",\"4\",\"11\",\"6A\",\"C1\",\"C\",\"83\"
\"\",\"\",\"approach-retreat\",\"232\",\"1579544\",\"0.0-232.0\",\"\",\"\",\"3-1\",\"4517\",\"39\",\"1\",\"Testing\",\"Stims/Figures/74-J-10-4.bmp\",\"fafa:sha\",\"Right\",\"39\",\"4\",\"12\",\"6A\",\"C1\",\"C\",\"84\"
\"\",\"\",\"approach-retreat\",\"233\",\"1585399\",\"0.0-233.0\",\"\",\"\",\"3-1\",\"4345\",\"37\",\"0\",\"Testing\",\"Stims/Figures/71-C-30-1.bmp\",\"sasaza\",\"Left\",\"39\",\"4\",\"13\",\"6A\",\"C2\",\"C\",\"85\"
\"\",\"\",\"approach-retreat\",\"234\",\"1590979\",\"0.0-234.0\",\"\",\"\",\"3-1\",\"4070\",\"40\",\"1\",\"Testing\",\"Stims/Figures/100-J-10-3.bmp\",\"vafa:sha\",\"Down\",\"40\",\"4\",\"14\",\"6A\",\"C1\",\"C\",\"86\"
\"\",\"\",\"approach-retreat\",\"235\",\"1597088\",\"0.0-235.0\",\"\",\"\",\"3-1\",\"4600\",\"40\",\"1\",\"Testing\",\"Stims/Figures/118-J-0-2.bmp\",\"fa:sha:va\",\"Down\",\"40\",\"4\",\"15\",\"6A\",\"C1\",\"C\",\"87\"
\"\",\"\",\"approach-retreat\",\"236\",\"1602881\",\"0.0-236.0\",\"\",\"\",\"3-1\",\"4286\",\"38\",\"1\",\"Testing\",\"Stims/Figures/74-C-20-4.bmp\",\"zaha:za\",\"Down\",\"38\",\"4\",\"16\",\"6A\",\"C2\",\"C\",\"88\"
\"\",\"\",\"approach-retreat\",\"237\",\"1608512\",\"0.0-237.0\",\"\",\"\",\"3-1\",\"4124\",\"40\",\"0\",\"Testing\",\"Stims/Figures/100-C-30-3.bmp\",\"sa:saha\",\"Down\",\"38\",\"4\",\"17\",\"6A\",\"C2\",\"C\",\"89\"
\"\",\"\",\"approach-retreat\",\"238\",\"1613537\",\"0.0-238.0\",\"\",\"\",\"3-1\",\"3517\",\"38\",\"0\",\"Testing\",\"Stims/Figures/57-C-30-1.bmp\",\"sa:haza\",\"Up\",\"40\",\"4\",\"18\",\"6A\",\"C2\",\"C\",\"90\"
\"\",\"\",\"approach-retreat\",\"239\",\"1619161\",\"0.0-239.0\",\"\",\"\",\"3-1\",\"4117\",\"37\",\"1\",\"Testing\",\"Stims/Figures/144-C-30-3.bmp\",\"sahaha\",\"Right\",\"37\",\"4\",\"19\",\"6A\",\"C2\",\"C\",\"91\"
\"\",\"\",\"approach-retreat\",\"240\",\"1624768\",\"0.0-240.0\",\"\",\"\",\"3-1\",\"4103\",\"39\",\"1\",\"Testing\",\"Stims/Figures/71-J-0-1.bmp\",\"vashava\",\"Right\",\"39\",\"4\",\"20\",\"6A\",\"C1\",\"C\",\"92\"
\"\",\"\",\"approach-retreat\",\"241\",\"1630527\",\"0.0-241.0\",\"\",\"\",\"3-1\",\"4254\",\"40\",\"0\",\"Testing\",\"Stims/Figures/19-J-10-4.bmp\",\"va:shava\",\"Up\",\"38\",\"4\",\"21\",\"6A\",\"C1\",\"C\",\"93\"
\"\",\"\",\"approach-retreat\",\"242\",\"1636002\",\"0.0-242.0\",\"\",\"\",\"3-1\",\"3963\",\"39\",\"0\",\"Testing\",\"Stims/Figures/118-C-20-2.bmp\",\"sahaza\",\"Right\",\"37\",\"4\",\"22\",\"6A\",\"C2\",\"C\",\"94\"
\"\",\"\",\"approach-retreat\",\"243\",\"1641528\",\"0.0-243.0\",\"\",\"\",\"3-1\",\"4024\",\"37\",\"0\",\"Testing\",\"Stims/Figures/7-J-10-4.bmp\",\"va:fa:va\",\"Right\",\"39\",\"4\",\"23\",\"6A\",\"C1\",\"C\",\"95\"
\"\",\"\",\"approach-retreat\",\"244\",\"1647417\",\"0.0-244.0\",\"\",\"\",\"3-1\",\"4385\",\"38\",\"1\",\"Testing\",\"Stims/Figures/84-C-20-2.bmp\",\"za:sa:za\",\"Down\",\"38\",\"4\",\"24\",\"6A\",\"C2\",\"C\",\"96\"
\"30775\",\"\",\"survey-text\",\"245\",\"1678198\",\"0.0-245.0\",\"\",\"{\"\"Q0\"\":\"\"1222/2016\"\"}\",\"\",\"\",\"\",\"\",\"\",\"\",\"\",\"\",\"\",\"\",\"\",\"\",\"\",\"\",\"\"
