"rt","key_press","trial_type","trial_index","time_elapsed","internal_node_id","view_history","responses","Id","Rt","ResKeyCode","ResCorr","TrialType2","Image","Label","Location","CorrectResponse","Block","BlockTrial","Condition","LabelType","Subcondition","trialNum"
"75633","32","text","0","75645","0.0-0.0-0.0","","","","","","","","","","","","","","","","",""
"150306","","instructions","1","225960","0.0-1.0","[{""page_index"":0,""viewing_time"":150305}]","","","","","","","","","","","","","","","",""
"31149","","survey-multi-choice","2","257213","0.0-2.0","","{""Q0"":""Da"",""Q1"":""Da"",""Q2"":""Da"",""Q3"":""Da"",""Q4"":""Da"",""Q5"":""Da""}","","","","","","","","","","","","","","",""
"","","bio","3","270930","0.0-3.0","","{""age"":""19"",""gender"":""f"",""specify"":""""}","","","","","","","","","","","","","","",""
"","","approach-retreat","4","282143","0.0-4.0","","","1-5","9682","37","1","Training","Stims/Figures/118-C-20-2.bmp","za:sa:za","Right","37","1","1","3A","C2","C","1"
"","","approach-retreat","5","289476","0.0-5.0","","","1-5","5790","38","1","Training","Stims/Figures/93-C-30-1.bmp","za:sa:za","Down","38","1","2","3A","C2","C","2"
"","","approach-retreat","6","296217","0.0-6.0","","","1-5","5193","40","1","Training","Stims/Figures/19-C-20-4.bmp","za:sa:za","Up","40","1","3","3A","C2","C","3"
"","","approach-retreat","7","303483","0.0-7.0","","","1-5","5722","39","1","Training","Stims/Figures/118-J-0-2.bmp","fafa:va","Right","39","1","4","3A","C1","C","4"
"","","approach-retreat","8","309656","0.0-8.0","","","1-5","4652","40","1","Training","Stims/Figures/44-J-10-3.bmp","fafa:va","Down","40","1","5","3A","C1","C","5"
"","","approach-retreat","9","315858","0.0-9.0","","","1-5","4656","39","1","Training","Stims/Figures/93-J-0-1.bmp","fafa:va","Right","39","1","6","3A","C1","C","6"
"","","approach-retreat","10","321616","0.0-10.0","","","1-5","4217","39","1","Training","Stims/Figures/44-C-30-3.bmp","za:sa:za","Left","39","1","7","3A","C2","C","7"
"","","approach-retreat","11","327708","0.0-11.0","","","1-5","4549","37","1","Training","Stims/Figures/7-C-20-4.bmp","za:sa:za","Right","37","1","8","3A","C2","C","8"
"","","approach-retreat","12","333503","0.0-12.0","","","1-5","4253","39","1","Training","Stims/Figures/84-C-20-2.bmp","za:sa:za","Left","39","1","9","3A","C2","C","9"
"","","approach-retreat","13","339399","0.0-13.0","","","1-5","4360","40","1","Training","Stims/Figures/27-J-0-1.bmp","fafa:va","Down","40","1","10","3A","C1","C","10"
"","","approach-retreat","14","346133","0.0-14.0","","","1-5","5189","37","1","Training","Stims/Figures/7-J-10-4.bmp","fafa:va","Left","37","1","11","3A","C1","C","11"
"","","approach-retreat","15","352226","0.0-15.0","","","1-5","4559","38","1","Training","Stims/Figures/128-C-30-3.bmp","za:sa:za","Down","38","1","12","3A","C2","C","12"
"","","approach-retreat","16","358373","0.0-16.0","","","1-5","4605","38","1","Training","Stims/Figures/84-J-0-2.bmp","fafa:va","Up","38","1","13","3A","C1","C","13"
"","","approach-retreat","17","365377","0.0-17.0","","","1-5","5465","40","1","Training","Stims/Figures/27-C-30-1.bmp","za:sa:za","Up","40","1","14","3A","C2","C","14"
"","","approach-retreat","18","371187","0.0-18.0","","","1-5","4259","37","1","Training","Stims/Figures/19-J-10-4.bmp","fafa:va","Left","37","1","15","3A","C1","C","15"
"","","approach-retreat","19","377722","0.0-19.0","","","1-5","4997","38","1","Training","Stims/Figures/128-J-10-3.bmp","fafa:va","Up","38","1","16","3A","C1","C","16"
"","","approach-retreat","20","383924","0.0-20.0","","","1-5","4657","39","1","Training","Stims/Figures/7-C-20-4.bmp","za:sa:za","Left","39","2","1","3A","C2","C","17"
"","","approach-retreat","21","389677","0.0-21.0","","","1-5","4209","38","1","Training","Stims/Figures/118-C-20-2.bmp","za:sa:za","Down","38","2","2","3A","C2","C","18"
"","","approach-retreat","22","395540","0.0-22.0","","","1-5","4344","39","1","Training","Stims/Figures/19-J-10-4.bmp","fafa:va","Right","39","2","3","3A","C1","C","19"
"","","approach-retreat","23","401140","0.0-23.0","","","1-5","4055","40","1","Training","Stims/Figures/118-J-0-2.bmp","fafa:va","Down","40","2","4","3A","C1","C","20"
"","","approach-retreat","24","406820","0.0-24.0","","","1-5","4134","38","1","Training","Stims/Figures/44-J-10-3.bmp","fafa:va","Up","38","2","5","3A","C1","C","21"
"","","approach-retreat","25","412732","0.0-25.0","","","1-5","4374","37","1","Training","Stims/Figures/93-C-30-1.bmp","za:sa:za","Right","37","2","6","3A","C2","C","22"
"","","approach-retreat","26","418421","0.0-26.0","","","1-5","4172","38","1","Training","Stims/Figures/27-J-0-1.bmp","fafa:va","Up","38","2","7","3A","C1","C","23"
"","","approach-retreat","27","424818","0.0-27.0","","","1-5","4853","38","1","Training","Stims/Figures/19-C-20-4.bmp","za:sa:za","Down","38","2","8","3A","C2","C","24"
"","","approach-retreat","28","431465","0.0-28.0","","","1-5","5103","39","1","Training","Stims/Figures/27-C-30-1.bmp","za:sa:za","Left","39","2","9","3A","C2","C","25"
"","","approach-retreat","29","437039","0.0-29.0","","","1-5","4035","38","1","Training","Stims/Figures/93-J-0-1.bmp","fafa:va","Up","38","2","10","3A","C1","C","26"
"","","approach-retreat","30","442859","0.0-30.0","","","1-5","4288","38","1","Training","Stims/Figures/128-C-30-3.bmp","za:sa:za","Down","38","2","11","3A","C2","C","27"
"","","approach-retreat","31","448359","0.0-31.0","","","1-5","3959","39","1","Training","Stims/Figures/7-J-10-4.bmp","fafa:va","Right","39","2","12","3A","C1","C","28"
"","","approach-retreat","32","454523","0.0-32.0","","","1-5","4616","40","1","Training","Stims/Figures/84-C-20-2.bmp","za:sa:za","Up","40","2","13","3A","C2","C","29"
"","","approach-retreat","33","460169","0.0-33.0","","","1-5","4121","39","1","Training","Stims/Figures/128-J-10-3.bmp","fafa:va","Right","39","2","14","3A","C1","C","30"
"","","approach-retreat","34","465660","0.0-34.0","","","1-5","3943","37","1","Training","Stims/Figures/84-J-0-2.bmp","fafa:va","Left","37","2","15","3A","C1","C","31"
"","","approach-retreat","35","471418","0.0-35.0","","","1-5","4215","39","1","Training","Stims/Figures/44-C-30-3.bmp","za:sa:za","Left","39","2","16","3A","C2","C","32"
"","","approach-retreat","36","477937","0.0-36.0","","","1-5","4978","40","1","Training","Stims/Figures/19-C-20-4.bmp","za:sa:za","Up","40","3","1","3A","C2","C","33"
"","","approach-retreat","37","484498","0.0-37.0","","","1-5","5029","39","1","Training","Stims/Figures/19-J-10-4.bmp","fafa:va","Right","39","3","2","3A","C1","C","34"
"","","approach-retreat","38","490654","0.0-38.0","","","1-5","4609","39","1","Training","Stims/Figures/118-C-20-2.bmp","za:sa:za","Left","39","3","3","3A","C2","C","35"
"","","approach-retreat","39","497139","0.0-39.0","","","1-5","4948","39","1","Training","Stims/Figures/93-J-0-1.bmp","fafa:va","Right","39","3","4","3A","C1","C","36"
"","","approach-retreat","40","503836","0.0-40.0","","","1-5","5181","38","1","Training","Stims/Figures/128-C-30-3.bmp","za:sa:za","Down","38","3","5","3A","C2","C","37"
"","","approach-retreat","41","511623","0.0-41.0","","","1-5","6240","39","1","Training","Stims/Figures/84-J-0-2.bmp","fafa:va","Right","39","3","6","3A","C1","C","38"
"","","approach-retreat","42","518430","0.0-42.0","","","1-5","5261","39","1","Training","Stims/Figures/93-C-30-1.bmp","za:sa:za","Left","39","3","7","3A","C2","C","39"
"","","approach-retreat","43","525976","0.0-43.0","","","1-5","6008","38","1","Training","Stims/Figures/128-J-10-3.bmp","fafa:va","Up","38","3","8","3A","C1","C","40"
"","","approach-retreat","44","532335","0.0-44.0","","","1-5","4840","39","1","Training","Stims/Figures/44-C-30-3.bmp","za:sa:za","Left","39","3","9","3A","C2","C","41"
"","","approach-retreat","45","538617","0.0-45.0","","","1-5","4740","40","1","Training","Stims/Figures/44-J-10-3.bmp","fafa:va","Down","40","3","10","3A","C1","C","42"
"","","approach-retreat","46","544276","0.0-46.0","","","1-5","4123","40","1","Training","Stims/Figures/27-J-0-1.bmp","fafa:va","Down","40","3","11","3A","C1","C","43"
"","","approach-retreat","47","550235","0.0-47.0","","","1-5","4419","38","1","Training","Stims/Figures/27-C-30-1.bmp","za:sa:za","Down","38","3","12","3A","C2","C","44"
"","","approach-retreat","48","556315","0.0-48.0","","","1-5","4526","38","1","Training","Stims/Figures/118-J-0-2.bmp","fafa:va","Up","38","3","13","3A","C1","C","45"
"","","approach-retreat","49","562619","0.0-49.0","","","1-5","4768","37","1","Training","Stims/Figures/7-C-20-4.bmp","za:sa:za","Right","37","3","14","3A","C2","C","46"
"","","approach-retreat","50","568566","0.0-50.0","","","1-5","4411","37","1","Training","Stims/Figures/7-J-10-4.bmp","fafa:va","Left","37","3","15","3A","C1","C","47"
"","","approach-retreat","51","576296","0.0-51.0","","","1-5","6193","40","1","Training","Stims/Figures/84-C-20-2.bmp","za:sa:za","Up","40","3","16","3A","C2","C","48"
"","","approach-retreat","52","583047","0.0-52.0","","","1-5","5213","37","1","Training","Stims/Figures/19-C-20-4.bmp","za:sa:za","Right","37","4","1","3A","C2","C","49"
"","","approach-retreat","53","588783","0.0-53.0","","","1-5","4196","40","1","Training","Stims/Figures/128-C-30-3.bmp","za:sa:za","Up","40","4","2","3A","C2","C","50"
"","","approach-retreat","54","594536","0.0-54.0","","","1-5","4227","38","1","Training","Stims/Figures/84-C-20-2.bmp","za:sa:za","Down","38","4","3","3A","C2","C","51"
"","","approach-retreat","55","602669","0.0-55.0","","","1-5","6586","37","1","Training","Stims/Figures/84-J-0-2.bmp","fafa:va","Left","37","4","4","3A","C1","C","52"
"","","approach-retreat","56","608873","0.0-56.0","","","1-5","4687","40","1","Training","Stims/Figures/7-C-20-4.bmp","za:sa:za","Up","40","4","5","3A","C2","C","53"
"","","approach-retreat","57","616112","0.0-57.0","","","1-5","5698","40","1","Training","Stims/Figures/27-C-30-1.bmp","za:sa:za","Up","40","4","6","3A","C2","C","54"
"","","approach-retreat","58","622850","0.0-58.0","","","1-5","5194","39","1","Training","Stims/Figures/118-C-20-2.bmp","za:sa:za","Left","39","4","7","3A","C2","C","55"
"","","approach-retreat","59","629187","0.0-59.0","","","1-5","4797","38","1","Training","Stims/Figures/93-C-30-1.bmp","za:sa:za","Down","38","4","8","3A","C2","C","56"
"","","approach-retreat","60","635302","0.0-60.0","","","1-5","4587","37","1","Training","Stims/Figures/44-J-10-3.bmp","fafa:va","Left","37","4","9","3A","C1","C","57"
"","","approach-retreat","61","641020","0.0-61.0","","","1-5","4191","37","1","Training","Stims/Figures/19-J-10-4.bmp","fafa:va","Left","37","4","10","3A","C1","C","58"
"","","approach-retreat","62","647129","0.0-62.0","","","1-5","4565","39","1","Training","Stims/Figures/93-J-0-1.bmp","fafa:va","Right","39","4","11","3A","C1","C","59"
"","","approach-retreat","63","652900","0.0-63.0","","","1-5","4253","38","1","Training","Stims/Figures/27-J-0-1.bmp","fafa:va","Up","38","4","12","3A","C1","C","60"
"","","approach-retreat","64","659318","0.0-64.0","","","1-5","4902","38","1","Training","Stims/Figures/44-C-30-3.bmp","za:sa:za","Down","38","4","13","3A","C2","C","61"
"","","approach-retreat","65","665680","0.0-65.0","","","1-5","4850","39","1","Training","Stims/Figures/118-J-0-2.bmp","fafa:va","Right","39","4","14","3A","C1","C","62"
"","","approach-retreat","66","671287","0.0-66.0","","","1-5","4075","39","1","Training","Stims/Figures/128-J-10-3.bmp","fafa:va","Right","39","4","15","3A","C1","C","63"
"","","approach-retreat","67","677031","0.0-67.0","","","1-5","4198","40","1","Training","Stims/Figures/7-J-10-4.bmp","fafa:va","Down","40","4","16","3A","C1","C","64"
"","","approach-retreat","68","682844","0.0-68.0","","","1-5","4295","39","1","Training","Stims/Figures/118-J-0-2.bmp","fafa:va","Right","39","5","1","3A","C1","C","65"
"","","approach-retreat","69","688758","0.0-69.0","","","1-5","4369","40","1","Training","Stims/Figures/128-C-30-3.bmp","za:sa:za","Up","40","5","2","3A","C2","C","66"
"","","approach-retreat","70","694528","0.0-70.0","","","1-5","4217","38","1","Training","Stims/Figures/44-C-30-3.bmp","za:sa:za","Down","38","5","3","3A","C2","C","67"
"","","approach-retreat","71","700186","0.0-71.0","","","1-5","4117","40","1","Training","Stims/Figures/84-C-20-2.bmp","za:sa:za","Up","40","5","4","3A","C2","C","68"
"","","approach-retreat","72","705711","0.0-72.0","","","1-5","3980","37","1","Training","Stims/Figures/27-C-30-1.bmp","za:sa:za","Right","37","5","5","3A","C2","C","69"
"","","approach-retreat","73","711517","0.0-73.0","","","1-5","4270","37","1","Training","Stims/Figures/19-C-20-4.bmp","za:sa:za","Right","37","5","6","3A","C2","C","70"
"","","approach-retreat","74","717468","0.0-74.0","","","1-5","4409","37","1","Training","Stims/Figures/7-J-10-4.bmp","fafa:va","Left","37","5","7","3A","C1","C","71"
"","","approach-retreat","75","724816","0.0-75.0","","","1-5","5828","39","1","Training","Stims/Figures/118-C-20-2.bmp","za:sa:za","Left","39","5","8","3A","C2","C","72"
"","","approach-retreat","76","731221","0.0-76.0","","","1-5","4859","39","1","Training","Stims/Figures/93-J-0-1.bmp","fafa:va","Right","39","5","9","3A","C1","C","73"
"","","approach-retreat","77","737123","0.0-77.0","","","1-5","4359","40","1","Training","Stims/Figures/84-J-0-2.bmp","fafa:va","Down","40","5","10","3A","C1","C","74"
"","","approach-retreat","78","742692","0.0-78.0","","","1-5","4049","39","1","Training","Stims/Figures/93-C-30-1.bmp","za:sa:za","Left","39","5","11","3A","C2","C","75"
"","","approach-retreat","79","748912","0.0-79.0","","","1-5","4680","37","1","Training","Stims/Figures/27-J-0-1.bmp","fafa:va","Left","37","5","12","3A","C1","C","76"
"","","approach-retreat","80","755612","0.0-80.0","","","1-5","5151","38","1","Training","Stims/Figures/7-C-20-4.bmp","za:sa:za","Down","38","5","13","3A","C2","C","77"
"","","approach-retreat","81","762663","0.0-81.0","","","1-5","5513","38","1","Training","Stims/Figures/19-J-10-4.bmp","fafa:va","Up","38","5","14","3A","C1","C","78"
"","","approach-retreat","82","771518","0.0-82.0","","","1-5","7318","38","1","Training","Stims/Figures/44-J-10-3.bmp","fafa:va","Up","38","5","15","3A","C1","C","79"
"","","approach-retreat","83","777347","0.0-83.0","","","1-5","4299","40","1","Training","Stims/Figures/128-J-10-3.bmp","fafa:va","Down","40","5","16","3A","C1","C","80"
"","","approach-retreat","84","782813","0.0-84.0","","","1-5","3947","38","1","Training","Stims/Figures/93-J-0-1.bmp","fafa:va","Up","38","6","1","3A","C1","C","81"
"","","approach-retreat","85","789114","0.0-85.0","","","1-5","4760","40","1","Training","Stims/Figures/128-C-30-3.bmp","za:sa:za","Up","40","6","2","3A","C2","C","82"
"","","approach-retreat","86","795177","0.0-86.0","","","1-5","4536","39","1","Training","Stims/Figures/44-C-30-3.bmp","za:sa:za","Left","39","6","3","3A","C2","C","83"
"","","approach-retreat","87","800778","0.0-87.0","","","1-5","4061","39","1","Training","Stims/Figures/84-J-0-2.bmp","fafa:va","Right","39","6","4","3A","C1","C","84"
"","","approach-retreat","88","807104","0.0-88.0","","","1-5","4777","40","1","Training","Stims/Figures/128-J-10-3.bmp","fafa:va","Down","40","6","5","3A","C1","C","85"
"","","approach-retreat","89","814290","0.0-89.0","","","1-5","5658","38","1","Training","Stims/Figures/84-C-20-2.bmp","za:sa:za","Down","38","6","6","3A","C2","C","86"
"","","approach-retreat","90","821597","0.0-90.0","","","1-5","5770","39","1","Training","Stims/Figures/7-C-20-4.bmp","za:sa:za","Left","39","6","7","3A","C2","C","87"
"","","approach-retreat","91","827340","0.0-91.0","","","1-5","4194","37","1","Training","Stims/Figures/19-J-10-4.bmp","fafa:va","Left","37","6","8","3A","C1","C","88"
"","","approach-retreat","92","833860","0.0-92.0","","","1-5","4973","39","1","Training","Stims/Figures/7-J-10-4.bmp","fafa:va","Right","39","6","9","3A","C1","C","89"
"","","approach-retreat","93","839370","0.0-93.0","","","1-5","3973","37","1","Training","Stims/Figures/19-C-20-4.bmp","za:sa:za","Right","37","6","10","3A","C2","C","90"
"","","approach-retreat","94","846078","0.0-94.0","","","1-5","5161","37","1","Training","Stims/Figures/44-J-10-3.bmp","fafa:va","Left","37","6","11","3A","C1","C","91"
"","","approach-retreat","95","853929","0.0-95.0","","","1-5","6307","39","1","Training","Stims/Figures/27-J-0-1.bmp","fafa:va","Right","39","6","12","3A","C1","C","92"
"","","approach-retreat","96","860208","0.0-96.0","","","1-5","4749","38","1","Training","Stims/Figures/27-C-30-1.bmp","za:sa:za","Down","38","6","13","3A","C2","C","93"
"","","approach-retreat","97","866566","0.0-97.0","","","1-5","4837","40","1","Training","Stims/Figures/118-C-20-2.bmp","za:sa:za","Up","40","6","14","3A","C2","C","94"
"","","approach-retreat","98","873086","0.0-98.0","","","1-5","4972","38","1","Training","Stims/Figures/93-C-30-1.bmp","za:sa:za","Down","38","6","15","3A","C2","C","95"
"","","approach-retreat","99","879807","0.0-99.0","","","1-5","5177","38","1","Training","Stims/Figures/118-J-0-2.bmp","fafa:va","Up","38","6","16","3A","C1","C","96"
"","","approach-retreat","100","886056","0.0-100.0","","","1-5","4731","40","1","Training","Stims/Figures/93-J-0-1.bmp","fafa:va","Down","40","7","1","3A","C1","C","97"
"","","approach-retreat","101","893014","0.0-101.0","","","1-5","5442","37","1","Training","Stims/Figures/27-J-0-1.bmp","fafa:va","Left","37","7","2","3A","C1","C","98"
"","","approach-retreat","102","900473","0.0-102.0","","","1-5","5915","38","1","Training","Stims/Figures/128-J-10-3.bmp","fafa:va","Up","38","7","3","3A","C1","C","99"
"","","approach-retreat","103","908926","0.0-103.0","","","1-5","6918","38","1","Training","Stims/Figures/93-C-30-1.bmp","za:sa:za","Down","38","7","4","3A","C2","C","100"
"","","approach-retreat","104","914675","0.0-104.0","","","1-5","4206","37","1","Training","Stims/Figures/84-J-0-2.bmp","fafa:va","Left","37","7","5","3A","C1","C","101"
"","","approach-retreat","105","920360","0.0-105.0","","","1-5","4171","40","1","Training","Stims/Figures/84-C-20-2.bmp","za:sa:za","Up","40","7","6","3A","C2","C","102"
"","","approach-retreat","106","926325","0.0-106.0","","","1-5","4447","38","1","Training","Stims/Figures/118-J-0-2.bmp","fafa:va","Up","38","7","7","3A","C1","C","103"
"","","approach-retreat","107","932310","0.0-107.0","","","1-5","4442","39","1","Training","Stims/Figures/19-C-20-4.bmp","za:sa:za","Left","39","7","8","3A","C2","C","104"
"","","approach-retreat","108","938011","0.0-108.0","","","1-5","4156","38","1","Training","Stims/Figures/7-C-20-4.bmp","za:sa:za","Down","38","7","9","3A","C2","C","105"
"","","approach-retreat","109","944409","0.0-109.0","","","1-5","4841","39","1","Training","Stims/Figures/7-J-10-4.bmp","fafa:va","Right","39","7","10","3A","C1","C","106"
"","","approach-retreat","110","950459","0.0-110.0","","","1-5","4507","37","1","Training","Stims/Figures/128-C-30-3.bmp","za:sa:za","Right","37","7","11","3A","C2","C","107"
"","","approach-retreat","111","956431","0.0-111.0","","","1-5","4423","37","1","Training","Stims/Figures/19-J-10-4.bmp","fafa:va","Left","37","7","12","3A","C1","C","108"
"","","approach-retreat","112","963596","0.0-112.0","","","1-5","5620","38","1","Training","Stims/Figures/44-C-30-3.bmp","za:sa:za","Down","38","7","13","3A","C2","C","109"
"","","approach-retreat","113","971015","0.0-113.0","","","1-5","5874","37","1","Training","Stims/Figures/118-C-20-2.bmp","za:sa:za","Right","37","7","14","3A","C2","C","110"
"","","approach-retreat","114","977346","0.0-114.0","","","1-5","4791","38","1","Training","Stims/Figures/44-J-10-3.bmp","fafa:va","Up","38","7","15","3A","C1","C","111"
"","","approach-retreat","115","984103","0.0-115.0","","","1-5","5219","37","1","Training","Stims/Figures/27-C-30-1.bmp","za:sa:za","Right","37","7","16","3A","C2","C","112"
"","","approach-retreat","116","992320","0.0-116.0","","","1-5","6679","40","1","Training","Stims/Figures/93-J-0-1.bmp","fafa:va","Down","40","8","1","3A","C1","C","113"
"","","approach-retreat","117","998033","0.0-117.0","","","1-5","4175","39","1","Training","Stims/Figures/7-C-20-4.bmp","za:sa:za","Left","39","8","2","3A","C2","C","114"
"","","approach-retreat","118","1003574","0.0-118.0","","","1-5","4025","37","1","Training","Stims/Figures/118-C-20-2.bmp","za:sa:za","Right","37","8","3","3A","C2","C","115"
"","","approach-retreat","119","1009358","0.0-119.0","","","1-5","4247","40","1","Training","Stims/Figures/93-C-30-1.bmp","za:sa:za","Up","40","8","4","3A","C2","C","116"
"","","approach-retreat","120","1015749","0.0-120.0","","","1-5","4852","37","1","Training","Stims/Figures/7-J-10-4.bmp","fafa:va","Left","37","8","5","3A","C1","C","117"
"","","approach-retreat","121","1022182","0.0-121.0","","","1-5","4894","39","1","Training","Stims/Figures/128-C-30-3.bmp","za:sa:za","Left","39","8","6","3A","C2","C","118"
"","","approach-retreat","122","1028396","0.0-122.0","","","1-5","4698","37","1","Training","Stims/Figures/84-C-20-2.bmp","za:sa:za","Right","37","8","7","3A","C2","C","119"
"","","approach-retreat","123","1034874","0.0-123.0","","","1-5","4941","40","1","Training","Stims/Figures/27-J-0-1.bmp","fafa:va","Down","40","8","8","3A","C1","C","120"
"","","approach-retreat","124","1040823","0.0-124.0","","","1-5","4413","38","1","Training","Stims/Figures/84-J-0-2.bmp","fafa:va","Up","38","8","9","3A","C1","C","121"
"","","approach-retreat","125","1047444","0.0-125.0","","","1-5","5101","37","1","Training","Stims/Figures/44-C-30-3.bmp","za:sa:za","Right","37","8","10","3A","C2","C","122"
"","","approach-retreat","126","1053116","0.0-126.0","","","1-5","4129","39","1","Training","Stims/Figures/118-J-0-2.bmp","fafa:va","Right","39","8","11","3A","C1","C","123"
"","","approach-retreat","127","1058942","0.0-127.0","","","1-5","4287","38","1","Training","Stims/Figures/128-J-10-3.bmp","fafa:va","Up","38","8","12","3A","C1","C","124"
"","","approach-retreat","128","1065122","0.0-128.0","","","1-5","4636","40","1","Training","Stims/Figures/19-C-20-4.bmp","za:sa:za","Up","40","8","13","3A","C2","C","125"
"","","approach-retreat","129","1071110","0.0-129.0","","","1-5","4440","40","1","Training","Stims/Figures/19-J-10-4.bmp","fafa:va","Down","40","8","14","3A","C1","C","126"
"","","approach-retreat","130","1077289","0.0-130.0","","","1-5","4639","38","1","Training","Stims/Figures/27-C-30-1.bmp","za:sa:za","Down","38","8","15","3A","C2","C","127"
"","","approach-retreat","131","1082836","0.0-131.0","","","1-5","4005","37","1","Training","Stims/Figures/44-J-10-3.bmp","fafa:va","Left","37","8","16","3A","C1","C","128"
"","","approach-retreat","132","1088335","0.0-132.0","","","1-5","3963","39","1","Training","Stims/Figures/44-J-10-3.bmp","fafa:va","Right","39","9","1","3A","C1","C","129"
"","","approach-retreat","133","1094428","0.0-133.0","","","1-5","4565","38","1","Training","Stims/Figures/7-C-20-4.bmp","za:sa:za","Down","38","9","2","3A","C2","C","130"
"","","approach-retreat","134","1100223","0.0-134.0","","","1-5","4260","37","1","Training","Stims/Figures/118-C-20-2.bmp","za:sa:za","Right","37","9","3","3A","C2","C","131"
"","","approach-retreat","135","1107009","0.0-135.0","","","1-5","5238","37","1","Training","Stims/Figures/128-C-30-3.bmp","za:sa:za","Right","37","9","4","3A","C2","C","132"
"","","approach-retreat","136","1114155","0.0-136.0","","","1-5","5616","38","1","Training","Stims/Figures/84-C-20-2.bmp","za:sa:za","Down","38","9","5","3A","C2","C","133"
"","","approach-retreat","137","1119773","0.0-137.0","","","1-5","4076","39","1","Training","Stims/Figures/27-J-0-1.bmp","fafa:va","Right","39","9","6","3A","C1","C","134"
"","","approach-retreat","138","1125439","0.0-138.0","","","1-5","4148","38","1","Training","Stims/Figures/128-J-10-3.bmp","fafa:va","Up","38","9","7","3A","C1","C","135"
"","","approach-retreat","139","1131769","0.0-139.0","","","1-5","4810","39","1","Training","Stims/Figures/27-C-30-1.bmp","za:sa:za","Left","39","9","8","3A","C2","C","136"
"","","approach-retreat","140","1138413","0.0-140.0","","","1-5","5094","39","1","Training","Stims/Figures/44-C-30-3.bmp","za:sa:za","Left","39","9","9","3A","C2","C","137"
"","","approach-retreat","141","1144741","0.0-141.0","","","1-5","4786","37","1","Training","Stims/Figures/7-J-10-4.bmp","fafa:va","Left","37","9","10","3A","C1","C","138"
"","","approach-retreat","142","1150670","0.0-142.0","","","1-5","4391","40","1","Training","Stims/Figures/84-J-0-2.bmp","fafa:va","Down","40","9","11","3A","C1","C","139"
"","","approach-retreat","143","1157086","0.0-143.0","","","1-5","4896","40","1","Training","Stims/Figures/19-C-20-4.bmp","za:sa:za","Up","40","9","12","3A","C2","C","140"
"","","approach-retreat","144","1164245","0.0-144.0","","","1-5","5614","40","1","Training","Stims/Figures/19-J-10-4.bmp","fafa:va","Down","40","9","13","3A","C1","C","141"
"","","approach-retreat","145","1170751","0.0-145.0","","","1-5","4962","40","1","Training","Stims/Figures/93-C-30-1.bmp","za:sa:za","Up","40","9","14","3A","C2","C","142"
"","","approach-retreat","146","1176688","0.0-146.0","","","1-5","4394","37","1","Training","Stims/Figures/118-J-0-2.bmp","fafa:va","Left","37","9","15","3A","C1","C","143"
"","","approach-retreat","147","1182643","0.0-147.0","","","1-5","4412","38","1","Training","Stims/Figures/93-J-0-1.bmp","fafa:va","Up","38","9","16","3A","C1","C","144"
"51731","","instructions","148","1234375","0.0-148.0","[{""page_index"":0,""viewing_time"":51729}]","","","","","","","","","","","","","","","",""
"","","approach-retreat","149","1240471","0.0-149.0","","","1-5","4566","39","1","Testing","Stims/Figures/27-J-0-1.bmp","fafa:va","Right","39","1","1","3A","C1","C","1"
"","","approach-retreat","150","1246552","0.0-150.0","","","1-5","4546","39","1","Testing","Stims/Figures/139-C-20-2.bmp","za:sa:za","Left","39","1","2","3A","C2","C","2"
"","","approach-retreat","151","1253186","0.0-151.0","","","1-5","5099","39","1","Testing","Stims/Figures/84-C-20-2.bmp","za:sa:za","Left","39","1","3","3A","C2","C","3"
"","","approach-retreat","152","1258992","0.0-152.0","","","1-5","4274","40","1","Testing","Stims/Figures/111-C-30-3.bmp","za:sa:za","Up","40","1","4","3A","C2","C","4"
"","","approach-retreat","153","1264757","0.0-153.0","","","1-5","4233","38","1","Testing","Stims/Figures/139-J-0-2.bmp","fafa:va","Up","38","1","5","3A","C1","C","5"
"","","approach-retreat","154","1271332","0.0-154.0","","","1-5","5041","37","1","Testing","Stims/Figures/93-J-0-1.bmp","fafa:va","Left","37","1","6","3A","C1","C","6"
"","","approach-retreat","155","1277782","0.0-155.0","","","1-5","4914","38","1","Testing","Stims/Figures/128-C-30-3.bmp","za:sa:za","Down","38","1","7","3A","C2","C","7"
"","","approach-retreat","156","1286069","0.0-156.0","","","1-5","6752","38","1","Testing","Stims/Figures/74-C-20-4.bmp","za:sa:za","Down","38","1","8","3A","C2","C","8"
"","","approach-retreat","157","1293537","0.0-157.0","","","1-5","5933","38","1","Testing","Stims/Figures/84-J-0-2.bmp","fafa:va","Up","38","1","9","3A","C1","C","9"
"","","approach-retreat","158","1299491","0.0-158.0","","","1-5","4421","39","1","Testing","Stims/Figures/111-J-10-3.bmp","fafa:va","Right","39","1","10","3A","C1","C","10"
"","","approach-retreat","159","1306999","0.0-159.0","","","1-5","5976","39","1","Testing","Stims/Figures/118-J-0-2.bmp","fafa:va","Right","39","1","11","3A","C1","C","11"
"","","approach-retreat","160","1312625","0.0-160.0","","","1-5","4096","38","1","Testing","Stims/Figures/57-C-30-1.bmp","za:sa:za","Down","38","1","12","3A","C2","C","12"
"","","approach-retreat","161","1318807","0.0-161.0","","","1-5","4648","37","0","Testing","Stims/Figures/128-J-10-3.bmp","fafa:va","Right","39","1","13","3A","C1","C","13"
"","","approach-retreat","162","1326241","0.0-162.0","","","1-5","5899","37","1","Testing","Stims/Figures/19-C-20-4.bmp","za:sa:za","Right","37","1","14","3A","C2","C","14"
"","","approach-retreat","163","1332407","0.0-163.0","","","1-5","4635","40","1","Testing","Stims/Figures/57-J-0-1.bmp","fafa:va","Down","40","1","15","3A","C1","C","15"
"","","approach-retreat","164","1339421","0.0-164.0","","","1-5","5482","40","0","Testing","Stims/Figures/44-J-10-3.bmp","fafa:va","Up","38","1","16","3A","C1","C","16"
"","","approach-retreat","165","1345940","0.0-165.0","","","1-5","4984","39","1","Testing","Stims/Figures/118-C-20-2.bmp","za:sa:za","Left","39","1","17","3A","C2","C","17"
"","","approach-retreat","166","1352358","0.0-166.0","","","1-5","4885","40","1","Testing","Stims/Figures/93-C-30-1.bmp","za:sa:za","Up","40","1","18","3A","C2","C","18"
"","","approach-retreat","167","1359036","0.0-167.0","","","1-5","5127","40","1","Testing","Stims/Figures/7-C-20-4.bmp","za:sa:za","Up","40","1","19","3A","C2","C","19"
"","","approach-retreat","168","1366290","0.0-168.0","","","1-5","5722","39","0","Testing","Stims/Figures/74-J-10-4.bmp","fafa:va","Left","37","1","20","3A","C1","C","20"
"","","approach-retreat","169","1372351","0.0-169.0","","","1-5","4527","38","1","Testing","Stims/Figures/27-C-30-1.bmp","za:sa:za","Down","38","1","21","3A","C2","C","21"
"","","approach-retreat","170","1377955","0.0-170.0","","","1-5","4073","39","0","Testing","Stims/Figures/7-J-10-4.bmp","fafa:va","Left","37","1","22","3A","C1","C","22"
"","","approach-retreat","171","1384728","0.0-171.0","","","1-5","5240","39","1","Testing","Stims/Figures/19-J-10-4.bmp","fafa:va","Right","39","1","23","3A","C1","C","23"
"","","approach-retreat","172","1390807","0.0-172.0","","","1-5","4545","38","1","Testing","Stims/Figures/44-C-30-3.bmp","za:sa:za","Down","38","1","24","3A","C2","C","24"
"","","approach-retreat","173","1397568","0.0-173.0","","","1-5","5244","38","0","Testing","Stims/Figures/7-J-10-4.bmp","fafa:va","Down","40","2","1","3A","C1","C","25"
"","","approach-retreat","174","1403132","0.0-174.0","","","1-5","4031","38","0","Testing","Stims/Figures/44-J-10-3.bmp","fafa:va","Down","40","2","2","3A","C1","C","26"
"","","approach-retreat","175","1408854","0.0-175.0","","","1-5","4198","39","1","Testing","Stims/Figures/44-C-30-3.bmp","za:sa:za","Left","39","2","3","3A","C2","C","27"
"","","approach-retreat","176","1415995","0.0-176.0","","","1-5","5611","40","0","Testing","Stims/Figures/111-J-10-3.bmp","fafa:va","Up","38","2","4","3A","C1","C","28"
"","","approach-retreat","177","1421482","0.0-177.0","","","1-5","3960","37","1","Testing","Stims/Figures/57-C-30-1.bmp","za:sa:za","Right","37","2","5","3A","C2","C","29"
"","","approach-retreat","178","1427248","0.0-178.0","","","1-5","4231","38","1","Testing","Stims/Figures/128-C-30-3.bmp","za:sa:za","Down","38","2","6","3A","C2","C","30"
"","","approach-retreat","179","1434362","0.0-179.0","","","1-5","5578","38","1","Testing","Stims/Figures/84-J-0-2.bmp","fafa:va","Up","38","2","7","3A","C1","C","31"
"","","approach-retreat","180","1440538","0.0-180.0","","","1-5","4642","40","1","Testing","Stims/Figures/93-J-0-1.bmp","fafa:va","Down","40","2","8","3A","C1","C","32"
"","","approach-retreat","181","1446914","0.0-181.0","","","1-5","4842","37","1","Testing","Stims/Figures/84-C-20-2.bmp","za:sa:za","Right","37","2","9","3A","C2","C","33"
"","","approach-retreat","182","1452964","0.0-182.0","","","1-5","4520","38","1","Testing","Stims/Figures/7-C-20-4.bmp","za:sa:za","Down","38","2","10","3A","C2","C","34"
"","","approach-retreat","183","1458622","0.0-183.0","","","1-5","4144","40","1","Testing","Stims/Figures/93-C-30-1.bmp","za:sa:za","Up","40","2","11","3A","C2","C","35"
"","","approach-retreat","184","1466305","0.0-184.0","","","1-5","6147","39","1","Testing","Stims/Figures/118-C-20-2.bmp","za:sa:za","Left","39","2","12","3A","C2","C","36"
"","","approach-retreat","185","1473420","0.0-185.0","","","1-5","5592","37","1","Testing","Stims/Figures/139-C-20-2.bmp","za:sa:za","Right","37","2","13","3A","C2","C","37"
"","","approach-retreat","186","1478972","0.0-186.0","","","1-5","4018","37","1","Testing","Stims/Figures/57-J-0-1.bmp","fafa:va","Left","37","2","14","3A","C1","C","38"
"","","approach-retreat","187","1484898","0.0-187.0","","","1-5","4401","38","1","Testing","Stims/Figures/139-J-0-2.bmp","fafa:va","Up","38","2","15","3A","C1","C","39"
"","","approach-retreat","188","1490722","0.0-188.0","","","1-5","4292","38","1","Testing","Stims/Figures/27-J-0-1.bmp","fafa:va","Up","38","2","16","3A","C1","C","40"
"","","approach-retreat","189","1496752","0.0-189.0","","","1-5","4487","40","0","Testing","Stims/Figures/74-J-10-4.bmp","fafa:va","Up","38","2","17","3A","C1","C","41"
"","","approach-retreat","190","1502987","0.0-190.0","","","1-5","4699","37","0","Testing","Stims/Figures/128-J-10-3.bmp","fafa:va","Right","39","2","18","3A","C1","C","42"
"","","approach-retreat","191","1509954","0.0-191.0","","","1-5","5435","38","1","Testing","Stims/Figures/111-C-30-3.bmp","za:sa:za","Down","38","2","19","3A","C2","C","43"
"","","approach-retreat","192","1515789","0.0-192.0","","","1-5","4302","37","0","Testing","Stims/Figures/19-C-20-4.bmp","za:sa:za","Left","39","2","20","3A","C2","C","44"
"","","approach-retreat","193","1522875","0.0-193.0","","","1-5","5554","37","1","Testing","Stims/Figures/27-C-30-1.bmp","za:sa:za","Right","37","2","21","3A","C2","C","45"
"","","approach-retreat","194","1528994","0.0-194.0","","","1-5","4586","39","1","Testing","Stims/Figures/118-J-0-2.bmp","fafa:va","Right","39","2","22","3A","C1","C","46"
"","","approach-retreat","195","1535707","0.0-195.0","","","1-5","5179","39","1","Testing","Stims/Figures/74-C-20-4.bmp","za:sa:za","Left","39","2","23","3A","C2","C","47"
"","","approach-retreat","196","1542235","0.0-196.0","","","1-5","4991","37","1","Testing","Stims/Figures/19-J-10-4.bmp","fafa:va","Left","37","2","24","3A","C1","C","48"
"","","approach-retreat","197","1548649","0.0-197.0","","","1-5","4879","37","1","Testing","Stims/Figures/128-C-30-3.bmp","za:sa:za","Right","37","3","1","3A","C2","C","49"
"","","approach-retreat","198","1555895","0.0-198.0","","","1-5","5710","37","1","Testing","Stims/Figures/19-C-20-4.bmp","za:sa:za","Right","37","3","2","3A","C2","C","50"
"","","approach-retreat","199","1562596","0.0-199.0","","","1-5","5167","39","1","Testing","Stims/Figures/93-J-0-1.bmp","fafa:va","Right","39","3","3","3A","C1","C","51"
"","","approach-retreat","200","1569032","0.0-200.0","","","1-5","4905","39","1","Testing","Stims/Figures/118-C-20-2.bmp","za:sa:za","Left","39","3","4","3A","C2","C","52"
"","","approach-retreat","201","1577205","0.0-201.0","","","1-5","6657","40","0","Testing","Stims/Figures/7-J-10-4.bmp","fafa:va","Up","38","3","5","3A","C1","C","53"
"","","approach-retreat","202","1582941","0.0-202.0","","","1-5","4203","40","1","Testing","Stims/Figures/84-J-0-2.bmp","fafa:va","Down","40","3","6","3A","C1","C","54"
"","","approach-retreat","203","1589551","0.0-203.0","","","1-5","5077","37","1","Testing","Stims/Figures/84-C-20-2.bmp","za:sa:za","Right","37","3","7","3A","C2","C","55"
"","","approach-retreat","204","1595313","0.0-204.0","","","1-5","4229","38","0","Testing","Stims/Figures/44-J-10-3.bmp","fafa:va","Down","40","3","8","3A","C1","C","56"
"","","approach-retreat","205","1601600","0.0-205.0","","","1-5","4758","39","1","Testing","Stims/Figures/27-J-0-1.bmp","fafa:va","Right","39","3","9","3A","C1","C","57"
"","","approach-retreat","206","1608220","0.0-206.0","","","1-5","5089","38","1","Testing","Stims/Figures/57-C-30-1.bmp","za:sa:za","Down","38","3","10","3A","C2","C","58"
"","","approach-retreat","207","1614147","0.0-207.0","","","1-5","4397","37","1","Testing","Stims/Figures/118-J-0-2.bmp","fafa:va","Left","37","3","11","3A","C1","C","59"
"","","approach-retreat","208","1621184","0.0-208.0","","","1-5","5524","37","1","Testing","Stims/Figures/111-J-10-3.bmp","fafa:va","Left","37","3","12","3A","C1","C","60"
"","","approach-retreat","209","1627578","0.0-209.0","","","1-5","4863","38","1","Testing","Stims/Figures/128-J-10-3.bmp","fafa:va","Up","38","3","13","3A","C1","C","61"
"","","approach-retreat","210","1633157","0.0-210.0","","","1-5","4049","37","1","Testing","Stims/Figures/139-J-0-2.bmp","fafa:va","Left","37","3","14","3A","C1","C","62"
"","","approach-retreat","211","1639250","0.0-211.0","","","1-5","4563","37","1","Testing","Stims/Figures/57-J-0-1.bmp","fafa:va","Left","37","3","15","3A","C1","C","63"
"","","approach-retreat","212","1645049","0.0-212.0","","","1-5","4265","38","0","Testing","Stims/Figures/19-J-10-4.bmp","fafa:va","Down","40","3","16","3A","C1","C","64"
"","","approach-retreat","213","1650642","0.0-213.0","","","1-5","4055","37","0","Testing","Stims/Figures/74-J-10-4.bmp","fafa:va","Right","39","3","17","3A","C1","C","65"
"","","approach-retreat","214","1656391","0.0-214.0","","","1-5","4240","40","1","Testing","Stims/Figures/111-C-30-3.bmp","za:sa:za","Up","40","3","18","3A","C2","C","66"
"","","approach-retreat","215","1661945","0.0-215.0","","","1-5","4019","39","1","Testing","Stims/Figures/139-C-20-2.bmp","za:sa:za","Left","39","3","19","3A","C2","C","67"
"","","approach-retreat","216","1668059","0.0-216.0","","","1-5","4583","40","1","Testing","Stims/Figures/74-C-20-4.bmp","za:sa:za","Up","40","3","20","3A","C2","C","68"
"","","approach-retreat","217","1673896","0.0-217.0","","","1-5","4302","38","1","Testing","Stims/Figures/27-C-30-1.bmp","za:sa:za","Down","38","3","21","3A","C2","C","69"
"","","approach-retreat","218","1681134","0.0-218.0","","","1-5","5707","40","1","Testing","Stims/Figures/7-C-20-4.bmp","za:sa:za","Up","40","3","22","3A","C2","C","70"
"","","approach-retreat","219","1687250","0.0-219.0","","","1-5","4582","40","1","Testing","Stims/Figures/44-C-30-3.bmp","za:sa:za","Up","40","3","23","3A","C2","C","71"
"","","approach-retreat","220","1693161","0.0-220.0","","","1-5","4381","38","1","Testing","Stims/Figures/93-C-30-1.bmp","za:sa:za","Down","38","3","24","3A","C2","C","72"
"","","approach-retreat","221","1699136","0.0-221.0","","","1-5","4442","37","1","Testing","Stims/Figures/74-C-20-4.bmp","za:sa:za","Right","37","4","1","3A","C2","C","73"
"","","approach-retreat","222","1704887","0.0-222.0","","","1-5","4239","37","0","Testing","Stims/Figures/7-J-10-4.bmp","fafa:va","Right","39","4","2","3A","C1","C","74"
"","","approach-retreat","223","1710897","0.0-223.0","","","1-5","4480","38","1","Testing","Stims/Figures/139-J-0-2.bmp","fafa:va","Up","38","4","3","3A","C1","C","75"
"","","approach-retreat","224","1717668","0.0-224.0","","","1-5","5235","38","1","Testing","Stims/Figures/118-J-0-2.bmp","fafa:va","Up","38","4","4","3A","C1","C","76"
"","","approach-retreat","225","1723427","0.0-225.0","","","1-5","4225","40","1","Testing","Stims/Figures/19-J-10-4.bmp","fafa:va","Down","40","4","5","3A","C1","C","77"
"","","approach-retreat","226","1728957","0.0-226.0","","","1-5","3998","37","1","Testing","Stims/Figures/44-J-10-3.bmp","fafa:va","Left","37","4","6","3A","C1","C","78"
"","","approach-retreat","227","1736931","0.0-227.0","","","1-5","6441","39","1","Testing","Stims/Figures/7-C-20-4.bmp","za:sa:za","Left","39","4","7","3A","C2","C","79"
"","","approach-retreat","228","1742951","0.0-228.0","","","1-5","4486","39","1","Testing","Stims/Figures/44-C-30-3.bmp","za:sa:za","Left","39","4","8","3A","C2","C","80"
"","","approach-retreat","229","1748585","0.0-229.0","","","1-5","4103","40","1","Testing","Stims/Figures/84-C-20-2.bmp","za:sa:za","Up","40","4","9","3A","C2","C","81"
"","","approach-retreat","230","1754625","0.0-230.0","","","1-5","4507","37","1","Testing","Stims/Figures/128-C-30-3.bmp","za:sa:za","Right","37","4","10","3A","C2","C","82"
"","","approach-retreat","231","1761175","0.0-231.0","","","1-5","5024","38","1","Testing","Stims/Figures/27-C-30-1.bmp","za:sa:za","Down","38","4","11","3A","C2","C","83"
"","","approach-retreat","232","1767094","0.0-232.0","","","1-5","4383","40","1","Testing","Stims/Figures/57-J-0-1.bmp","fafa:va","Down","40","4","12","3A","C1","C","84"
"","","approach-retreat","233","1772893","0.0-233.0","","","1-5","4266","37","1","Testing","Stims/Figures/57-C-30-1.bmp","za:sa:za","Right","37","4","13","3A","C2","C","85"
"","","approach-retreat","234","1779085","0.0-234.0","","","1-5","4659","37","1","Testing","Stims/Figures/111-C-30-3.bmp","za:sa:za","Right","37","4","14","3A","C2","C","86"
"","","approach-retreat","235","1784975","0.0-235.0","","","1-5","4357","37","1","Testing","Stims/Figures/84-J-0-2.bmp","fafa:va","Left","37","4","15","3A","C1","C","87"
"","","approach-retreat","236","1792329","0.0-236.0","","","1-5","5816","40","1","Testing","Stims/Figures/93-C-30-1.bmp","za:sa:za","Up","40","4","16","3A","C2","C","88"
"","","approach-retreat","237","1798731","0.0-237.0","","","1-5","4888","37","1","Testing","Stims/Figures/111-J-10-3.bmp","fafa:va","Left","37","4","17","3A","C1","C","89"
"","","approach-retreat","238","1805531","0.0-238.0","","","1-5","5269","40","1","Testing","Stims/Figures/128-J-10-3.bmp","fafa:va","Down","40","4","18","3A","C1","C","90"
"","","approach-retreat","239","1811166","0.0-239.0","","","1-5","4102","38","1","Testing","Stims/Figures/19-C-20-4.bmp","za:sa:za","Down","38","4","19","3A","C2","C","91"
"","","approach-retreat","240","1816934","0.0-240.0","","","1-5","4236","39","1","Testing","Stims/Figures/139-C-20-2.bmp","za:sa:za","Left","39","4","20","3A","C2","C","92"
"","","approach-retreat","241","1823390","0.0-241.0","","","1-5","4920","40","1","Testing","Stims/Figures/118-C-20-2.bmp","za:sa:za","Up","40","4","21","3A","C2","C","93"
"","","approach-retreat","242","1829147","0.0-242.0","","","1-5","4227","40","1","Testing","Stims/Figures/93-J-0-1.bmp","fafa:va","Down","40","4","22","3A","C1","C","94"
"","","approach-retreat","243","1834925","0.0-243.0","","","1-5","4249","38","1","Testing","Stims/Figures/74-J-10-4.bmp","fafa:va","Up","38","4","23","3A","C1","C","95"
"","","approach-retreat","244","1840804","0.0-244.0","","","1-5","4344","39","1","Testing","Stims/Figures/27-J-0-1.bmp","fafa:va","Right","39","4","24","3A","C1","C","96"
"62684","","survey-text","245","1903506","0.0-245.0","","{""Q0"":""1120/2018""}","","","","","","","","","","","","","","",""
