\"rt\",\"key_press\",\"trial_type\",\"trial_index\",\"time_elapsed\",\"internal_node_id\",\"view_history\",\"responses\",\"Id\",\"Rt\",\"ResKeyCode\",\"ResCorr\",\"TrialType2\",\"Image\",\"Label\",\"Location\",\"CorrectResponse\",\"Block\",\"BlockTrial\",\"Condition\",\"LabelType\",\"Subcondition\",\"trialNum\"
\"26700\",\"32\",\"text\",\"0\",\"26727\",\"0.0-0.0-0.0\",\"\",\"\",\"\",\"\",\"\",\"\",\"\",\"\",\"\",\"\",\"\",\"\",\"\",\"\",\"\",\"\",\"\"
\"62885\",\"\",\"instructions\",\"1\",\"89623\",\"0.0-1.0\",\"[{\"\"page_index\"\":0,\"\"viewing_time\"\":62881}]\",\"\",\"\",\"\",\"\",\"\",\"\",\"\",\"\",\"\",\"\",\"\",\"\",\"\",\"\",\"\",\"\"
\"17351\",\"\",\"survey-multi-choice\",\"2\",\"107175\",\"0.0-2.0\",\"\",\"{\"\"Q0\"\":\"\"Da\"\",\"\"Q1\"\":\"\"Da\"\",\"\"Q2\"\":\"\"Da\"\",\"\"Q3\"\":\"\"Da\"\",\"\"Q4\"\":\"\"Da\"\",\"\"Q5\"\":\"\"Da\"\"}\",\"\",\"\",\"\",\"\",\"\",\"\",\"\",\"\",\"\",\"\",\"\",\"\",\"\",\"\",\"\"
\"\",\"\",\"bio\",\"3\",\"113142\",\"0.0-3.0\",\"\",\"{\"\"age\"\":\"\"19\"\",\"\"gender\"\":\"\"m\"\",\"\"specify\"\":\"\"\"\"}\",\"\",\"\",\"\",\"\",\"\",\"\",\"\",\"\",\"\",\"\",\"\",\"\",\"\",\"\",\"\"
\"\",\"\",\"approach-retreat\",\"4\",\"121042\",\"0.0-4.0\",\"\",\"\",\"1-4\",\"6346\",\"40\",\"1\",\"Training\",\"Stims/Figures/86-C-30-1.bmp\",\"pakata\",\"Down\",\"40\",\"1\",\"1\",\"5\",\"P\",\"J\",\"1\"
\"\",\"\",\"approach-retreat\",\"5\",\"131803\",\"0.0-5.0\",\"\",\"\",\"1-4\",\"9233\",\"40\",\"0\",\"Training\",\"Stims/Figures/84-J-0-2.bmp\",\"na:lana\",\"Down\",\"38\",\"1\",\"2\",\"5\",\"S\",\"J\",\"2\"
\"\",\"\",\"approach-retreat\",\"6\",\"139145\",\"0.0-6.0\",\"\",\"\",\"1-4\",\"5817\",\"40\",\"1\",\"Training\",\"Stims/Figures/19-C-20-4.bmp\",\"ta:ka:ka\",\"Down\",\"40\",\"1\",\"3\",\"5\",\"P\",\"J\",\"3\"
\"\",\"\",\"approach-retreat\",\"7\",\"148530\",\"0.0-7.0\",\"\",\"\",\"1-4\",\"7862\",\"37\",\"1\",\"Training\",\"Stims/Figures/86-J-0-1.bmp\",\"ma:lala\",\"Right\",\"37\",\"1\",\"4\",\"5\",\"S\",\"J\",\"4\"
\"\",\"\",\"approach-retreat\",\"8\",\"156451\",\"0.0-8.0\",\"\",\"\",\"1-4\",\"6399\",\"40\",\"1\",\"Training\",\"Stims/Figures/19-J-10-4.bmp\",\"malana\",\"Up\",\"40\",\"1\",\"5\",\"5\",\"S\",\"J\",\"5\"
\"\",\"\",\"approach-retreat\",\"9\",\"162834\",\"0.0-9.0\",\"\",\"\",\"1-4\",\"4866\",\"40\",\"1\",\"Training\",\"Stims/Figures/44-C-30-3.bmp\",\"pa:ka:ka\",\"Down\",\"40\",\"1\",\"6\",\"5\",\"P\",\"J\",\"6\"
\"\",\"\",\"approach-retreat\",\"10\",\"171348\",\"0.0-10.0\",\"\",\"\",\"1-4\",\"6988\",\"39\",\"1\",\"Training\",\"Stims/Figures/111-J-10-3.bmp\",\"nalana\",\"Left\",\"39\",\"1\",\"7\",\"5\",\"S\",\"J\",\"7\"
\"\",\"\",\"approach-retreat\",\"11\",\"178768\",\"0.0-11.0\",\"\",\"\",\"1-4\",\"5875\",\"37\",\"0\",\"Training\",\"Stims/Figures/139-C-20-2.bmp\",\"ta:pa:ta\",\"Right\",\"39\",\"1\",\"8\",\"5\",\"P\",\"J\",\"8\"
\"\",\"\",\"approach-retreat\",\"12\",\"185575\",\"0.0-12.0\",\"\",\"\",\"1-4\",\"5270\",\"40\",\"1\",\"Training\",\"Stims/Figures/7-J-10-4.bmp\",\"na:mala\",\"Up\",\"40\",\"1\",\"9\",\"5\",\"S\",\"J\",\"9\"
\"\",\"\",\"approach-retreat\",\"13\",\"193270\",\"0.0-13.0\",\"\",\"\",\"1-4\",\"6168\",\"37\",\"1\",\"Training\",\"Stims/Figures/111-C-30-3.bmp\",\"pa:ka:ta\",\"Left\",\"37\",\"1\",\"10\",\"5\",\"P\",\"J\",\"10\"
\"\",\"\",\"approach-retreat\",\"14\",\"200337\",\"0.0-14.0\",\"\",\"\",\"1-4\",\"5484\",\"39\",\"1\",\"Training\",\"Stims/Figures/71-J-0-1.bmp\",\"nalala\",\"Left\",\"39\",\"1\",\"11\",\"5\",\"S\",\"J\",\"11\"
\"\",\"\",\"approach-retreat\",\"15\",\"206540\",\"0.0-15.0\",\"\",\"\",\"1-4\",\"4667\",\"37\",\"1\",\"Training\",\"Stims/Figures/84-C-20-2.bmp\",\"tapaka\",\"Left\",\"37\",\"1\",\"12\",\"5\",\"P\",\"J\",\"12\"
\"\",\"\",\"approach-retreat\",\"16\",\"213922\",\"0.0-16.0\",\"\",\"\",\"1-4\",\"5852\",\"39\",\"1\",\"Training\",\"Stims/Figures/71-C-30-1.bmp\",\"ta:pata\",\"Right\",\"39\",\"1\",\"13\",\"5\",\"P\",\"J\",\"13\"
\"\",\"\",\"approach-retreat\",\"17\",\"219903\",\"0.0-17.0\",\"\",\"\",\"1-4\",\"4455\",\"37\",\"1\",\"Training\",\"Stims/Figures/44-J-10-3.bmp\",\"nama:la\",\"Right\",\"37\",\"1\",\"14\",\"5\",\"S\",\"J\",\"14\"
\"\",\"\",\"approach-retreat\",\"18\",\"229900\",\"0.0-18.0\",\"\",\"\",\"1-4\",\"8473\",\"38\",\"1\",\"Training\",\"Stims/Figures/7-C-20-4.bmp\",\"tapata\",\"Up\",\"38\",\"1\",\"15\",\"5\",\"P\",\"J\",\"15\"
\"\",\"\",\"approach-retreat\",\"19\",\"236380\",\"0.0-19.0\",\"\",\"\",\"1-4\",\"4949\",\"40\",\"1\",\"Training\",\"Stims/Figures/139-J-0-2.bmp\",\"namala\",\"Up\",\"40\",\"1\",\"16\",\"5\",\"S\",\"J\",\"16\"
\"\",\"\",\"approach-retreat\",\"20\",\"242118\",\"0.0-20.0\",\"\",\"\",\"1-4\",\"4217\",\"37\",\"1\",\"Training\",\"Stims/Figures/44-C-30-3.bmp\",\"pa:ka:ka\",\"Left\",\"37\",\"2\",\"1\",\"5\",\"P\",\"J\",\"17\"
\"\",\"\",\"approach-retreat\",\"21\",\"248107\",\"0.0-21.0\",\"\",\"\",\"1-4\",\"4464\",\"40\",\"1\",\"Training\",\"Stims/Figures/7-C-20-4.bmp\",\"tapata\",\"Down\",\"40\",\"2\",\"2\",\"5\",\"P\",\"J\",\"18\"
\"\",\"\",\"approach-retreat\",\"22\",\"253866\",\"0.0-22.0\",\"\",\"\",\"1-4\",\"4213\",\"37\",\"1\",\"Training\",\"Stims/Figures/139-J-0-2.bmp\",\"namala\",\"Right\",\"37\",\"2\",\"3\",\"5\",\"S\",\"J\",\"19\"
\"\",\"\",\"approach-retreat\",\"23\",\"259583\",\"0.0-23.0\",\"\",\"\",\"1-4\",\"4179\",\"37\",\"1\",\"Training\",\"Stims/Figures/44-J-10-3.bmp\",\"nama:la\",\"Right\",\"37\",\"2\",\"4\",\"5\",\"S\",\"J\",\"20\"
\"\",\"\",\"approach-retreat\",\"24\",\"266078\",\"0.0-24.0\",\"\",\"\",\"1-4\",\"4966\",\"40\",\"1\",\"Training\",\"Stims/Figures/19-J-10-4.bmp\",\"malana\",\"Up\",\"40\",\"2\",\"5\",\"5\",\"S\",\"J\",\"21\"
\"\",\"\",\"approach-retreat\",\"25\",\"271848\",\"0.0-25.0\",\"\",\"\",\"1-4\",\"4225\",\"38\",\"1\",\"Training\",\"Stims/Figures/19-C-20-4.bmp\",\"ta:ka:ka\",\"Up\",\"38\",\"2\",\"6\",\"5\",\"P\",\"J\",\"22\"
\"\",\"\",\"approach-retreat\",\"26\",\"278340\",\"0.0-26.0\",\"\",\"\",\"1-4\",\"4951\",\"39\",\"1\",\"Training\",\"Stims/Figures/84-J-0-2.bmp\",\"na:lana\",\"Left\",\"39\",\"2\",\"7\",\"5\",\"S\",\"J\",\"23\"
\"\",\"\",\"approach-retreat\",\"27\",\"284116\",\"0.0-27.0\",\"\",\"\",\"1-4\",\"4243\",\"37\",\"1\",\"Training\",\"Stims/Figures/7-J-10-4.bmp\",\"na:mala\",\"Right\",\"37\",\"2\",\"8\",\"5\",\"S\",\"J\",\"24\"
\"\",\"\",\"approach-retreat\",\"28\",\"290112\",\"0.0-28.0\",\"\",\"\",\"1-4\",\"4470\",\"38\",\"1\",\"Training\",\"Stims/Figures/139-C-20-2.bmp\",\"ta:pa:ta\",\"Up\",\"38\",\"2\",\"9\",\"5\",\"P\",\"J\",\"25\"
\"\",\"\",\"approach-retreat\",\"29\",\"295620\",\"0.0-29.0\",\"\",\"\",\"1-4\",\"3987\",\"40\",\"1\",\"Training\",\"Stims/Figures/86-J-0-1.bmp\",\"ma:lala\",\"Up\",\"40\",\"2\",\"10\",\"5\",\"S\",\"J\",\"26\"
\"\",\"\",\"approach-retreat\",\"30\",\"301253\",\"0.0-30.0\",\"\",\"\",\"1-4\",\"4115\",\"38\",\"1\",\"Training\",\"Stims/Figures/111-J-10-3.bmp\",\"nalana\",\"Down\",\"38\",\"2\",\"11\",\"5\",\"S\",\"J\",\"27\"
\"\",\"\",\"approach-retreat\",\"31\",\"306982\",\"0.0-31.0\",\"\",\"\",\"1-4\",\"4188\",\"37\",\"1\",\"Training\",\"Stims/Figures/84-C-20-2.bmp\",\"tapaka\",\"Left\",\"37\",\"2\",\"12\",\"5\",\"P\",\"J\",\"28\"
\"\",\"\",\"approach-retreat\",\"32\",\"312626\",\"0.0-32.0\",\"\",\"\",\"1-4\",\"4109\",\"40\",\"1\",\"Training\",\"Stims/Figures/111-C-30-3.bmp\",\"pa:ka:ta\",\"Down\",\"40\",\"2\",\"13\",\"5\",\"P\",\"J\",\"29\"
\"\",\"\",\"approach-retreat\",\"33\",\"318351\",\"0.0-33.0\",\"\",\"\",\"1-4\",\"4198\",\"40\",\"1\",\"Training\",\"Stims/Figures/71-C-30-1.bmp\",\"ta:pata\",\"Down\",\"40\",\"2\",\"14\",\"5\",\"P\",\"J\",\"30\"
\"\",\"\",\"approach-retreat\",\"34\",\"323970\",\"0.0-34.0\",\"\",\"\",\"1-4\",\"4091\",\"39\",\"1\",\"Training\",\"Stims/Figures/86-C-30-1.bmp\",\"pakata\",\"Right\",\"39\",\"2\",\"15\",\"5\",\"P\",\"J\",\"31\"
\"\",\"\",\"approach-retreat\",\"35\",\"329601\",\"0.0-35.0\",\"\",\"\",\"1-4\",\"4118\",\"39\",\"1\",\"Training\",\"Stims/Figures/71-J-0-1.bmp\",\"nalala\",\"Left\",\"39\",\"2\",\"16\",\"5\",\"S\",\"J\",\"32\"
\"\",\"\",\"approach-retreat\",\"36\",\"335203\",\"0.0-36.0\",\"\",\"\",\"1-4\",\"4059\",\"40\",\"1\",\"Training\",\"Stims/Figures/86-J-0-1.bmp\",\"ma:lala\",\"Up\",\"40\",\"3\",\"1\",\"5\",\"S\",\"J\",\"33\"
\"\",\"\",\"approach-retreat\",\"37\",\"340885\",\"0.0-37.0\",\"\",\"\",\"1-4\",\"4135\",\"37\",\"1\",\"Training\",\"Stims/Figures/19-C-20-4.bmp\",\"ta:ka:ka\",\"Left\",\"37\",\"3\",\"2\",\"5\",\"P\",\"J\",\"34\"
\"\",\"\",\"approach-retreat\",\"38\",\"346430\",\"0.0-38.0\",\"\",\"\",\"1-4\",\"4009\",\"38\",\"1\",\"Training\",\"Stims/Figures/111-C-30-3.bmp\",\"pa:ka:ta\",\"Up\",\"38\",\"3\",\"3\",\"5\",\"P\",\"J\",\"35\"
\"\",\"\",\"approach-retreat\",\"39\",\"352111\",\"0.0-39.0\",\"\",\"\",\"1-4\",\"4151\",\"39\",\"1\",\"Training\",\"Stims/Figures/84-J-0-2.bmp\",\"na:lana\",\"Left\",\"39\",\"3\",\"4\",\"5\",\"S\",\"J\",\"36\"
\"\",\"\",\"approach-retreat\",\"40\",\"357966\",\"0.0-40.0\",\"\",\"\",\"1-4\",\"4310\",\"38\",\"1\",\"Training\",\"Stims/Figures/71-J-0-1.bmp\",\"nalala\",\"Down\",\"38\",\"3\",\"5\",\"5\",\"S\",\"J\",\"37\"
\"\",\"\",\"approach-retreat\",\"41\",\"364051\",\"0.0-41.0\",\"\",\"\",\"1-4\",\"4557\",\"38\",\"1\",\"Training\",\"Stims/Figures/44-J-10-3.bmp\",\"nama:la\",\"Down\",\"38\",\"3\",\"6\",\"5\",\"S\",\"J\",\"38\"
\"\",\"\",\"approach-retreat\",\"42\",\"370184\",\"0.0-42.0\",\"\",\"\",\"1-4\",\"4605\",\"37\",\"1\",\"Training\",\"Stims/Figures/19-J-10-4.bmp\",\"malana\",\"Right\",\"37\",\"3\",\"7\",\"5\",\"S\",\"J\",\"39\"
\"\",\"\",\"approach-retreat\",\"43\",\"375883\",\"0.0-43.0\",\"\",\"\",\"1-4\",\"4153\",\"39\",\"1\",\"Training\",\"Stims/Figures/139-C-20-2.bmp\",\"ta:pa:ta\",\"Right\",\"39\",\"3\",\"8\",\"5\",\"P\",\"J\",\"40\"
\"\",\"\",\"approach-retreat\",\"44\",\"381653\",\"0.0-44.0\",\"\",\"\",\"1-4\",\"4234\",\"40\",\"1\",\"Training\",\"Stims/Figures/71-C-30-1.bmp\",\"ta:pata\",\"Down\",\"40\",\"3\",\"9\",\"5\",\"P\",\"J\",\"41\"
\"\",\"\",\"approach-retreat\",\"45\",\"387297\",\"0.0-45.0\",\"\",\"\",\"1-4\",\"4119\",\"39\",\"1\",\"Training\",\"Stims/Figures/7-C-20-4.bmp\",\"tapata\",\"Right\",\"39\",\"3\",\"10\",\"5\",\"P\",\"J\",\"42\"
\"\",\"\",\"approach-retreat\",\"46\",\"393164\",\"0.0-46.0\",\"\",\"\",\"1-4\",\"4323\",\"37\",\"1\",\"Training\",\"Stims/Figures/44-C-30-3.bmp\",\"pa:ka:ka\",\"Left\",\"37\",\"3\",\"11\",\"5\",\"P\",\"J\",\"43\"
\"\",\"\",\"approach-retreat\",\"47\",\"399740\",\"0.0-47.0\",\"\",\"\",\"1-4\",\"5038\",\"40\",\"1\",\"Training\",\"Stims/Figures/7-J-10-4.bmp\",\"na:mala\",\"Up\",\"40\",\"3\",\"12\",\"5\",\"S\",\"J\",\"44\"
\"\",\"\",\"approach-retreat\",\"48\",\"405323\",\"0.0-48.0\",\"\",\"\",\"1-4\",\"4054\",\"38\",\"1\",\"Training\",\"Stims/Figures/86-C-30-1.bmp\",\"pakata\",\"Up\",\"38\",\"3\",\"13\",\"5\",\"P\",\"J\",\"45\"
\"\",\"\",\"approach-retreat\",\"49\",\"410994\",\"0.0-49.0\",\"\",\"\",\"1-4\",\"4131\",\"37\",\"1\",\"Training\",\"Stims/Figures/111-J-10-3.bmp\",\"nalana\",\"Right\",\"37\",\"3\",\"14\",\"5\",\"S\",\"J\",\"46\"
\"\",\"\",\"approach-retreat\",\"50\",\"416724\",\"0.0-50.0\",\"\",\"\",\"1-4\",\"4194\",\"37\",\"1\",\"Training\",\"Stims/Figures/84-C-20-2.bmp\",\"tapaka\",\"Left\",\"37\",\"3\",\"15\",\"5\",\"P\",\"J\",\"47\"
\"\",\"\",\"approach-retreat\",\"51\",\"422633\",\"0.0-51.0\",\"\",\"\",\"1-4\",\"4381\",\"40\",\"0\",\"Training\",\"Stims/Figures/139-J-0-2.bmp\",\"namala\",\"Down\",\"38\",\"3\",\"16\",\"5\",\"S\",\"J\",\"48\"
\"\",\"\",\"approach-retreat\",\"52\",\"429129\",\"0.0-52.0\",\"\",\"\",\"1-4\",\"4952\",\"39\",\"1\",\"Training\",\"Stims/Figures/71-C-30-1.bmp\",\"ta:pata\",\"Right\",\"39\",\"4\",\"1\",\"5\",\"P\",\"J\",\"49\"
\"\",\"\",\"approach-retreat\",\"53\",\"436007\",\"0.0-53.0\",\"\",\"\",\"1-4\",\"5339\",\"40\",\"1\",\"Training\",\"Stims/Figures/44-C-30-3.bmp\",\"pa:ka:ka\",\"Down\",\"40\",\"4\",\"2\",\"5\",\"P\",\"J\",\"50\"
\"\",\"\",\"approach-retreat\",\"54\",\"442355\",\"0.0-54.0\",\"\",\"\",\"1-4\",\"4814\",\"37\",\"1\",\"Training\",\"Stims/Figures/7-J-10-4.bmp\",\"na:mala\",\"Right\",\"37\",\"4\",\"3\",\"5\",\"S\",\"J\",\"51\"
\"\",\"\",\"approach-retreat\",\"55\",\"448357\",\"0.0-55.0\",\"\",\"\",\"1-4\",\"4461\",\"40\",\"1\",\"Training\",\"Stims/Figures/139-J-0-2.bmp\",\"namala\",\"Up\",\"40\",\"4\",\"4\",\"5\",\"S\",\"J\",\"52\"
\"\",\"\",\"approach-retreat\",\"56\",\"454279\",\"0.0-56.0\",\"\",\"\",\"1-4\",\"4393\",\"37\",\"1\",\"Training\",\"Stims/Figures/139-C-20-2.bmp\",\"ta:pa:ta\",\"Left\",\"37\",\"4\",\"5\",\"5\",\"P\",\"J\",\"53\"
\"\",\"\",\"approach-retreat\",\"57\",\"459905\",\"0.0-57.0\",\"\",\"\",\"1-4\",\"4098\",\"39\",\"1\",\"Training\",\"Stims/Figures/86-J-0-1.bmp\",\"ma:lala\",\"Left\",\"39\",\"4\",\"6\",\"5\",\"S\",\"J\",\"54\"
\"\",\"\",\"approach-retreat\",\"58\",\"465954\",\"0.0-58.0\",\"\",\"\",\"1-4\",\"4508\",\"38\",\"1\",\"Training\",\"Stims/Figures/84-C-20-2.bmp\",\"tapaka\",\"Up\",\"38\",\"4\",\"7\",\"5\",\"P\",\"J\",\"55\"
\"\",\"\",\"approach-retreat\",\"59\",\"471639\",\"0.0-59.0\",\"\",\"\",\"1-4\",\"4153\",\"40\",\"1\",\"Training\",\"Stims/Figures/19-C-20-4.bmp\",\"ta:ka:ka\",\"Down\",\"40\",\"4\",\"8\",\"5\",\"P\",\"J\",\"56\"
\"\",\"\",\"approach-retreat\",\"60\",\"477999\",\"0.0-60.0\",\"\",\"\",\"1-4\",\"4836\",\"37\",\"1\",\"Training\",\"Stims/Figures/7-C-20-4.bmp\",\"tapata\",\"Left\",\"37\",\"4\",\"9\",\"5\",\"P\",\"J\",\"57\"
\"\",\"\",\"approach-retreat\",\"61\",\"484789\",\"0.0-61.0\",\"\",\"\",\"1-4\",\"5248\",\"39\",\"1\",\"Training\",\"Stims/Figures/19-J-10-4.bmp\",\"malana\",\"Left\",\"39\",\"4\",\"10\",\"5\",\"S\",\"J\",\"58\"
\"\",\"\",\"approach-retreat\",\"62\",\"491264\",\"0.0-62.0\",\"\",\"\",\"1-4\",\"4946\",\"38\",\"1\",\"Training\",\"Stims/Figures/111-J-10-3.bmp\",\"nalana\",\"Down\",\"38\",\"4\",\"11\",\"5\",\"S\",\"J\",\"59\"
\"\",\"\",\"approach-retreat\",\"63\",\"496869\",\"0.0-63.0\",\"\",\"\",\"1-4\",\"4086\",\"39\",\"1\",\"Training\",\"Stims/Figures/86-C-30-1.bmp\",\"pakata\",\"Right\",\"39\",\"4\",\"12\",\"5\",\"P\",\"J\",\"60\"
\"\",\"\",\"approach-retreat\",\"64\",\"502910\",\"0.0-64.0\",\"\",\"\",\"1-4\",\"4524\",\"40\",\"1\",\"Training\",\"Stims/Figures/111-C-30-3.bmp\",\"pa:ka:ta\",\"Down\",\"40\",\"4\",\"13\",\"5\",\"P\",\"J\",\"61\"
\"\",\"\",\"approach-retreat\",\"65\",\"508546\",\"0.0-65.0\",\"\",\"\",\"1-4\",\"4120\",\"38\",\"0\",\"Training\",\"Stims/Figures/44-J-10-3.bmp\",\"nama:la\",\"Up\",\"40\",\"4\",\"14\",\"5\",\"S\",\"J\",\"62\"
\"\",\"\",\"approach-retreat\",\"66\",\"514364\",\"0.0-66.0\",\"\",\"\",\"1-4\",\"4298\",\"39\",\"0\",\"Training\",\"Stims/Figures/84-J-0-2.bmp\",\"na:lana\",\"Right\",\"37\",\"4\",\"15\",\"5\",\"S\",\"J\",\"63\"
\"\",\"\",\"approach-retreat\",\"67\",\"520151\",\"0.0-67.0\",\"\",\"\",\"1-4\",\"4246\",\"40\",\"1\",\"Training\",\"Stims/Figures/71-J-0-1.bmp\",\"nalala\",\"Up\",\"40\",\"4\",\"16\",\"5\",\"S\",\"J\",\"64\"
\"\",\"\",\"approach-retreat\",\"68\",\"525832\",\"0.0-68.0\",\"\",\"\",\"1-4\",\"4145\",\"39\",\"1\",\"Training\",\"Stims/Figures/44-C-30-3.bmp\",\"pa:ka:ka\",\"Right\",\"39\",\"5\",\"1\",\"5\",\"P\",\"J\",\"65\"
\"\",\"\",\"approach-retreat\",\"69\",\"531650\",\"0.0-69.0\",\"\",\"\",\"1-4\",\"4293\",\"40\",\"1\",\"Training\",\"Stims/Figures/19-C-20-4.bmp\",\"ta:ka:ka\",\"Down\",\"40\",\"5\",\"2\",\"5\",\"P\",\"J\",\"66\"
\"\",\"\",\"approach-retreat\",\"70\",\"539301\",\"0.0-70.0\",\"\",\"\",\"1-4\",\"6111\",\"37\",\"1\",\"Training\",\"Stims/Figures/86-C-30-1.bmp\",\"pakata\",\"Left\",\"37\",\"5\",\"3\",\"5\",\"P\",\"J\",\"67\"
\"\",\"\",\"approach-retreat\",\"71\",\"545005\",\"0.0-71.0\",\"\",\"\",\"1-4\",\"4171\",\"38\",\"1\",\"Training\",\"Stims/Figures/86-J-0-1.bmp\",\"ma:lala\",\"Down\",\"38\",\"5\",\"4\",\"5\",\"S\",\"J\",\"68\"
\"\",\"\",\"approach-retreat\",\"72\",\"550786\",\"0.0-72.0\",\"\",\"\",\"1-4\",\"4258\",\"38\",\"1\",\"Training\",\"Stims/Figures/84-C-20-2.bmp\",\"tapaka\",\"Up\",\"38\",\"5\",\"5\",\"5\",\"P\",\"J\",\"69\"
\"\",\"\",\"approach-retreat\",\"73\",\"556483\",\"0.0-73.0\",\"\",\"\",\"1-4\",\"4150\",\"38\",\"1\",\"Training\",\"Stims/Figures/7-C-20-4.bmp\",\"tapata\",\"Up\",\"38\",\"5\",\"6\",\"5\",\"P\",\"J\",\"70\"
\"\",\"\",\"approach-retreat\",\"74\",\"562362\",\"0.0-74.0\",\"\",\"\",\"1-4\",\"4343\",\"40\",\"1\",\"Training\",\"Stims/Figures/71-J-0-1.bmp\",\"nalala\",\"Up\",\"40\",\"5\",\"7\",\"5\",\"S\",\"J\",\"71\"
\"\",\"\",\"approach-retreat\",\"75\",\"568227\",\"0.0-75.0\",\"\",\"\",\"1-4\",\"4335\",\"37\",\"1\",\"Training\",\"Stims/Figures/84-J-0-2.bmp\",\"na:lana\",\"Right\",\"37\",\"5\",\"8\",\"5\",\"S\",\"J\",\"72\"
\"\",\"\",\"approach-retreat\",\"76\",\"573871\",\"0.0-76.0\",\"\",\"\",\"1-4\",\"4102\",\"39\",\"1\",\"Training\",\"Stims/Figures/19-J-10-4.bmp\",\"malana\",\"Left\",\"39\",\"5\",\"9\",\"5\",\"S\",\"J\",\"73\"
\"\",\"\",\"approach-retreat\",\"77\",\"579935\",\"0.0-77.0\",\"\",\"\",\"1-4\",\"4531\",\"37\",\"1\",\"Training\",\"Stims/Figures/71-C-30-1.bmp\",\"ta:pata\",\"Left\",\"37\",\"5\",\"10\",\"5\",\"P\",\"J\",\"74\"
\"\",\"\",\"approach-retreat\",\"78\",\"586005\",\"0.0-78.0\",\"\",\"\",\"1-4\",\"4544\",\"39\",\"1\",\"Training\",\"Stims/Figures/111-J-10-3.bmp\",\"nalana\",\"Left\",\"39\",\"5\",\"11\",\"5\",\"S\",\"J\",\"75\"
\"\",\"\",\"approach-retreat\",\"79\",\"591796\",\"0.0-79.0\",\"\",\"\",\"1-4\",\"4247\",\"37\",\"1\",\"Training\",\"Stims/Figures/7-J-10-4.bmp\",\"na:mala\",\"Right\",\"37\",\"5\",\"12\",\"5\",\"S\",\"J\",\"76\"
\"\",\"\",\"approach-retreat\",\"80\",\"597962\",\"0.0-80.0\",\"\",\"\",\"1-4\",\"4623\",\"38\",\"1\",\"Training\",\"Stims/Figures/111-C-30-3.bmp\",\"pa:ka:ta\",\"Up\",\"38\",\"5\",\"13\",\"5\",\"P\",\"J\",\"77\"
\"\",\"\",\"approach-retreat\",\"81\",\"603906\",\"0.0-81.0\",\"\",\"\",\"1-4\",\"4416\",\"40\",\"1\",\"Training\",\"Stims/Figures/139-C-20-2.bmp\",\"ta:pa:ta\",\"Down\",\"40\",\"5\",\"14\",\"5\",\"P\",\"J\",\"78\"
\"\",\"\",\"approach-retreat\",\"82\",\"609485\",\"0.0-82.0\",\"\",\"\",\"1-4\",\"4036\",\"38\",\"1\",\"Training\",\"Stims/Figures/44-J-10-3.bmp\",\"nama:la\",\"Down\",\"38\",\"5\",\"15\",\"5\",\"S\",\"J\",\"79\"
\"\",\"\",\"approach-retreat\",\"83\",\"615222\",\"0.0-83.0\",\"\",\"\",\"1-4\",\"4207\",\"37\",\"1\",\"Training\",\"Stims/Figures/139-J-0-2.bmp\",\"namala\",\"Right\",\"37\",\"5\",\"16\",\"5\",\"S\",\"J\",\"80\"
\"\",\"\",\"approach-retreat\",\"84\",\"620793\",\"0.0-84.0\",\"\",\"\",\"1-4\",\"4046\",\"39\",\"1\",\"Training\",\"Stims/Figures/139-J-0-2.bmp\",\"namala\",\"Left\",\"39\",\"6\",\"1\",\"5\",\"S\",\"J\",\"81\"
\"\",\"\",\"approach-retreat\",\"85\",\"626351\",\"0.0-85.0\",\"\",\"\",\"1-4\",\"4018\",\"40\",\"1\",\"Training\",\"Stims/Figures/84-J-0-2.bmp\",\"na:lana\",\"Up\",\"40\",\"6\",\"2\",\"5\",\"S\",\"J\",\"82\"
\"\",\"\",\"approach-retreat\",\"86\",\"631947\",\"0.0-86.0\",\"\",\"\",\"1-4\",\"4058\",\"40\",\"1\",\"Training\",\"Stims/Figures/19-C-20-4.bmp\",\"ta:ka:ka\",\"Down\",\"40\",\"6\",\"3\",\"5\",\"P\",\"J\",\"83\"
\"\",\"\",\"approach-retreat\",\"87\",\"637488\",\"0.0-87.0\",\"\",\"\",\"1-4\",\"4011\",\"40\",\"1\",\"Training\",\"Stims/Figures/7-J-10-4.bmp\",\"na:mala\",\"Up\",\"40\",\"6\",\"4\",\"5\",\"S\",\"J\",\"84\"
\"\",\"\",\"approach-retreat\",\"88\",\"643151\",\"0.0-88.0\",\"\",\"\",\"1-4\",\"4119\",\"38\",\"1\",\"Training\",\"Stims/Figures/44-J-10-3.bmp\",\"nama:la\",\"Down\",\"38\",\"6\",\"5\",\"5\",\"S\",\"J\",\"85\"
\"\",\"\",\"approach-retreat\",\"89\",\"650151\",\"0.0-89.0\",\"\",\"\",\"1-4\",\"5468\",\"39\",\"1\",\"Training\",\"Stims/Figures/139-C-20-2.bmp\",\"ta:pa:ta\",\"Right\",\"39\",\"6\",\"6\",\"5\",\"P\",\"J\",\"86\"
\"\",\"\",\"approach-retreat\",\"90\",\"656040\",\"0.0-90.0\",\"\",\"\",\"1-4\",\"4356\",\"39\",\"1\",\"Training\",\"Stims/Figures/71-C-30-1.bmp\",\"ta:pata\",\"Right\",\"39\",\"6\",\"7\",\"5\",\"P\",\"J\",\"87\"
\"\",\"\",\"approach-retreat\",\"91\",\"661688\",\"0.0-91.0\",\"\",\"\",\"1-4\",\"4123\",\"40\",\"1\",\"Training\",\"Stims/Figures/84-C-20-2.bmp\",\"tapaka\",\"Down\",\"40\",\"6\",\"8\",\"5\",\"P\",\"J\",\"88\"
\"\",\"\",\"approach-retreat\",\"92\",\"667157\",\"0.0-92.0\",\"\",\"\",\"1-4\",\"3946\",\"40\",\"1\",\"Training\",\"Stims/Figures/19-J-10-4.bmp\",\"malana\",\"Up\",\"40\",\"6\",\"9\",\"5\",\"S\",\"J\",\"89\"
\"\",\"\",\"approach-retreat\",\"93\",\"675478\",\"0.0-93.0\",\"\",\"\",\"1-4\",\"6800\",\"37\",\"1\",\"Training\",\"Stims/Figures/7-C-20-4.bmp\",\"tapata\",\"Left\",\"37\",\"6\",\"10\",\"5\",\"P\",\"J\",\"90\"
\"\",\"\",\"approach-retreat\",\"94\",\"681912\",\"0.0-94.0\",\"\",\"\",\"1-4\",\"4894\",\"38\",\"1\",\"Training\",\"Stims/Figures/86-C-30-1.bmp\",\"pakata\",\"Up\",\"38\",\"6\",\"11\",\"5\",\"P\",\"J\",\"91\"
\"\",\"\",\"approach-retreat\",\"95\",\"687560\",\"0.0-95.0\",\"\",\"\",\"1-4\",\"4104\",\"39\",\"1\",\"Training\",\"Stims/Figures/111-C-30-3.bmp\",\"pa:ka:ta\",\"Right\",\"39\",\"6\",\"12\",\"5\",\"P\",\"J\",\"92\"
\"\",\"\",\"approach-retreat\",\"96\",\"693272\",\"0.0-96.0\",\"\",\"\",\"1-4\",\"4164\",\"37\",\"1\",\"Training\",\"Stims/Figures/44-C-30-3.bmp\",\"pa:ka:ka\",\"Left\",\"37\",\"6\",\"13\",\"5\",\"P\",\"J\",\"93\"
\"\",\"\",\"approach-retreat\",\"97\",\"698896\",\"0.0-97.0\",\"\",\"\",\"1-4\",\"4076\",\"40\",\"0\",\"Training\",\"Stims/Figures/86-J-0-1.bmp\",\"ma:lala\",\"Down\",\"38\",\"6\",\"14\",\"5\",\"S\",\"J\",\"94\"
\"\",\"\",\"approach-retreat\",\"98\",\"705523\",\"0.0-98.0\",\"\",\"\",\"1-4\",\"5090\",\"39\",\"1\",\"Training\",\"Stims/Figures/71-J-0-1.bmp\",\"nalala\",\"Left\",\"39\",\"6\",\"15\",\"5\",\"S\",\"J\",\"95\"
\"\",\"\",\"approach-retreat\",\"99\",\"712454\",\"0.0-99.0\",\"\",\"\",\"1-4\",\"5400\",\"39\",\"0\",\"Training\",\"Stims/Figures/111-J-10-3.bmp\",\"nalana\",\"Right\",\"37\",\"6\",\"16\",\"5\",\"S\",\"J\",\"96\"
\"\",\"\",\"approach-retreat\",\"100\",\"718164\",\"0.0-100.0\",\"\",\"\",\"1-4\",\"4168\",\"37\",\"1\",\"Training\",\"Stims/Figures/44-J-10-3.bmp\",\"nama:la\",\"Right\",\"37\",\"7\",\"1\",\"5\",\"S\",\"J\",\"97\"
\"\",\"\",\"approach-retreat\",\"101\",\"724268\",\"0.0-101.0\",\"\",\"\",\"1-4\",\"4573\",\"38\",\"1\",\"Training\",\"Stims/Figures/86-J-0-1.bmp\",\"ma:lala\",\"Down\",\"38\",\"7\",\"2\",\"5\",\"S\",\"J\",\"98\"
\"\",\"\",\"approach-retreat\",\"102\",\"730099\",\"0.0-102.0\",\"\",\"\",\"1-4\",\"4300\",\"38\",\"1\",\"Training\",\"Stims/Figures/71-C-30-1.bmp\",\"ta:pata\",\"Up\",\"38\",\"7\",\"3\",\"5\",\"P\",\"J\",\"99\"
\"\",\"\",\"approach-retreat\",\"103\",\"736261\",\"0.0-103.0\",\"\",\"\",\"1-4\",\"4616\",\"37\",\"1\",\"Training\",\"Stims/Figures/7-C-20-4.bmp\",\"tapata\",\"Left\",\"37\",\"7\",\"4\",\"5\",\"P\",\"J\",\"100\"
\"\",\"\",\"approach-retreat\",\"104\",\"742014\",\"0.0-104.0\",\"\",\"\",\"1-4\",\"4223\",\"37\",\"1\",\"Training\",\"Stims/Figures/111-C-30-3.bmp\",\"pa:ka:ta\",\"Left\",\"37\",\"7\",\"5\",\"5\",\"P\",\"J\",\"101\"
\"\",\"\",\"approach-retreat\",\"105\",\"749349\",\"0.0-105.0\",\"\",\"\",\"1-4\",\"5809\",\"37\",\"0\",\"Training\",\"Stims/Figures/84-J-0-2.bmp\",\"na:lana\",\"Left\",\"39\",\"7\",\"6\",\"5\",\"S\",\"J\",\"102\"
\"\",\"\",\"approach-retreat\",\"106\",\"756647\",\"0.0-106.0\",\"\",\"\",\"1-4\",\"5759\",\"40\",\"1\",\"Training\",\"Stims/Figures/139-J-0-2.bmp\",\"namala\",\"Up\",\"40\",\"7\",\"7\",\"5\",\"S\",\"J\",\"103\"
\"\",\"\",\"approach-retreat\",\"107\",\"762426\",\"0.0-107.0\",\"\",\"\",\"1-4\",\"4240\",\"38\",\"1\",\"Training\",\"Stims/Figures/7-J-10-4.bmp\",\"na:mala\",\"Down\",\"38\",\"7\",\"8\",\"5\",\"S\",\"J\",\"104\"
\"\",\"\",\"approach-retreat\",\"108\",\"768190\",\"0.0-108.0\",\"\",\"\",\"1-4\",\"4235\",\"38\",\"1\",\"Training\",\"Stims/Figures/86-C-30-1.bmp\",\"pakata\",\"Up\",\"38\",\"7\",\"9\",\"5\",\"P\",\"J\",\"105\"
\"\",\"\",\"approach-retreat\",\"109\",\"773994\",\"0.0-109.0\",\"\",\"\",\"1-4\",\"4254\",\"38\",\"1\",\"Training\",\"Stims/Figures/139-C-20-2.bmp\",\"ta:pa:ta\",\"Up\",\"38\",\"7\",\"10\",\"5\",\"P\",\"J\",\"106\"
\"\",\"\",\"approach-retreat\",\"110\",\"779680\",\"0.0-110.0\",\"\",\"\",\"1-4\",\"4150\",\"39\",\"0\",\"Training\",\"Stims/Figures/71-J-0-1.bmp\",\"nalala\",\"Right\",\"37\",\"7\",\"11\",\"5\",\"S\",\"J\",\"107\"
\"\",\"\",\"approach-retreat\",\"111\",\"785789\",\"0.0-111.0\",\"\",\"\",\"1-4\",\"4584\",\"37\",\"1\",\"Training\",\"Stims/Figures/111-J-10-3.bmp\",\"nalana\",\"Right\",\"37\",\"7\",\"12\",\"5\",\"S\",\"J\",\"108\"
\"\",\"\",\"approach-retreat\",\"112\",\"791675\",\"0.0-112.0\",\"\",\"\",\"1-4\",\"4356\",\"38\",\"1\",\"Training\",\"Stims/Figures/19-J-10-4.bmp\",\"malana\",\"Down\",\"38\",\"7\",\"13\",\"5\",\"S\",\"J\",\"109\"
\"\",\"\",\"approach-retreat\",\"113\",\"797351\",\"0.0-113.0\",\"\",\"\",\"1-4\",\"4149\",\"37\",\"1\",\"Training\",\"Stims/Figures/44-C-30-3.bmp\",\"pa:ka:ka\",\"Left\",\"37\",\"7\",\"14\",\"5\",\"P\",\"J\",\"110\"
\"\",\"\",\"approach-retreat\",\"114\",\"803386\",\"0.0-114.0\",\"\",\"\",\"1-4\",\"4512\",\"40\",\"1\",\"Training\",\"Stims/Figures/19-C-20-4.bmp\",\"ta:ka:ka\",\"Down\",\"40\",\"7\",\"15\",\"5\",\"P\",\"J\",\"111\"
\"\",\"\",\"approach-retreat\",\"115\",\"809134\",\"0.0-115.0\",\"\",\"\",\"1-4\",\"4204\",\"39\",\"1\",\"Training\",\"Stims/Figures/84-C-20-2.bmp\",\"tapaka\",\"Right\",\"39\",\"7\",\"16\",\"5\",\"P\",\"J\",\"112\"
\"\",\"\",\"approach-retreat\",\"116\",\"815078\",\"0.0-116.0\",\"\",\"\",\"1-4\",\"4411\",\"40\",\"1\",\"Training\",\"Stims/Figures/111-C-30-3.bmp\",\"pa:ka:ta\",\"Down\",\"40\",\"8\",\"1\",\"5\",\"P\",\"J\",\"113\"
\"\",\"\",\"approach-retreat\",\"117\",\"820739\",\"0.0-117.0\",\"\",\"\",\"1-4\",\"4133\",\"38\",\"1\",\"Training\",\"Stims/Figures/71-C-30-1.bmp\",\"ta:pata\",\"Up\",\"38\",\"8\",\"2\",\"5\",\"P\",\"J\",\"114\"
\"\",\"\",\"approach-retreat\",\"118\",\"826436\",\"0.0-118.0\",\"\",\"\",\"1-4\",\"4155\",\"38\",\"1\",\"Training\",\"Stims/Figures/44-J-10-3.bmp\",\"nama:la\",\"Down\",\"38\",\"8\",\"3\",\"5\",\"S\",\"J\",\"115\"
\"\",\"\",\"approach-retreat\",\"119\",\"832563\",\"0.0-119.0\",\"\",\"\",\"1-4\",\"4583\",\"40\",\"1\",\"Training\",\"Stims/Figures/86-C-30-1.bmp\",\"pakata\",\"Down\",\"40\",\"8\",\"4\",\"5\",\"P\",\"J\",\"116\"
\"\",\"\",\"approach-retreat\",\"120\",\"838326\",\"0.0-120.0\",\"\",\"\",\"1-4\",\"4231\",\"37\",\"1\",\"Training\",\"Stims/Figures/7-C-20-4.bmp\",\"tapata\",\"Left\",\"37\",\"8\",\"5\",\"5\",\"P\",\"J\",\"117\"
\"\",\"\",\"approach-retreat\",\"121\",\"845067\",\"0.0-121.0\",\"\",\"\",\"1-4\",\"5194\",\"38\",\"0\",\"Training\",\"Stims/Figures/139-J-0-2.bmp\",\"namala\",\"Up\",\"40\",\"8\",\"6\",\"5\",\"S\",\"J\",\"118\"
\"\",\"\",\"approach-retreat\",\"122\",\"850823\",\"0.0-122.0\",\"\",\"\",\"1-4\",\"4220\",\"37\",\"1\",\"Training\",\"Stims/Figures/19-C-20-4.bmp\",\"ta:ka:ka\",\"Left\",\"37\",\"8\",\"7\",\"5\",\"P\",\"J\",\"119\"
\"\",\"\",\"approach-retreat\",\"123\",\"856840\",\"0.0-123.0\",\"\",\"\",\"1-4\",\"4489\",\"39\",\"1\",\"Training\",\"Stims/Figures/86-J-0-1.bmp\",\"ma:lala\",\"Left\",\"39\",\"8\",\"8\",\"5\",\"S\",\"J\",\"120\"
\"\",\"\",\"approach-retreat\",\"124\",\"863135\",\"0.0-124.0\",\"\",\"\",\"1-4\",\"4758\",\"37\",\"1\",\"Training\",\"Stims/Figures/111-J-10-3.bmp\",\"nalana\",\"Right\",\"37\",\"8\",\"9\",\"5\",\"S\",\"J\",\"121\"
\"\",\"\",\"approach-retreat\",\"125\",\"869443\",\"0.0-125.0\",\"\",\"\",\"1-4\",\"4781\",\"37\",\"1\",\"Training\",\"Stims/Figures/19-J-10-4.bmp\",\"malana\",\"Right\",\"37\",\"8\",\"10\",\"5\",\"S\",\"J\",\"122\"
\"\",\"\",\"approach-retreat\",\"126\",\"875191\",\"0.0-126.0\",\"\",\"\",\"1-4\",\"4222\",\"39\",\"1\",\"Training\",\"Stims/Figures/44-C-30-3.bmp\",\"pa:ka:ka\",\"Right\",\"39\",\"8\",\"11\",\"5\",\"P\",\"J\",\"123\"
\"\",\"\",\"approach-retreat\",\"127\",\"880822\",\"0.0-127.0\",\"\",\"\",\"1-4\",\"4086\",\"40\",\"1\",\"Training\",\"Stims/Figures/84-C-20-2.bmp\",\"tapaka\",\"Down\",\"40\",\"8\",\"12\",\"5\",\"P\",\"J\",\"124\"
\"\",\"\",\"approach-retreat\",\"128\",\"886818\",\"0.0-128.0\",\"\",\"\",\"1-4\",\"4460\",\"40\",\"1\",\"Training\",\"Stims/Figures/7-J-10-4.bmp\",\"na:mala\",\"Up\",\"40\",\"8\",\"13\",\"5\",\"S\",\"J\",\"125\"
\"\",\"\",\"approach-retreat\",\"129\",\"892552\",\"0.0-129.0\",\"\",\"\",\"1-4\",\"4206\",\"38\",\"1\",\"Training\",\"Stims/Figures/139-C-20-2.bmp\",\"ta:pa:ta\",\"Up\",\"38\",\"8\",\"14\",\"5\",\"P\",\"J\",\"126\"
\"\",\"\",\"approach-retreat\",\"130\",\"898585\",\"0.0-130.0\",\"\",\"\",\"1-4\",\"4492\",\"39\",\"1\",\"Training\",\"Stims/Figures/84-J-0-2.bmp\",\"na:lana\",\"Left\",\"39\",\"8\",\"15\",\"5\",\"S\",\"J\",\"127\"
\"\",\"\",\"approach-retreat\",\"131\",\"904391\",\"0.0-131.0\",\"\",\"\",\"1-4\",\"4272\",\"37\",\"1\",\"Training\",\"Stims/Figures/71-J-0-1.bmp\",\"nalala\",\"Right\",\"37\",\"8\",\"16\",\"5\",\"S\",\"J\",\"128\"
\"\",\"\",\"approach-retreat\",\"132\",\"910142\",\"0.0-132.0\",\"\",\"\",\"1-4\",\"4224\",\"40\",\"1\",\"Training\",\"Stims/Figures/111-J-10-3.bmp\",\"nalana\",\"Up\",\"40\",\"9\",\"1\",\"5\",\"S\",\"J\",\"129\"
\"\",\"\",\"approach-retreat\",\"133\",\"916448\",\"0.0-133.0\",\"\",\"\",\"1-4\",\"4767\",\"39\",\"1\",\"Training\",\"Stims/Figures/7-C-20-4.bmp\",\"tapata\",\"Right\",\"39\",\"9\",\"2\",\"5\",\"P\",\"J\",\"130\"
\"\",\"\",\"approach-retreat\",\"134\",\"922388\",\"0.0-134.0\",\"\",\"\",\"1-4\",\"4410\",\"40\",\"1\",\"Training\",\"Stims/Figures/86-C-30-1.bmp\",\"pakata\",\"Down\",\"40\",\"9\",\"3\",\"5\",\"P\",\"J\",\"131\"
\"\",\"\",\"approach-retreat\",\"135\",\"928446\",\"0.0-135.0\",\"\",\"\",\"1-4\",\"4528\",\"38\",\"1\",\"Training\",\"Stims/Figures/19-C-20-4.bmp\",\"ta:ka:ka\",\"Up\",\"38\",\"9\",\"4\",\"5\",\"P\",\"J\",\"132\"
\"\",\"\",\"approach-retreat\",\"136\",\"935312\",\"0.0-136.0\",\"\",\"\",\"1-4\",\"5341\",\"37\",\"1\",\"Training\",\"Stims/Figures/44-C-30-3.bmp\",\"pa:ka:ka\",\"Left\",\"37\",\"9\",\"5\",\"5\",\"P\",\"J\",\"133\"
\"\",\"\",\"approach-retreat\",\"137\",\"942965\",\"0.0-137.0\",\"\",\"\",\"1-4\",\"6135\",\"37\",\"1\",\"Training\",\"Stims/Figures/19-J-10-4.bmp\",\"malana\",\"Right\",\"37\",\"9\",\"6\",\"5\",\"S\",\"J\",\"134\"
\"\",\"\",\"approach-retreat\",\"138\",\"948666\",\"0.0-138.0\",\"\",\"\",\"1-4\",\"4183\",\"39\",\"1\",\"Training\",\"Stims/Figures/71-J-0-1.bmp\",\"nalala\",\"Left\",\"39\",\"9\",\"7\",\"5\",\"S\",\"J\",\"135\"
\"\",\"\",\"approach-retreat\",\"139\",\"954461\",\"0.0-139.0\",\"\",\"\",\"1-4\",\"4252\",\"39\",\"1\",\"Training\",\"Stims/Figures/139-C-20-2.bmp\",\"ta:pa:ta\",\"Right\",\"39\",\"9\",\"8\",\"5\",\"P\",\"J\",\"136\"
\"\",\"\",\"approach-retreat\",\"140\",\"960193\",\"0.0-140.0\",\"\",\"\",\"1-4\",\"4198\",\"40\",\"1\",\"Training\",\"Stims/Figures/86-J-0-1.bmp\",\"ma:lala\",\"Up\",\"40\",\"9\",\"9\",\"5\",\"S\",\"J\",\"137\"
\"\",\"\",\"approach-retreat\",\"141\",\"965822\",\"0.0-141.0\",\"\",\"\",\"1-4\",\"4097\",\"38\",\"1\",\"Training\",\"Stims/Figures/111-C-30-3.bmp\",\"pa:ka:ta\",\"Up\",\"38\",\"9\",\"10\",\"5\",\"P\",\"J\",\"138\"
\"\",\"\",\"approach-retreat\",\"142\",\"971381\",\"0.0-142.0\",\"\",\"\",\"1-4\",\"4021\",\"39\",\"1\",\"Training\",\"Stims/Figures/44-J-10-3.bmp\",\"nama:la\",\"Left\",\"39\",\"9\",\"11\",\"5\",\"S\",\"J\",\"139\"
\"\",\"\",\"approach-retreat\",\"143\",\"977228\",\"0.0-143.0\",\"\",\"\",\"1-4\",\"4314\",\"37\",\"1\",\"Training\",\"Stims/Figures/84-C-20-2.bmp\",\"tapaka\",\"Left\",\"37\",\"9\",\"12\",\"5\",\"P\",\"J\",\"140\"
\"\",\"\",\"approach-retreat\",\"144\",\"983553\",\"0.0-144.0\",\"\",\"\",\"1-4\",\"4795\",\"40\",\"1\",\"Training\",\"Stims/Figures/71-C-30-1.bmp\",\"ta:pata\",\"Down\",\"40\",\"9\",\"13\",\"5\",\"P\",\"J\",\"141\"
\"\",\"\",\"approach-retreat\",\"145\",\"989075\",\"0.0-145.0\",\"\",\"\",\"1-4\",\"3978\",\"38\",\"1\",\"Training\",\"Stims/Figures/139-J-0-2.bmp\",\"namala\",\"Down\",\"38\",\"9\",\"14\",\"5\",\"S\",\"J\",\"142\"
\"\",\"\",\"approach-retreat\",\"146\",\"994733\",\"0.0-146.0\",\"\",\"\",\"1-4\",\"4130\",\"38\",\"1\",\"Training\",\"Stims/Figures/7-J-10-4.bmp\",\"na:mala\",\"Down\",\"38\",\"9\",\"15\",\"5\",\"S\",\"J\",\"143\"
\"\",\"\",\"approach-retreat\",\"147\",\"1000244\",\"0.0-147.0\",\"\",\"\",\"1-4\",\"3986\",\"37\",\"1\",\"Training\",\"Stims/Figures/84-J-0-2.bmp\",\"na:lana\",\"Right\",\"37\",\"9\",\"16\",\"5\",\"S\",\"J\",\"144\"
\"10871\",\"\",\"instructions\",\"148\",\"1011117\",\"0.0-148.0\",\"[{\"\"page_index\"\":0,\"\"viewing_time\"\":10869}]\",\"\",\"\",\"\",\"\",\"\",\"\",\"\",\"\",\"\",\"\",\"\",\"\",\"\",\"\",\"\",\"\"
\"\",\"\",\"approach-retreat\",\"149\",\"1020269\",\"0.0-149.0\",\"\",\"\",\"1-4\",\"7624\",\"38\",\"1\",\"Testing\",\"Stims/Figures/111-C-30-3.bmp\",\"pa:ka:ta\",\"Up\",\"38\",\"1\",\"1\",\"5\",\"P\",\"J\",\"1\"
\"\",\"\",\"approach-retreat\",\"150\",\"1027948\",\"0.0-150.0\",\"\",\"\",\"1-4\",\"6148\",\"39\",\"1\",\"Testing\",\"Stims/Figures/27-J-0-1.bmp\",\"ma:la:la\",\"Left\",\"39\",\"1\",\"2\",\"5\",\"S\",\"J\",\"2\"
\"\",\"\",\"approach-retreat\",\"151\",\"1033514\",\"0.0-151.0\",\"\",\"\",\"1-4\",\"4035\",\"37\",\"1\",\"Testing\",\"Stims/Figures/85-J-0-2.bmp\",\"mama:la\",\"Right\",\"37\",\"1\",\"3\",\"5\",\"S\",\"J\",\"3\"
\"\",\"\",\"approach-retreat\",\"152\",\"1039414\",\"0.0-152.0\",\"\",\"\",\"1-4\",\"4367\",\"40\",\"1\",\"Testing\",\"Stims/Figures/19-C-20-4.bmp\",\"ta:ka:ka\",\"Down\",\"40\",\"1\",\"4\",\"5\",\"P\",\"J\",\"4\"
\"\",\"\",\"approach-retreat\",\"153\",\"1045189\",\"0.0-153.0\",\"\",\"\",\"1-4\",\"4243\",\"37\",\"1\",\"Testing\",\"Stims/Figures/44-C-30-3.bmp\",\"pa:ka:ka\",\"Left\",\"37\",\"1\",\"5\",\"5\",\"P\",\"J\",\"5\"
\"\",\"\",\"approach-retreat\",\"154\",\"1051157\",\"0.0-154.0\",\"\",\"\",\"1-4\",\"4436\",\"38\",\"1\",\"Testing\",\"Stims/Figures/84-C-20-2.bmp\",\"tapaka\",\"Up\",\"38\",\"1\",\"6\",\"5\",\"P\",\"J\",\"6\"
\"\",\"\",\"approach-retreat\",\"155\",\"1056998\",\"0.0-155.0\",\"\",\"\",\"1-4\",\"4310\",\"40\",\"1\",\"Testing\",\"Stims/Figures/111-J-10-3.bmp\",\"nalana\",\"Up\",\"40\",\"1\",\"7\",\"5\",\"S\",\"J\",\"7\"
\"\",\"\",\"approach-retreat\",\"156\",\"1065878\",\"0.0-156.0\",\"\",\"\",\"1-4\",\"7345\",\"39\",\"1\",\"Testing\",\"Stims/Figures/27-C-30-1.bmp\",\"taka:ta\",\"Right\",\"39\",\"1\",\"8\",\"5\",\"P\",\"J\",\"8\"
\"\",\"\",\"approach-retreat\",\"157\",\"1071565\",\"0.0-157.0\",\"\",\"\",\"1-4\",\"4158\",\"37\",\"1\",\"Testing\",\"Stims/Figures/139-C-20-2.bmp\",\"ta:pa:ta\",\"Left\",\"37\",\"1\",\"9\",\"5\",\"P\",\"J\",\"9\"
\"\",\"\",\"approach-retreat\",\"158\",\"1077146\",\"0.0-158.0\",\"\",\"\",\"1-4\",\"4047\",\"38\",\"1\",\"Testing\",\"Stims/Figures/84-J-0-2.bmp\",\"na:lana\",\"Down\",\"38\",\"1\",\"10\",\"5\",\"S\",\"J\",\"10\"
\"\",\"\",\"approach-retreat\",\"159\",\"1083157\",\"0.0-159.0\",\"\",\"\",\"1-4\",\"4479\",\"37\",\"1\",\"Testing\",\"Stims/Figures/86-J-0-1.bmp\",\"ma:lala\",\"Right\",\"37\",\"1\",\"11\",\"5\",\"S\",\"J\",\"11\"
\"\",\"\",\"approach-retreat\",\"160\",\"1088893\",\"0.0-160.0\",\"\",\"\",\"1-4\",\"4205\",\"40\",\"1\",\"Testing\",\"Stims/Figures/19-J-10-4.bmp\",\"malana\",\"Up\",\"40\",\"1\",\"12\",\"5\",\"S\",\"J\",\"12\"
\"\",\"\",\"approach-retreat\",\"161\",\"1094691\",\"0.0-161.0\",\"\",\"\",\"1-4\",\"4265\",\"37\",\"1\",\"Testing\",\"Stims/Figures/7-C-20-4.bmp\",\"tapata\",\"Left\",\"37\",\"1\",\"13\",\"5\",\"P\",\"J\",\"13\"
\"\",\"\",\"approach-retreat\",\"162\",\"1100658\",\"0.0-162.0\",\"\",\"\",\"1-4\",\"4439\",\"40\",\"1\",\"Testing\",\"Stims/Figures/85-C-20-2.bmp\",\"paka:ka\",\"Down\",\"40\",\"1\",\"14\",\"5\",\"P\",\"J\",\"14\"
\"\",\"\",\"approach-retreat\",\"163\",\"1107238\",\"0.0-163.0\",\"\",\"\",\"1-4\",\"5049\",\"37\",\"1\",\"Testing\",\"Stims/Figures/102-J-10-4.bmp\",\"mala:na\",\"Right\",\"37\",\"1\",\"15\",\"5\",\"S\",\"J\",\"15\"
\"\",\"\",\"approach-retreat\",\"164\",\"1113170\",\"0.0-164.0\",\"\",\"\",\"1-4\",\"4402\",\"40\",\"1\",\"Testing\",\"Stims/Figures/144-J-10-3.bmp\",\"ma:ma:na\",\"Up\",\"40\",\"1\",\"16\",\"5\",\"S\",\"J\",\"16\"
\"\",\"\",\"approach-retreat\",\"165\",\"1119122\",\"0.0-165.0\",\"\",\"\",\"1-4\",\"4412\",\"39\",\"1\",\"Testing\",\"Stims/Figures/144-C-30-3.bmp\",\"pa:kaka\",\"Right\",\"39\",\"1\",\"17\",\"5\",\"P\",\"J\",\"17\"
\"\",\"\",\"approach-retreat\",\"166\",\"1124892\",\"0.0-166.0\",\"\",\"\",\"1-4\",\"4238\",\"40\",\"1\",\"Testing\",\"Stims/Figures/71-C-30-1.bmp\",\"ta:pata\",\"Down\",\"40\",\"1\",\"18\",\"5\",\"P\",\"J\",\"18\"
\"\",\"\",\"approach-retreat\",\"167\",\"1130717\",\"0.0-167.0\",\"\",\"\",\"1-4\",\"4271\",\"40\",\"1\",\"Testing\",\"Stims/Figures/86-C-30-1.bmp\",\"pakata\",\"Down\",\"40\",\"1\",\"19\",\"5\",\"P\",\"J\",\"19\"
\"\",\"\",\"approach-retreat\",\"168\",\"1136538\",\"0.0-168.0\",\"\",\"\",\"1-4\",\"4291\",\"40\",\"1\",\"Testing\",\"Stims/Figures/139-J-0-2.bmp\",\"namala\",\"Up\",\"40\",\"1\",\"20\",\"5\",\"S\",\"J\",\"20\"
\"\",\"\",\"approach-retreat\",\"169\",\"1145845\",\"0.0-169.0\",\"\",\"\",\"1-4\",\"7777\",\"40\",\"0\",\"Testing\",\"Stims/Figures/7-J-10-4.bmp\",\"na:mala\",\"Down\",\"38\",\"1\",\"21\",\"5\",\"S\",\"J\",\"21\"
\"\",\"\",\"approach-retreat\",\"170\",\"1152469\",\"0.0-170.0\",\"\",\"\",\"1-4\",\"5094\",\"37\",\"1\",\"Testing\",\"Stims/Figures/102-C-20-4.bmp\",\"taka:ka\",\"Left\",\"37\",\"1\",\"22\",\"5\",\"P\",\"J\",\"22\"
\"\",\"\",\"approach-retreat\",\"171\",\"1159087\",\"0.0-171.0\",\"\",\"\",\"1-4\",\"5089\",\"37\",\"1\",\"Testing\",\"Stims/Figures/71-J-0-1.bmp\",\"nalala\",\"Right\",\"37\",\"1\",\"23\",\"5\",\"S\",\"J\",\"23\"
\"\",\"\",\"approach-retreat\",\"172\",\"1164940\",\"0.0-172.0\",\"\",\"\",\"1-4\",\"4321\",\"37\",\"0\",\"Testing\",\"Stims/Figures/44-J-10-3.bmp\",\"nama:la\",\"Left\",\"39\",\"1\",\"24\",\"5\",\"S\",\"J\",\"24\"
\"\",\"\",\"approach-retreat\",\"173\",\"1170982\",\"0.0-173.0\",\"\",\"\",\"1-4\",\"4515\",\"39\",\"1\",\"Testing\",\"Stims/Figures/84-J-0-2.bmp\",\"na:lana\",\"Left\",\"39\",\"2\",\"1\",\"5\",\"S\",\"J\",\"25\"
\"\",\"\",\"approach-retreat\",\"174\",\"1176944\",\"0.0-174.0\",\"\",\"\",\"1-4\",\"4434\",\"37\",\"1\",\"Testing\",\"Stims/Figures/19-J-10-4.bmp\",\"malana\",\"Right\",\"37\",\"2\",\"2\",\"5\",\"S\",\"J\",\"26\"
\"\",\"\",\"approach-retreat\",\"175\",\"1182634\",\"0.0-175.0\",\"\",\"\",\"1-4\",\"4161\",\"38\",\"1\",\"Testing\",\"Stims/Figures/71-C-30-1.bmp\",\"ta:pata\",\"Up\",\"38\",\"2\",\"3\",\"5\",\"P\",\"J\",\"27\"
\"\",\"\",\"approach-retreat\",\"176\",\"1188372\",\"0.0-176.0\",\"\",\"\",\"1-4\",\"4208\",\"40\",\"1\",\"Testing\",\"Stims/Figures/85-C-20-2.bmp\",\"paka:ka\",\"Down\",\"40\",\"2\",\"4\",\"5\",\"P\",\"J\",\"28\"
\"\",\"\",\"approach-retreat\",\"177\",\"1195183\",\"0.0-177.0\",\"\",\"\",\"1-4\",\"5278\",\"38\",\"1\",\"Testing\",\"Stims/Figures/7-J-10-4.bmp\",\"na:mala\",\"Down\",\"38\",\"2\",\"5\",\"5\",\"S\",\"J\",\"29\"
\"\",\"\",\"approach-retreat\",\"178\",\"1200766\",\"0.0-178.0\",\"\",\"\",\"1-4\",\"4054\",\"37\",\"0\",\"Testing\",\"Stims/Figures/44-J-10-3.bmp\",\"nama:la\",\"Left\",\"39\",\"2\",\"6\",\"5\",\"S\",\"J\",\"30\"
\"\",\"\",\"approach-retreat\",\"179\",\"1207095\",\"0.0-179.0\",\"\",\"\",\"1-4\",\"4800\",\"38\",\"1\",\"Testing\",\"Stims/Figures/111-C-30-3.bmp\",\"pa:ka:ta\",\"Up\",\"38\",\"2\",\"7\",\"5\",\"P\",\"J\",\"31\"
\"\",\"\",\"approach-retreat\",\"180\",\"1212978\",\"0.0-180.0\",\"\",\"\",\"1-4\",\"4356\",\"39\",\"1\",\"Testing\",\"Stims/Figures/19-C-20-4.bmp\",\"ta:ka:ka\",\"Right\",\"39\",\"2\",\"8\",\"5\",\"P\",\"J\",\"32\"
\"\",\"\",\"approach-retreat\",\"181\",\"1218912\",\"0.0-181.0\",\"\",\"\",\"1-4\",\"4403\",\"37\",\"1\",\"Testing\",\"Stims/Figures/139-C-20-2.bmp\",\"ta:pa:ta\",\"Left\",\"37\",\"2\",\"9\",\"5\",\"P\",\"J\",\"33\"
\"\",\"\",\"approach-retreat\",\"182\",\"1224664\",\"0.0-182.0\",\"\",\"\",\"1-4\",\"4222\",\"40\",\"1\",\"Testing\",\"Stims/Figures/144-C-30-3.bmp\",\"pa:kaka\",\"Down\",\"40\",\"2\",\"10\",\"5\",\"P\",\"J\",\"34\"
\"\",\"\",\"approach-retreat\",\"183\",\"1230383\",\"0.0-183.0\",\"\",\"\",\"1-4\",\"4187\",\"39\",\"0\",\"Testing\",\"Stims/Figures/139-J-0-2.bmp\",\"namala\",\"Right\",\"37\",\"2\",\"11\",\"5\",\"S\",\"J\",\"35\"
\"\",\"\",\"approach-retreat\",\"184\",\"1236182\",\"0.0-184.0\",\"\",\"\",\"1-4\",\"4268\",\"38\",\"1\",\"Testing\",\"Stims/Figures/44-C-30-3.bmp\",\"pa:ka:ka\",\"Up\",\"38\",\"2\",\"12\",\"5\",\"P\",\"J\",\"36\"
\"\",\"\",\"approach-retreat\",\"185\",\"1242112\",\"0.0-185.0\",\"\",\"\",\"1-4\",\"4386\",\"38\",\"1\",\"Testing\",\"Stims/Figures/27-C-30-1.bmp\",\"taka:ta\",\"Up\",\"38\",\"2\",\"13\",\"5\",\"P\",\"J\",\"37\"
\"\",\"\",\"approach-retreat\",\"186\",\"1248072\",\"0.0-186.0\",\"\",\"\",\"1-4\",\"4430\",\"37\",\"1\",\"Testing\",\"Stims/Figures/84-C-20-2.bmp\",\"tapaka\",\"Left\",\"37\",\"2\",\"14\",\"5\",\"P\",\"J\",\"38\"
\"\",\"\",\"approach-retreat\",\"187\",\"1253713\",\"0.0-187.0\",\"\",\"\",\"1-4\",\"4111\",\"38\",\"1\",\"Testing\",\"Stims/Figures/27-J-0-1.bmp\",\"ma:la:la\",\"Down\",\"38\",\"2\",\"15\",\"5\",\"S\",\"J\",\"39\"
\"\",\"\",\"approach-retreat\",\"188\",\"1259391\",\"0.0-188.0\",\"\",\"\",\"1-4\",\"4148\",\"40\",\"1\",\"Testing\",\"Stims/Figures/7-C-20-4.bmp\",\"tapata\",\"Down\",\"40\",\"2\",\"16\",\"5\",\"P\",\"J\",\"40\"
\"\",\"\",\"approach-retreat\",\"189\",\"1265290\",\"0.0-189.0\",\"\",\"\",\"1-4\",\"4367\",\"37\",\"1\",\"Testing\",\"Stims/Figures/144-J-10-3.bmp\",\"ma:ma:na\",\"Right\",\"37\",\"2\",\"17\",\"5\",\"S\",\"J\",\"41\"
\"\",\"\",\"approach-retreat\",\"190\",\"1270829\",\"0.0-190.0\",\"\",\"\",\"1-4\",\"4009\",\"39\",\"1\",\"Testing\",\"Stims/Figures/111-J-10-3.bmp\",\"nalana\",\"Left\",\"39\",\"2\",\"18\",\"5\",\"S\",\"J\",\"42\"
\"\",\"\",\"approach-retreat\",\"191\",\"1276474\",\"0.0-191.0\",\"\",\"\",\"1-4\",\"4113\",\"37\",\"1\",\"Testing\",\"Stims/Figures/85-J-0-2.bmp\",\"mama:la\",\"Right\",\"37\",\"2\",\"19\",\"5\",\"S\",\"J\",\"43\"
\"\",\"\",\"approach-retreat\",\"192\",\"1282061\",\"0.0-192.0\",\"\",\"\",\"1-4\",\"4057\",\"40\",\"1\",\"Testing\",\"Stims/Figures/86-J-0-1.bmp\",\"ma:lala\",\"Up\",\"40\",\"2\",\"20\",\"5\",\"S\",\"J\",\"44\"
\"\",\"\",\"approach-retreat\",\"193\",\"1288013\",\"0.0-193.0\",\"\",\"\",\"1-4\",\"4421\",\"40\",\"0\",\"Testing\",\"Stims/Figures/102-J-10-4.bmp\",\"mala:na\",\"Down\",\"38\",\"2\",\"21\",\"5\",\"S\",\"J\",\"45\"
\"\",\"\",\"approach-retreat\",\"194\",\"1293743\",\"0.0-194.0\",\"\",\"\",\"1-4\",\"4199\",\"40\",\"1\",\"Testing\",\"Stims/Figures/71-J-0-1.bmp\",\"nalala\",\"Up\",\"40\",\"2\",\"22\",\"5\",\"S\",\"J\",\"46\"
\"\",\"\",\"approach-retreat\",\"195\",\"1299540\",\"0.0-195.0\",\"\",\"\",\"1-4\",\"4266\",\"39\",\"1\",\"Testing\",\"Stims/Figures/86-C-30-1.bmp\",\"pakata\",\"Right\",\"39\",\"2\",\"23\",\"5\",\"P\",\"J\",\"47\"
\"\",\"\",\"approach-retreat\",\"196\",\"1305315\",\"0.0-196.0\",\"\",\"\",\"1-4\",\"4244\",\"37\",\"1\",\"Testing\",\"Stims/Figures/102-C-20-4.bmp\",\"taka:ka\",\"Left\",\"37\",\"2\",\"24\",\"5\",\"P\",\"J\",\"48\"
\"\",\"\",\"approach-retreat\",\"197\",\"1311291\",\"0.0-197.0\",\"\",\"\",\"1-4\",\"4448\",\"38\",\"0\",\"Testing\",\"Stims/Figures/102-J-10-4.bmp\",\"mala:na\",\"Up\",\"40\",\"3\",\"1\",\"5\",\"S\",\"J\",\"49\"
\"\",\"\",\"approach-retreat\",\"198\",\"1317150\",\"0.0-198.0\",\"\",\"\",\"1-4\",\"4332\",\"40\",\"1\",\"Testing\",\"Stims/Figures/19-C-20-4.bmp\",\"ta:ka:ka\",\"Down\",\"40\",\"3\",\"2\",\"5\",\"P\",\"J\",\"50\"
\"\",\"\",\"approach-retreat\",\"199\",\"1322933\",\"0.0-199.0\",\"\",\"\",\"1-4\",\"4256\",\"37\",\"1\",\"Testing\",\"Stims/Figures/111-J-10-3.bmp\",\"nalana\",\"Right\",\"37\",\"3\",\"3\",\"5\",\"S\",\"J\",\"51\"
\"\",\"\",\"approach-retreat\",\"200\",\"1328472\",\"0.0-200.0\",\"\",\"\",\"1-4\",\"4011\",\"39\",\"1\",\"Testing\",\"Stims/Figures/84-J-0-2.bmp\",\"na:lana\",\"Left\",\"39\",\"3\",\"4\",\"5\",\"S\",\"J\",\"52\"
\"\",\"\",\"approach-retreat\",\"201\",\"1334143\",\"0.0-201.0\",\"\",\"\",\"1-4\",\"4141\",\"40\",\"1\",\"Testing\",\"Stims/Figures/86-C-30-1.bmp\",\"pakata\",\"Down\",\"40\",\"3\",\"5\",\"5\",\"P\",\"J\",\"53\"
\"\",\"\",\"approach-retreat\",\"202\",\"1339912\",\"0.0-202.0\",\"\",\"\",\"1-4\",\"4238\",\"37\",\"1\",\"Testing\",\"Stims/Figures/85-C-20-2.bmp\",\"paka:ka\",\"Left\",\"37\",\"3\",\"6\",\"5\",\"P\",\"J\",\"54\"
\"\",\"\",\"approach-retreat\",\"203\",\"1345759\",\"0.0-203.0\",\"\",\"\",\"1-4\",\"4317\",\"39\",\"1\",\"Testing\",\"Stims/Figures/44-C-30-3.bmp\",\"pa:ka:ka\",\"Right\",\"39\",\"3\",\"7\",\"5\",\"P\",\"J\",\"55\"
\"\",\"\",\"approach-retreat\",\"204\",\"1351493\",\"0.0-204.0\",\"\",\"\",\"1-4\",\"4212\",\"37\",\"1\",\"Testing\",\"Stims/Figures/144-C-30-3.bmp\",\"pa:kaka\",\"Left\",\"37\",\"3\",\"8\",\"5\",\"P\",\"J\",\"56\"
\"\",\"\",\"approach-retreat\",\"205\",\"1357121\",\"0.0-205.0\",\"\",\"\",\"1-4\",\"4095\",\"40\",\"1\",\"Testing\",\"Stims/Figures/27-J-0-1.bmp\",\"ma:la:la\",\"Up\",\"40\",\"3\",\"9\",\"5\",\"S\",\"J\",\"57\"
\"\",\"\",\"approach-retreat\",\"206\",\"1362973\",\"0.0-206.0\",\"\",\"\",\"1-4\",\"4323\",\"39\",\"1\",\"Testing\",\"Stims/Figures/71-J-0-1.bmp\",\"nalala\",\"Left\",\"39\",\"3\",\"10\",\"5\",\"S\",\"J\",\"58\"
\"\",\"\",\"approach-retreat\",\"207\",\"1368984\",\"0.0-207.0\",\"\",\"\",\"1-4\",\"4482\",\"40\",\"1\",\"Testing\",\"Stims/Figures/139-C-20-2.bmp\",\"ta:pa:ta\",\"Down\",\"40\",\"3\",\"11\",\"5\",\"P\",\"J\",\"59\"
\"\",\"\",\"approach-retreat\",\"208\",\"1374872\",\"0.0-208.0\",\"\",\"\",\"1-4\",\"4360\",\"39\",\"1\",\"Testing\",\"Stims/Figures/86-J-0-1.bmp\",\"ma:lala\",\"Left\",\"39\",\"3\",\"12\",\"5\",\"S\",\"J\",\"60\"
\"\",\"\",\"approach-retreat\",\"209\",\"1380418\",\"0.0-209.0\",\"\",\"\",\"1-4\",\"4017\",\"37\",\"1\",\"Testing\",\"Stims/Figures/139-J-0-2.bmp\",\"namala\",\"Right\",\"37\",\"3\",\"13\",\"5\",\"S\",\"J\",\"61\"
\"\",\"\",\"approach-retreat\",\"210\",\"1386558\",\"0.0-210.0\",\"\",\"\",\"1-4\",\"4614\",\"38\",\"1\",\"Testing\",\"Stims/Figures/44-J-10-3.bmp\",\"nama:la\",\"Down\",\"38\",\"3\",\"14\",\"5\",\"S\",\"J\",\"62\"
\"\",\"\",\"approach-retreat\",\"211\",\"1392262\",\"0.0-211.0\",\"\",\"\",\"1-4\",\"4173\",\"38\",\"1\",\"Testing\",\"Stims/Figures/71-C-30-1.bmp\",\"ta:pata\",\"Up\",\"38\",\"3\",\"15\",\"5\",\"P\",\"J\",\"63\"
\"\",\"\",\"approach-retreat\",\"212\",\"1398271\",\"0.0-212.0\",\"\",\"\",\"1-4\",\"4478\",\"38\",\"1\",\"Testing\",\"Stims/Figures/27-C-30-1.bmp\",\"taka:ta\",\"Up\",\"38\",\"3\",\"16\",\"5\",\"P\",\"J\",\"64\"
\"\",\"\",\"approach-retreat\",\"213\",\"1406144\",\"0.0-213.0\",\"\",\"\",\"1-4\",\"6344\",\"37\",\"1\",\"Testing\",\"Stims/Figures/144-J-10-3.bmp\",\"ma:ma:na\",\"Right\",\"37\",\"3\",\"17\",\"5\",\"S\",\"J\",\"65\"
\"\",\"\",\"approach-retreat\",\"214\",\"1413048\",\"0.0-214.0\",\"\",\"\",\"1-4\",\"5375\",\"38\",\"0\",\"Testing\",\"Stims/Figures/7-J-10-4.bmp\",\"na:mala\",\"Up\",\"40\",\"3\",\"18\",\"5\",\"S\",\"J\",\"66\"
\"\",\"\",\"approach-retreat\",\"215\",\"1418955\",\"0.0-215.0\",\"\",\"\",\"1-4\",\"4377\",\"39\",\"1\",\"Testing\",\"Stims/Figures/7-C-20-4.bmp\",\"tapata\",\"Right\",\"39\",\"3\",\"19\",\"5\",\"P\",\"J\",\"67\"
\"\",\"\",\"approach-retreat\",\"216\",\"1424898\",\"0.0-216.0\",\"\",\"\",\"1-4\",\"4413\",\"40\",\"1\",\"Testing\",\"Stims/Figures/102-C-20-4.bmp\",\"taka:ka\",\"Down\",\"40\",\"3\",\"20\",\"5\",\"P\",\"J\",\"68\"
\"\",\"\",\"approach-retreat\",\"217\",\"1431648\",\"0.0-217.0\",\"\",\"\",\"1-4\",\"5218\",\"39\",\"1\",\"Testing\",\"Stims/Figures/84-C-20-2.bmp\",\"tapaka\",\"Right\",\"39\",\"3\",\"21\",\"5\",\"P\",\"J\",\"69\"
\"\",\"\",\"approach-retreat\",\"218\",\"1437699\",\"0.0-218.0\",\"\",\"\",\"1-4\",\"4523\",\"39\",\"1\",\"Testing\",\"Stims/Figures/19-J-10-4.bmp\",\"malana\",\"Left\",\"39\",\"3\",\"22\",\"5\",\"S\",\"J\",\"70\"
\"\",\"\",\"approach-retreat\",\"219\",\"1451127\",\"0.0-219.0\",\"\",\"\",\"1-4\",\"11895\",\"38\",\"1\",\"Testing\",\"Stims/Figures/111-C-30-3.bmp\",\"pa:ka:ta\",\"Up\",\"38\",\"3\",\"23\",\"5\",\"P\",\"J\",\"71\"
\"\",\"\",\"approach-retreat\",\"220\",\"1456835\",\"0.0-220.0\",\"\",\"\",\"1-4\",\"4174\",\"38\",\"1\",\"Testing\",\"Stims/Figures/85-J-0-2.bmp\",\"mama:la\",\"Down\",\"38\",\"3\",\"24\",\"5\",\"S\",\"J\",\"72\"
\"\",\"\",\"approach-retreat\",\"221\",\"1462792\",\"0.0-221.0\",\"\",\"\",\"1-4\",\"4428\",\"39\",\"1\",\"Testing\",\"Stims/Figures/27-J-0-1.bmp\",\"ma:la:la\",\"Left\",\"39\",\"4\",\"1\",\"5\",\"S\",\"J\",\"73\"
\"\",\"\",\"approach-retreat\",\"222\",\"1469231\",\"0.0-222.0\",\"\",\"\",\"1-4\",\"4910\",\"37\",\"1\",\"Testing\",\"Stims/Figures/139-C-20-2.bmp\",\"ta:pa:ta\",\"Left\",\"37\",\"4\",\"2\",\"5\",\"P\",\"J\",\"74\"
\"\",\"\",\"approach-retreat\",\"223\",\"1475067\",\"0.0-223.0\",\"\",\"\",\"1-4\",\"4305\",\"37\",\"1\",\"Testing\",\"Stims/Figures/85-C-20-2.bmp\",\"paka:ka\",\"Left\",\"37\",\"4\",\"3\",\"5\",\"P\",\"J\",\"75\"
\"\",\"\",\"approach-retreat\",\"224\",\"1480815\",\"0.0-224.0\",\"\",\"\",\"1-4\",\"4217\",\"40\",\"1\",\"Testing\",\"Stims/Figures/7-C-20-4.bmp\",\"tapata\",\"Down\",\"40\",\"4\",\"4\",\"5\",\"P\",\"J\",\"76\"
\"\",\"\",\"approach-retreat\",\"225\",\"1486533\",\"0.0-225.0\",\"\",\"\",\"1-4\",\"4186\",\"38\",\"1\",\"Testing\",\"Stims/Figures/111-C-30-3.bmp\",\"pa:ka:ta\",\"Up\",\"38\",\"4\",\"5\",\"5\",\"P\",\"J\",\"77\"
\"\",\"\",\"approach-retreat\",\"226\",\"1492524\",\"0.0-226.0\",\"\",\"\",\"1-4\",\"4460\",\"37\",\"1\",\"Testing\",\"Stims/Figures/139-J-0-2.bmp\",\"namala\",\"Right\",\"37\",\"4\",\"6\",\"5\",\"S\",\"J\",\"78\"
\"\",\"\",\"approach-retreat\",\"227\",\"1498161\",\"0.0-227.0\",\"\",\"\",\"1-4\",\"4107\",\"40\",\"1\",\"Testing\",\"Stims/Figures/84-J-0-2.bmp\",\"na:lana\",\"Up\",\"40\",\"4\",\"7\",\"5\",\"S\",\"J\",\"79\"
\"\",\"\",\"approach-retreat\",\"228\",\"1503949\",\"0.0-228.0\",\"\",\"\",\"1-4\",\"4262\",\"38\",\"1\",\"Testing\",\"Stims/Figures/85-J-0-2.bmp\",\"mama:la\",\"Down\",\"38\",\"4\",\"8\",\"5\",\"S\",\"J\",\"80\"
\"\",\"\",\"approach-retreat\",\"229\",\"1510894\",\"0.0-229.0\",\"\",\"\",\"1-4\",\"5416\",\"40\",\"1\",\"Testing\",\"Stims/Figures/102-C-20-4.bmp\",\"taka:ka\",\"Down\",\"40\",\"4\",\"9\",\"5\",\"P\",\"J\",\"81\"
\"\",\"\",\"approach-retreat\",\"230\",\"1518494\",\"0.0-230.0\",\"\",\"\",\"1-4\",\"6067\",\"40\",\"0\",\"Testing\",\"Stims/Figures/19-J-10-4.bmp\",\"malana\",\"Down\",\"38\",\"4\",\"10\",\"5\",\"S\",\"J\",\"82\"
\"\",\"\",\"approach-retreat\",\"231\",\"1524732\",\"0.0-231.0\",\"\",\"\",\"1-4\",\"4708\",\"39\",\"1\",\"Testing\",\"Stims/Figures/71-C-30-1.bmp\",\"ta:pata\",\"Right\",\"39\",\"4\",\"11\",\"5\",\"P\",\"J\",\"83\"
\"\",\"\",\"approach-retreat\",\"232\",\"1530663\",\"0.0-232.0\",\"\",\"\",\"1-4\",\"4403\",\"38\",\"0\",\"Testing\",\"Stims/Figures/7-J-10-4.bmp\",\"na:mala\",\"Up\",\"40\",\"4\",\"12\",\"5\",\"S\",\"J\",\"84\"
\"\",\"\",\"approach-retreat\",\"233\",\"1536604\",\"0.0-233.0\",\"\",\"\",\"1-4\",\"4414\",\"37\",\"1\",\"Testing\",\"Stims/Figures/71-J-0-1.bmp\",\"nalala\",\"Right\",\"37\",\"4\",\"13\",\"5\",\"S\",\"J\",\"85\"
\"\",\"\",\"approach-retreat\",\"234\",\"1542256\",\"0.0-234.0\",\"\",\"\",\"1-4\",\"4135\",\"38\",\"0\",\"Testing\",\"Stims/Figures/102-J-10-4.bmp\",\"mala:na\",\"Up\",\"40\",\"4\",\"14\",\"5\",\"S\",\"J\",\"86\"
\"\",\"\",\"approach-retreat\",\"235\",\"1548306\",\"0.0-235.0\",\"\",\"\",\"1-4\",\"4518\",\"37\",\"1\",\"Testing\",\"Stims/Figures/19-C-20-4.bmp\",\"ta:ka:ka\",\"Left\",\"37\",\"4\",\"15\",\"5\",\"P\",\"J\",\"87\"
\"\",\"\",\"approach-retreat\",\"236\",\"1554056\",\"0.0-236.0\",\"\",\"\",\"1-4\",\"4230\",\"39\",\"1\",\"Testing\",\"Stims/Figures/144-C-30-3.bmp\",\"pa:kaka\",\"Right\",\"39\",\"4\",\"16\",\"5\",\"P\",\"J\",\"88\"
\"\",\"\",\"approach-retreat\",\"237\",\"1559728\",\"0.0-237.0\",\"\",\"\",\"1-4\",\"4141\",\"37\",\"1\",\"Testing\",\"Stims/Figures/86-C-30-1.bmp\",\"pakata\",\"Left\",\"37\",\"4\",\"17\",\"5\",\"P\",\"J\",\"89\"
\"\",\"\",\"approach-retreat\",\"238\",\"1565742\",\"0.0-238.0\",\"\",\"\",\"1-4\",\"4487\",\"40\",\"1\",\"Testing\",\"Stims/Figures/86-J-0-1.bmp\",\"ma:lala\",\"Up\",\"40\",\"4\",\"18\",\"5\",\"S\",\"J\",\"90\"
\"\",\"\",\"approach-retreat\",\"239\",\"1571860\",\"0.0-239.0\",\"\",\"\",\"1-4\",\"4588\",\"39\",\"0\",\"Testing\",\"Stims/Figures/44-J-10-3.bmp\",\"nama:la\",\"Right\",\"37\",\"4\",\"19\",\"5\",\"S\",\"J\",\"91\"
\"\",\"\",\"approach-retreat\",\"240\",\"1577636\",\"0.0-240.0\",\"\",\"\",\"1-4\",\"4243\",\"40\",\"1\",\"Testing\",\"Stims/Figures/44-C-30-3.bmp\",\"pa:ka:ka\",\"Down\",\"40\",\"4\",\"20\",\"5\",\"P\",\"J\",\"92\"
\"\",\"\",\"approach-retreat\",\"241\",\"1584342\",\"0.0-241.0\",\"\",\"\",\"1-4\",\"5178\",\"37\",\"0\",\"Testing\",\"Stims/Figures/144-J-10-3.bmp\",\"ma:ma:na\",\"Left\",\"39\",\"4\",\"21\",\"5\",\"S\",\"J\",\"93\"
\"\",\"\",\"approach-retreat\",\"242\",\"1591646\",\"0.0-242.0\",\"\",\"\",\"1-4\",\"5775\",\"39\",\"0\",\"Testing\",\"Stims/Figures/111-J-10-3.bmp\",\"nalana\",\"Right\",\"37\",\"4\",\"22\",\"5\",\"S\",\"J\",\"94\"
\"\",\"\",\"approach-retreat\",\"243\",\"1597811\",\"0.0-243.0\",\"\",\"\",\"1-4\",\"4636\",\"38\",\"1\",\"Testing\",\"Stims/Figures/84-C-20-2.bmp\",\"tapaka\",\"Up\",\"38\",\"4\",\"23\",\"5\",\"P\",\"J\",\"95\"
\"\",\"\",\"approach-retreat\",\"244\",\"1604068\",\"0.0-244.0\",\"\",\"\",\"1-4\",\"4724\",\"40\",\"1\",\"Testing\",\"Stims/Figures/27-C-30-1.bmp\",\"taka:ta\",\"Down\",\"40\",\"4\",\"24\",\"5\",\"P\",\"J\",\"96\"
\"23115\",\"\",\"survey-text\",\"245\",\"1627209\",\"0.0-245.0\",\"\",\"{\"\"Q0\"\":\"\"PS170059\"\"}\",\"\",\"\",\"\",\"\",\"\",\"\",\"\",\"\",\"\",\"\",\"\",\"\",\"\",\"\",\"\"
