"rt","key_press","trial_type","trial_index","time_elapsed","internal_node_id","view_history","responses","Id","Rt","ResKeyCode","ResCorr","TrialType2","Image","Label","Location","CorrectResponse","Block","BlockTrial","Condition","LabelType","Subcondition","trialNum"
"2003","32","text","0","2005","0.0-0.0-0.0","","","","","","","","","","","","","","","","",""
"559","","instructions","1","2565","0.0-1.0","[{""page_index"":0,""viewing_time"":559}]","","","","","","","","","","","","","","","",""
"6583","","survey-multi-choice","2","9165","0.0-2.0","","{""Q0"":""Da"",""Q1"":""Da"",""Q2"":""Da"",""Q3"":""Da"",""Q4"":""Da"",""Q5"":""Da""}","","","","","","","","","","","","","","",""
"","","bio","3","13970","0.0-3.0","","{""age"":""20"",""gender"":""f"",""specify"":""""}","","","","","","","","","","","","","","",""
"","","approach-retreat","4","31169","0.0-4.0","","","1-4","15694","37","1","Training","Stims/Figures/139-C-20-2.bmp","ta:kaka","Right","37","1","1","7","P","C","1"
"","","approach-retreat","5","40379","0.0-5.0","","","1-4","7702","37","1","Training","Stims/Figures/94-J-0-2.bmp","ta:pa:ta","Left","37","1","2","7","P","C","2"
"","","approach-retreat","6","48549","0.0-6.0","","","1-4","6662","39","1","Training","Stims/Figures/139-J-0-2.bmp","tapa:ta","Right","39","1","3","7","P","C","3"
"","","approach-retreat","7","54832","0.0-7.0","","","1-4","4773","40","1","Training","Stims/Figures/19-C-20-4.bmp","mama:la","Up","40","1","4","7","S","C","4"
"","","approach-retreat","8","61265","0.0-8.0","","","1-4","4930","40","1","Training","Stims/Figures/74-C-20-4.bmp","ma:ma:la","Up","40","1","5","7","S","C","5"
"","","approach-retreat","9","73745","0.0-9.0","","","1-4","10975","38","0","Training","Stims/Figures/94-C-20-2.bmp","papa:ta","Up","40","1","6","7","P","C","6"
"","","approach-retreat","10","80489","0.0-10.0","","","1-4","5241","37","0","Training","Stims/Figures/57-C-30-1.bmp","tapa:ka","Left","39","1","7","7","P","C","7"
"","","approach-retreat","11","89289","0.0-11.0","","","1-4","7297","37","0","Training","Stims/Figures/86-J-0-1.bmp","pa:pa:ta","Right","39","1","8","7","P","C","8"
"","","approach-retreat","12","95089","0.0-12.0","","","1-4","4295","39","0","Training","Stims/Figures/74-J-10-4.bmp","na:mala","Left","37","1","9","7","S","C","9"
"","","approach-retreat","13","101232","0.0-13.0","","","1-4","4639","38","1","Training","Stims/Figures/57-J-0-1.bmp","pa:pa:ka","Up","38","1","10","7","P","C","10"
"","","approach-retreat","14","110561","0.0-14.0","","","1-4","7822","38","0","Training","Stims/Figures/19-J-10-4.bmp","ma:mala","Down","40","1","11","7","S","C","11"
"","","approach-retreat","15","118265","0.0-15.0","","","1-4","6198","40","1","Training","Stims/Figures/44-J-10-3.bmp","mala:la","Down","40","1","12","7","S","C","12"
"","","approach-retreat","16","128777","0.0-16.0","","","1-4","9007","39","0","Training","Stims/Figures/128-J-10-3.bmp","mala:na","Left","37","1","13","7","S","C","13"
"","","approach-retreat","17","135976","0.0-17.0","","","1-4","5696","39","0","Training","Stims/Figures/44-C-30-3.bmp","malala","Right","37","1","14","7","S","C","14"
"","","approach-retreat","18","143857","0.0-18.0","","","1-4","6375","40","0","Training","Stims/Figures/86-C-30-1.bmp","pa:ka:ta","Down","38","1","15","7","P","C","15"
"","","approach-retreat","19","150666","0.0-19.0","","","1-4","5307","40","0","Training","Stims/Figures/128-C-30-3.bmp","ma:ma:na","Down","38","1","16","7","S","C","16"
"","","approach-retreat","20","156656","0.0-20.0","","","1-4","4487","39","0","Training","Stims/Figures/94-C-20-2.bmp","papa:ta","Right","37","2","1","7","P","C","17"
"","","approach-retreat","21","162481","0.0-21.0","","","1-4","4320","39","1","Training","Stims/Figures/74-C-20-4.bmp","ma:ma:la","Left","39","2","2","7","S","C","18"
"","","approach-retreat","22","168231","0.0-22.0","","","1-4","4247","38","1","Training","Stims/Figures/57-C-30-1.bmp","tapa:ka","Down","38","2","3","7","P","C","19"
"","","approach-retreat","23","173697","0.0-23.0","","","1-4","3961","39","0","Training","Stims/Figures/128-J-10-3.bmp","mala:na","Left","37","2","4","7","S","C","20"
"","","approach-retreat","24","181321","0.0-24.0","","","1-4","6120","39","0","Training","Stims/Figures/44-C-30-3.bmp","malala","Right","37","2","5","7","S","C","21"
"","","approach-retreat","25","187473","0.0-25.0","","","1-4","4649","37","0","Training","Stims/Figures/128-C-30-3.bmp","ma:ma:na","Left","39","2","6","7","S","C","22"
"","","approach-retreat","26","197847","0.0-26.0","","","1-4","8872","40","1","Training","Stims/Figures/139-C-20-2.bmp","ta:kaka","Up","40","2","7","7","P","C","23"
"","","approach-retreat","27","204535","0.0-27.0","","","1-4","5184","38","0","Training","Stims/Figures/44-J-10-3.bmp","mala:la","Down","40","2","8","7","S","C","24"
"","","approach-retreat","28","213448","0.0-28.0","","","1-4","7408","39","0","Training","Stims/Figures/57-J-0-1.bmp","pa:pa:ka","Left","37","2","9","7","P","C","25"
"","","approach-retreat","29","223375","0.0-29.0","","","1-4","8424","40","0","Training","Stims/Figures/94-J-0-2.bmp","ta:pa:ta","Up","38","2","10","7","P","C","26"
"","","approach-retreat","30","230472","0.0-30.0","","","1-4","5593","39","0","Training","Stims/Figures/86-C-30-1.bmp","pa:ka:ta","Right","37","2","11","7","P","C","27"
"","","approach-retreat","31","236546","0.0-31.0","","","1-4","4568","40","0","Training","Stims/Figures/74-J-10-4.bmp","na:mala","Up","38","2","12","7","S","C","28"
"","","approach-retreat","32","242832","0.0-32.0","","","1-4","4781","40","0","Training","Stims/Figures/19-C-20-4.bmp","mama:la","Down","38","2","13","7","S","C","29"
"","","approach-retreat","33","249602","0.0-33.0","","","1-4","5266","38","0","Training","Stims/Figures/139-J-0-2.bmp","tapa:ta","Down","40","2","14","7","P","C","30"
"","","approach-retreat","34","255216","0.0-34.0","","","1-4","4109","39","1","Training","Stims/Figures/19-J-10-4.bmp","ma:mala","Right","39","2","15","7","S","C","31"
"","","approach-retreat","35","267784","0.0-35.0","","","1-4","11058","38","1","Training","Stims/Figures/86-J-0-1.bmp","pa:pa:ta","Up","38","2","16","7","P","C","32"
"","","approach-retreat","36","274762","0.0-36.0","","","1-4","5475","40","0","Training","Stims/Figures/19-C-20-4.bmp","mama:la","Down","38","3","1","7","S","C","33"
"","","approach-retreat","37","281527","0.0-37.0","","","1-4","5263","40","0","Training","Stims/Figures/86-J-0-1.bmp","pa:pa:ta","Up","38","3","2","7","P","C","34"
"","","approach-retreat","38","293001","0.0-38.0","","","1-4","9970","40","1","Training","Stims/Figures/44-J-10-3.bmp","mala:la","Down","40","3","3","7","S","C","35"
"","","approach-retreat","39","299896","0.0-39.0","","","1-4","5391","37","0","Training","Stims/Figures/74-C-20-4.bmp","ma:ma:la","Left","39","3","4","7","S","C","36"
"","","approach-retreat","40","305713","0.0-40.0","","","1-4","4313","37","0","Training","Stims/Figures/57-C-30-1.bmp","tapa:ka","Left","39","3","5","7","P","C","37"
"","","approach-retreat","41","312016","0.0-41.0","","","1-4","4799","38","1","Training","Stims/Figures/128-C-30-3.bmp","ma:ma:na","Down","38","3","6","7","S","C","38"
"","","approach-retreat","42","318344","0.0-42.0","","","1-4","4824","39","1","Training","Stims/Figures/94-J-0-2.bmp","ta:pa:ta","Right","39","3","7","7","P","C","39"
"","","approach-retreat","43","324351","0.0-43.0","","","1-4","4504","38","0","Training","Stims/Figures/57-J-0-1.bmp","pa:pa:ka","Down","40","3","8","7","P","C","40"
"","","approach-retreat","44","331480","0.0-44.0","","","1-4","5624","39","1","Training","Stims/Figures/139-J-0-2.bmp","tapa:ta","Right","39","3","9","7","P","C","41"
"","","approach-retreat","45","340343","0.0-45.0","","","1-4","7360","40","1","Training","Stims/Figures/94-C-20-2.bmp","papa:ta","Up","40","3","10","7","P","C","42"
"","","approach-retreat","46","346687","0.0-46.0","","","1-4","4841","37","0","Training","Stims/Figures/86-C-30-1.bmp","pa:ka:ta","Left","39","3","11","7","P","C","43"
"","","approach-retreat","47","354320","0.0-47.0","","","1-4","6129","39","1","Training","Stims/Figures/74-J-10-4.bmp","na:mala","Right","39","3","12","7","S","C","44"
"","","approach-retreat","48","360921","0.0-48.0","","","1-4","5098","37","1","Training","Stims/Figures/139-C-20-2.bmp","ta:kaka","Right","37","3","13","7","P","C","45"
"","","approach-retreat","49","368425","0.0-49.0","","","1-4","6000","39","0","Training","Stims/Figures/19-J-10-4.bmp","ma:mala","Left","37","3","14","7","S","C","46"
"","","approach-retreat","50","376032","0.0-50.0","","","1-4","6104","40","1","Training","Stims/Figures/44-C-30-3.bmp","malala","Up","40","3","15","7","S","C","47"
"","","approach-retreat","51","382880","0.0-51.0","","","1-4","5345","38","1","Training","Stims/Figures/128-J-10-3.bmp","mala:na","Up","38","3","16","7","S","C","48"
"","","approach-retreat","52","392841","0.0-52.0","","","1-4","8457","37","1","Training","Stims/Figures/128-C-30-3.bmp","ma:ma:na","Right","37","4","1","7","S","C","49"
"","","approach-retreat","53","399200","0.0-53.0","","","1-4","4856","38","0","Training","Stims/Figures/86-C-30-1.bmp","pa:ka:ta","Up","40","4","2","7","P","C","50"
"","","approach-retreat","54","404929","0.0-54.0","","","1-4","4225","40","1","Training","Stims/Figures/139-J-0-2.bmp","tapa:ta","Down","40","4","3","7","P","C","51"
"","","approach-retreat","55","414745","0.0-55.0","","","1-4","8310","40","1","Training","Stims/Figures/94-C-20-2.bmp","papa:ta","Up","40","4","4","7","P","C","52"
"","","approach-retreat","56","422304","0.0-56.0","","","1-4","6056","37","1","Training","Stims/Figures/57-C-30-1.bmp","tapa:ka","Right","37","4","5","7","P","C","53"
"","","approach-retreat","57","430193","0.0-57.0","","","1-4","6385","40","1","Training","Stims/Figures/74-J-10-4.bmp","na:mala","Down","40","4","6","7","S","C","54"
"","","approach-retreat","58","438800","0.0-58.0","","","1-4","7104","38","1","Training","Stims/Figures/74-C-20-4.bmp","ma:ma:la","Down","38","4","7","7","S","C","55"
"","","approach-retreat","59","446313","0.0-59.0","","","1-4","6008","39","1","Training","Stims/Figures/94-J-0-2.bmp","ta:pa:ta","Right","39","4","8","7","P","C","56"
"","","approach-retreat","60","458232","0.0-60.0","","","1-4","10415","40","0","Training","Stims/Figures/57-J-0-1.bmp","pa:pa:ka","Up","38","4","9","7","P","C","57"
"","","approach-retreat","61","463258","0.0-61.0","","","1-4","3522","39","1","Training","Stims/Figures/44-J-10-3.bmp","mala:la","Right","39","4","10","7","S","C","58"
"","","approach-retreat","62","474265","0.0-62.0","","","1-4","9505","37","1","Training","Stims/Figures/128-J-10-3.bmp","mala:na","Left","37","4","11","7","S","C","59"
"","","approach-retreat","63","485040","0.0-63.0","","","1-4","9271","39","1","Training","Stims/Figures/139-C-20-2.bmp","ta:kaka","Left","39","4","12","7","P","C","60"
"","","approach-retreat","64","493609","0.0-64.0","","","1-4","7065","38","0","Training","Stims/Figures/86-J-0-1.bmp","pa:pa:ta","Down","40","4","13","7","P","C","61"
"","","approach-retreat","65","505768","0.0-65.0","","","1-4","10656","40","1","Training","Stims/Figures/44-C-30-3.bmp","malala","Up","40","4","14","7","S","C","62"
"","","approach-retreat","66","514512","0.0-66.0","","","1-4","7239","39","1","Training","Stims/Figures/19-C-20-4.bmp","mama:la","Left","39","4","15","7","S","C","63"
"","","approach-retreat","67","522969","0.0-67.0","","","1-4","6954","39","0","Training","Stims/Figures/19-J-10-4.bmp","ma:mala","Left","37","4","16","7","S","C","64"
"","","approach-retreat","68","537001","0.0-68.0","","","1-4","12529","39","1","Training","Stims/Figures/86-J-0-1.bmp","pa:pa:ta","Right","39","5","1","7","P","C","65"
"","","approach-retreat","69","543056","0.0-69.0","","","1-4","4552","38","0","Training","Stims/Figures/86-C-30-1.bmp","pa:ka:ta","Up","40","5","2","7","P","C","66"
"","","approach-retreat","70","553729","0.0-70.0","","","1-4","9169","37","0","Training","Stims/Figures/139-C-20-2.bmp","ta:kaka","Left","39","5","3","7","P","C","67"
"","","approach-retreat","71","563960","0.0-71.0","","","1-4","8728","37","0","Training","Stims/Figures/19-J-10-4.bmp","ma:mala","Right","39","5","4","7","S","C","68"
"","","approach-retreat","72","570824","0.0-72.0","","","1-4","5361","38","0","Training","Stims/Figures/74-C-20-4.bmp","ma:ma:la","Up","40","5","5","7","S","C","69"
"","","approach-retreat","73","577424","0.0-73.0","","","1-4","5096","40","1","Training","Stims/Figures/94-J-0-2.bmp","ta:pa:ta","Down","40","5","6","7","P","C","70"
"","","approach-retreat","74","583503","0.0-74.0","","","1-4","4576","37","1","Training","Stims/Figures/139-J-0-2.bmp","tapa:ta","Left","37","5","7","7","P","C","71"
"","","approach-retreat","75","591504","0.0-75.0","","","1-4","6496","37","0","Training","Stims/Figures/19-C-20-4.bmp","mama:la","Left","39","5","8","7","S","C","72"
"","","approach-retreat","76","597721","0.0-76.0","","","1-4","4712","37","1","Training","Stims/Figures/44-C-30-3.bmp","malala","Right","37","5","9","7","S","C","73"
"","","approach-retreat","77","605480","0.0-77.0","","","1-4","6255","39","1","Training","Stims/Figures/74-J-10-4.bmp","na:mala","Right","39","5","10","7","S","C","74"
"","","approach-retreat","78","613080","0.0-78.0","","","1-4","6096","38","1","Training","Stims/Figures/57-J-0-1.bmp","pa:pa:ka","Up","38","5","11","7","P","C","75"
"","","approach-retreat","79","620720","0.0-79.0","","","1-4","6135","40","1","Training","Stims/Figures/128-C-30-3.bmp","ma:ma:na","Up","40","5","12","7","S","C","76"
"","","approach-retreat","80","636921","0.0-80.0","","","1-4","14696","40","0","Training","Stims/Figures/94-C-20-2.bmp","papa:ta","Down","38","5","13","7","P","C","77"
"","","approach-retreat","81","643631","0.0-81.0","","","1-4","5207","37","0","Training","Stims/Figures/57-C-30-1.bmp","tapa:ka","Left","39","5","14","7","P","C","78"
"","","approach-retreat","82","650728","0.0-82.0","","","1-4","5594","38","0","Training","Stims/Figures/44-J-10-3.bmp","mala:la","Down","40","5","15","7","S","C","79"
"","","approach-retreat","83","658450","0.0-83.0","","","1-4","6217","40","1","Training","Stims/Figures/128-J-10-3.bmp","mala:na","Down","40","5","16","7","S","C","80"
"","","approach-retreat","84","669481","0.0-84.0","","","1-4","9527","39","0","Training","Stims/Figures/74-J-10-4.bmp","na:mala","Left","37","6","1","7","S","C","81"
"","","approach-retreat","85","675625","0.0-85.0","","","1-4","4640","37","1","Training","Stims/Figures/44-C-30-3.bmp","malala","Right","37","6","2","7","S","C","82"
"","","approach-retreat","86","688393","0.0-86.0","","","1-4","11264","40","0","Training","Stims/Figures/74-C-20-4.bmp","ma:ma:la","Down","38","6","3","7","S","C","83"
"","","approach-retreat","87","695904","0.0-87.0","","","1-4","6009","38","0","Training","Stims/Figures/44-J-10-3.bmp","mala:la","Down","40","6","4","7","S","C","84"
"","","approach-retreat","88","707664","0.0-88.0","","","1-4","10256","40","0","Training","Stims/Figures/94-C-20-2.bmp","papa:ta","Down","38","6","5","7","P","C","85"
"","","approach-retreat","89","717514","0.0-89.0","","","1-4","8344","39","0","Training","Stims/Figures/19-J-10-4.bmp","ma:mala","Left","37","6","6","7","S","C","86"
"","","approach-retreat","90","725401","0.0-90.0","","","1-4","6383","39","0","Training","Stims/Figures/57-C-30-1.bmp","tapa:ka","Right","37","6","7","7","P","C","87"
"","","approach-retreat","91","731730","0.0-91.0","","","1-4","4824","37","0","Training","Stims/Figures/86-J-0-1.bmp","pa:pa:ta","Right","39","6","8","7","P","C","88"
"","","approach-retreat","92","740729","0.0-92.0","","","1-4","7495","40","0","Training","Stims/Figures/139-J-0-2.bmp","tapa:ta","Up","38","6","9","7","P","C","89"
"","","approach-retreat","93","767369","0.0-93.0","","","1-4","25137","37","1","Training","Stims/Figures/94-J-0-2.bmp","ta:pa:ta","Left","37","6","10","7","P","C","90"
"","","approach-retreat","94","774649","0.0-94.0","","","1-4","5775","37","0","Training","Stims/Figures/139-C-20-2.bmp","ta:kaka","Left","39","6","11","7","P","C","91"
"","","approach-retreat","95","790153","0.0-95.0","","","1-4","14001","40","0","Training","Stims/Figures/19-C-20-4.bmp","mama:la","Down","38","6","12","7","S","C","92"
"","","approach-retreat","96","796969","0.0-96.0","","","1-4","5312","38","1","Training","Stims/Figures/128-J-10-3.bmp","mala:na","Up","38","6","13","7","S","C","93"
"","","approach-retreat","97","811089","0.0-97.0","","","1-4","12616","40","1","Training","Stims/Figures/128-C-30-3.bmp","ma:ma:na","Up","40","6","14","7","S","C","94"
"","","approach-retreat","98","829394","0.0-98.0","","","1-4","16801","38","1","Training","Stims/Figures/57-J-0-1.bmp","pa:pa:ka","Up","38","6","15","7","P","C","95"
"","","approach-retreat","99","839714","0.0-99.0","","","1-4","8816","39","0","Training","Stims/Figures/86-C-30-1.bmp","pa:ka:ta","Right","37","6","16","7","P","C","96"
"","","approach-retreat","100","852233","0.0-100.0","","","1-4","11015","38","0","Training","Stims/Figures/44-J-10-3.bmp","mala:la","Down","40","7","1","7","S","C","97"
"","","approach-retreat","101","863986","0.0-101.0","","","1-4","10249","40","1","Training","Stims/Figures/86-C-30-1.bmp","pa:ka:ta","Up","40","7","2","7","P","C","98"
"","","approach-retreat","102","1081002","0.0-102.0","","","1-4","215514","40","1","Training","Stims/Figures/44-C-30-3.bmp","malala","Up","40","7","3","7","S","C","99"
"","","approach-retreat","103","1086777","0.0-103.0","","","1-4","4272","39","0","Training","Stims/Figures/57-C-30-1.bmp","tapa:ka","Right","37","7","4","7","P","C","100"
"","","approach-retreat","104","1093546","0.0-104.0","","","1-4","5265","37","0","Training","Stims/Figures/19-C-20-4.bmp","mama:la","Left","39","7","5","7","S","C","101"
"","","approach-retreat","105","1107241","0.0-105.0","","","1-4","12190","39","0","Training","Stims/Figures/94-J-0-2.bmp","ta:pa:ta","Left","37","7","6","7","P","C","102"
"","","approach-retreat","106","1113113","0.0-106.0","","","1-4","4368","40","0","Training","Stims/Figures/139-C-20-2.bmp","ta:kaka","Down","38","7","7","7","P","C","103"
"","","approach-retreat","107","1120465","0.0-107.0","","","1-4","5849","39","1","Training","Stims/Figures/128-J-10-3.bmp","mala:na","Right","39","7","8","7","S","C","104"
"","","approach-retreat","108","1129336","0.0-108.0","","","1-4","7367","38","1","Training","Stims/Figures/74-J-10-4.bmp","na:mala","Up","38","7","9","7","S","C","105"
"","","approach-retreat","109","1138473","0.0-109.0","","","1-4","7633","39","1","Training","Stims/Figures/74-C-20-4.bmp","ma:ma:la","Left","39","7","10","7","S","C","106"
"","","approach-retreat","110","1147636","0.0-110.0","","","1-4","7641","38","1","Training","Stims/Figures/139-J-0-2.bmp","tapa:ta","Up","38","7","11","7","P","C","107"
"","","approach-retreat","111","1162161","0.0-111.0","","","1-4","13021","37","1","Training","Stims/Figures/128-C-30-3.bmp","ma:ma:na","Right","37","7","12","7","S","C","108"
"","","approach-retreat","112","1174098","0.0-112.0","","","1-4","10431","40","0","Training","Stims/Figures/94-C-20-2.bmp","papa:ta","Down","38","7","13","7","P","C","109"
"","","approach-retreat","113","1182745","0.0-113.0","","","1-4","7143","37","1","Training","Stims/Figures/57-J-0-1.bmp","pa:pa:ka","Left","37","7","14","7","P","C","110"
"","","approach-retreat","114","1191665","0.0-114.0","","","1-4","7416","38","0","Training","Stims/Figures/19-J-10-4.bmp","ma:mala","Down","40","7","15","7","S","C","111"
"","","approach-retreat","115","1215889","0.0-115.0","","","1-4","22720","39","1","Training","Stims/Figures/86-J-0-1.bmp","pa:pa:ta","Right","39","7","16","7","P","C","112"
"","","approach-retreat","116","1221882","0.0-116.0","","","1-4","4488","37","1","Training","Stims/Figures/74-J-10-4.bmp","na:mala","Left","37","8","1","7","S","C","113"
"","","approach-retreat","117","1229049","0.0-117.0","","","1-4","5663","40","0","Training","Stims/Figures/19-J-10-4.bmp","ma:mala","Up","38","8","2","7","S","C","114"
"","","approach-retreat","118","1235809","0.0-118.0","","","1-4","5257","38","1","Training","Stims/Figures/94-C-20-2.bmp","papa:ta","Down","38","8","3","7","P","C","115"
"","","approach-retreat","119","1244384","0.0-119.0","","","1-4","7073","39","1","Training","Stims/Figures/139-C-20-2.bmp","ta:kaka","Left","39","8","4","7","P","C","116"
"","","approach-retreat","120","1252001","0.0-120.0","","","1-4","6111","40","1","Training","Stims/Figures/94-J-0-2.bmp","ta:pa:ta","Down","40","8","5","7","P","C","117"
"","","approach-retreat","121","1261577","0.0-121.0","","","1-4","8072","39","1","Training","Stims/Figures/44-J-10-3.bmp","mala:la","Right","39","8","6","7","S","C","118"
"","","approach-retreat","122","1268881","0.0-122.0","","","1-4","5799","38","0","Training","Stims/Figures/74-C-20-4.bmp","ma:ma:la","Up","40","8","7","7","S","C","119"
"","","approach-retreat","123","1276433","0.0-123.0","","","1-4","6049","37","0","Training","Stims/Figures/57-C-30-1.bmp","tapa:ka","Left","39","8","8","7","P","C","120"
"","","approach-retreat","124","1284256","0.0-124.0","","","1-4","6320","40","1","Training","Stims/Figures/128-J-10-3.bmp","mala:na","Down","40","8","9","7","S","C","121"
"","","approach-retreat","125","1293297","0.0-125.0","","","1-4","7536","38","1","Training","Stims/Figures/86-J-0-1.bmp","pa:pa:ta","Up","38","8","10","7","P","C","122"
"","","approach-retreat","126","1301466","0.0-126.0","","","1-4","6664","38","0","Training","Stims/Figures/86-C-30-1.bmp","pa:ka:ta","Up","40","8","11","7","P","C","123"
"","","approach-retreat","127","1307489","0.0-127.0","","","1-4","4521","39","0","Training","Stims/Figures/128-C-30-3.bmp","ma:ma:na","Right","37","8","12","7","S","C","124"
"","","approach-retreat","128","1316512","0.0-128.0","","","1-4","7518","39","0","Training","Stims/Figures/139-J-0-2.bmp","tapa:ta","Left","37","8","13","7","P","C","125"
"","","approach-retreat","129","1321872","0.0-129.0","","","1-4","3857","40","0","Training","Stims/Figures/19-C-20-4.bmp","mama:la","Down","38","8","14","7","S","C","126"
"","","approach-retreat","130","1327105","0.0-130.0","","","1-4","3728","39","1","Training","Stims/Figures/57-J-0-1.bmp","pa:pa:ka","Right","39","8","15","7","P","C","127"
"","","approach-retreat","131","1332809","0.0-131.0","","","1-4","4199","39","0","Training","Stims/Figures/44-C-30-3.bmp","malala","Right","37","8","16","7","S","C","128"
"","","approach-retreat","132","1338585","0.0-132.0","","","1-4","4273","40","0","Training","Stims/Figures/57-C-30-1.bmp","tapa:ka","Down","38","9","1","7","P","C","129"
"","","approach-retreat","133","1344634","0.0-133.0","","","1-4","4544","38","0","Training","Stims/Figures/74-C-20-4.bmp","ma:ma:la","Up","40","9","2","7","S","C","130"
"","","approach-retreat","134","1350656","0.0-134.0","","","1-4","4520","39","1","Training","Stims/Figures/94-J-0-2.bmp","ta:pa:ta","Right","39","9","3","7","P","C","131"
"","","approach-retreat","135","1357938","0.0-135.0","","","1-4","5777","40","1","Training","Stims/Figures/44-J-10-3.bmp","mala:la","Down","40","9","4","7","S","C","132"
"","","approach-retreat","136","1365776","0.0-136.0","","","1-4","6336","38","1","Training","Stims/Figures/86-C-30-1.bmp","pa:ka:ta","Down","38","9","5","7","P","C","133"
"","","approach-retreat","137","1371488","0.0-137.0","","","1-4","4210","37","1","Training","Stims/Figures/94-C-20-2.bmp","papa:ta","Right","37","9","6","7","P","C","134"
"","","approach-retreat","138","1376840","0.0-138.0","","","1-4","3848","37","1","Training","Stims/Figures/139-J-0-2.bmp","tapa:ta","Left","37","9","7","7","P","C","135"
"","","approach-retreat","139","1382865","0.0-139.0","","","1-4","4520","38","1","Training","Stims/Figures/19-J-10-4.bmp","ma:mala","Up","38","9","8","7","S","C","136"
"","","approach-retreat","140","1388640","0.0-140.0","","","1-4","4273","40","0","Training","Stims/Figures/128-C-30-3.bmp","ma:ma:na","Down","38","9","9","7","S","C","137"
"","","approach-retreat","141","1394368","0.0-141.0","","","1-4","4225","38","1","Training","Stims/Figures/57-J-0-1.bmp","pa:pa:ka","Up","38","9","10","7","P","C","138"
"","","approach-retreat","142","1400938","0.0-142.0","","","1-4","5067","38","0","Training","Stims/Figures/19-C-20-4.bmp","mama:la","Up","40","9","11","7","S","C","139"
"","","approach-retreat","143","1406970","0.0-143.0","","","1-4","4528","37","1","Training","Stims/Figures/139-C-20-2.bmp","ta:kaka","Right","37","9","12","7","P","C","140"
"","","approach-retreat","144","1412594","0.0-144.0","","","1-4","4120","37","1","Training","Stims/Figures/74-J-10-4.bmp","na:mala","Left","37","9","13","7","S","C","141"
"","","approach-retreat","145","1418346","0.0-145.0","","","1-4","4249","37","1","Training","Stims/Figures/86-J-0-1.bmp","pa:pa:ta","Left","37","9","14","7","P","C","142"
"","","approach-retreat","146","1426665","0.0-146.0","","","1-4","6815","37","1","Training","Stims/Figures/128-J-10-3.bmp","mala:na","Left","37","9","15","7","S","C","143"
"","","approach-retreat","147","1432425","0.0-147.0","","","1-4","4256","37","1","Training","Stims/Figures/44-C-30-3.bmp","malala","Right","37","9","16","7","S","C","144"
"5435","","instructions","148","1437861","0.0-148.0","[{""page_index"":0,""viewing_time"":5434}]","","","","","","","","","","","","","","","",""
"","","approach-retreat","149","1452338","0.0-149.0","","","1-4","12974","38","0","Testing","Stims/Figures/74-C-20-4.bmp","ma:ma:la","Up","40","1","1","7","S","C","1"
"","","approach-retreat","150","1461905","0.0-150.0","","","1-4","8063","38","1","Testing","Stims/Figures/19-J-10-4.bmp","ma:mala","Up","38","1","2","7","S","C","2"
"","","approach-retreat","151","1468337","0.0-151.0","","","1-4","4928","39","1","Testing","Stims/Figures/86-J-0-1.bmp","pa:pa:ta","Right","39","1","3","7","P","C","3"
"","","approach-retreat","152","1474369","0.0-152.0","","","1-4","4529","38","0","Testing","Stims/Figures/44-J-10-3.bmp","mala:la","Down","40","1","4","7","S","C","4"
"","","approach-retreat","153","1480953","0.0-153.0","","","1-4","5080","37","0","Testing","Stims/Figures/27-C-30-1.bmp","pa:kata","Left","39","1","5","7","P","C","5"
"","","approach-retreat","154","1488209","0.0-154.0","","","1-4","5753","39","1","Testing","Stims/Figures/144-C-30-3.bmp","na:mana","Left","39","1","6","7","S","C","6"
"","","approach-retreat","155","1494081","0.0-155.0","","","1-4","4370","39","1","Testing","Stims/Figures/94-C-20-2.bmp","papa:ta","Left","39","1","7","7","P","C","7"
"","","approach-retreat","156","1502210","0.0-156.0","","","1-4","6625","37","1","Testing","Stims/Figures/94-J-0-2.bmp","ta:pa:ta","Left","37","1","8","7","P","C","8"
"","","approach-retreat","157","1508369","0.0-157.0","","","1-4","4657","40","1","Testing","Stims/Figures/139-C-20-2.bmp","ta:kaka","Up","40","1","9","7","P","C","9"
"","","approach-retreat","158","1514217","0.0-158.0","","","1-4","4345","37","1","Testing","Stims/Figures/44-C-30-3.bmp","malala","Right","37","1","10","7","S","C","10"
"","","approach-retreat","159","1520369","0.0-159.0","","","1-4","4649","40","1","Testing","Stims/Figures/118-J-0-2.bmp","paka:ta","Down","40","1","11","7","P","C","11"
"","","approach-retreat","160","1531177","0.0-160.0","","","1-4","9306","40","1","Testing","Stims/Figures/86-C-30-1.bmp","pa:ka:ta","Up","40","1","12","7","P","C","12"
"","","approach-retreat","161","1536858","0.0-161.0","","","1-4","4178","37","1","Testing","Stims/Figures/144-J-10-3.bmp","nalana","Left","37","1","13","7","S","C","13"
"","","approach-retreat","162","1543241","0.0-162.0","","","1-4","4881","39","1","Testing","Stims/Figures/74-J-10-4.bmp","na:mala","Right","39","1","14","7","S","C","14"
"","","approach-retreat","163","1549793","0.0-163.0","","","1-4","5049","40","1","Testing","Stims/Figures/139-J-0-2.bmp","tapa:ta","Down","40","1","15","7","P","C","15"
"","","approach-retreat","164","1556978","0.0-164.0","","","1-4","5681","37","1","Testing","Stims/Figures/27-J-0-1.bmp","taka:ka","Left","37","1","16","7","P","C","16"
"","","approach-retreat","165","1562809","0.0-165.0","","","1-4","4327","38","1","Testing","Stims/Figures/128-C-30-3.bmp","ma:ma:na","Down","38","1","17","7","S","C","17"
"","","approach-retreat","166","1574409","0.0-166.0","","","1-4","10096","39","1","Testing","Stims/Figures/7-J-10-4.bmp","na:la:la","Right","39","1","18","7","S","C","18"
"","","approach-retreat","167","1580320","0.0-167.0","","","1-4","4408","37","1","Testing","Stims/Figures/57-C-30-1.bmp","tapa:ka","Right","37","1","19","7","P","C","19"
"","","approach-retreat","168","1586066","0.0-168.0","","","1-4","4242","40","1","Testing","Stims/Figures/57-J-0-1.bmp","pa:pa:ka","Down","40","1","20","7","P","C","20"
"","","approach-retreat","169","1592473","0.0-169.0","","","1-4","4903","38","1","Testing","Stims/Figures/128-J-10-3.bmp","mala:na","Up","38","1","21","7","S","C","21"
"","","approach-retreat","170","1598865","0.0-170.0","","","1-4","4890","38","1","Testing","Stims/Figures/118-C-20-2.bmp","ta:paka","Down","38","1","22","7","P","C","22"
"","","approach-retreat","171","1604714","0.0-171.0","","","1-4","4346","37","1","Testing","Stims/Figures/19-C-20-4.bmp","mama:la","Right","37","1","23","7","S","C","23"
"","","approach-retreat","172","1612185","0.0-172.0","","","1-4","5969","40","1","Testing","Stims/Figures/7-C-20-4.bmp","mamala","Up","40","1","24","7","S","C","24"
"","","approach-retreat","173","1618193","0.0-173.0","","","1-4","4505","40","1","Testing","Stims/Figures/19-C-20-4.bmp","mama:la","Up","40","2","1","7","S","C","25"
"","","approach-retreat","174","1623953","0.0-174.0","","","1-4","4257","37","1","Testing","Stims/Figures/86-C-30-1.bmp","pa:ka:ta","Right","37","2","2","7","P","C","26"
"","","approach-retreat","175","1630032","0.0-175.0","","","1-4","4575","38","1","Testing","Stims/Figures/57-C-30-1.bmp","tapa:ka","Down","38","2","3","7","P","C","27"
"","","approach-retreat","176","1637928","0.0-176.0","","","1-4","6393","38","1","Testing","Stims/Figures/7-J-10-4.bmp","na:la:la","Up","38","2","4","7","S","C","28"
"","","approach-retreat","177","1644137","0.0-177.0","","","1-4","4706","39","1","Testing","Stims/Figures/74-J-10-4.bmp","na:mala","Right","39","2","5","7","S","C","29"
"","","approach-retreat","178","1649866","0.0-178.0","","","1-4","4225","40","1","Testing","Stims/Figures/57-J-0-1.bmp","pa:pa:ka","Down","40","2","6","7","P","C","30"
"","","approach-retreat","179","1655641","0.0-179.0","","","1-4","4273","37","1","Testing","Stims/Figures/94-J-0-2.bmp","ta:pa:ta","Left","37","2","7","7","P","C","31"
"","","approach-retreat","180","1663402","0.0-180.0","","","1-4","6257","40","1","Testing","Stims/Figures/144-J-10-3.bmp","nalana","Down","40","2","8","7","S","C","32"
"","","approach-retreat","181","1671113","0.0-181.0","","","1-4","6208","40","1","Testing","Stims/Figures/139-C-20-2.bmp","ta:kaka","Up","40","2","9","7","P","C","33"
"","","approach-retreat","182","1678226","0.0-182.0","","","1-4","5608","39","1","Testing","Stims/Figures/139-J-0-2.bmp","tapa:ta","Right","39","2","10","7","P","C","34"
"","","approach-retreat","183","1685369","0.0-183.0","","","1-4","5640","40","1","Testing","Stims/Figures/44-C-30-3.bmp","malala","Up","40","2","11","7","S","C","35"
"","","approach-retreat","184","1699298","0.0-184.0","","","1-4","12425","37","0","Testing","Stims/Figures/27-C-30-1.bmp","pa:kata","Left","39","2","12","7","P","C","36"
"","","approach-retreat","185","1706898","0.0-185.0","","","1-4","6097","38","0","Testing","Stims/Figures/44-J-10-3.bmp","mala:la","Down","40","2","13","7","S","C","37"
"","","approach-retreat","186","1713473","0.0-186.0","","","1-4","5074","37","1","Testing","Stims/Figures/19-J-10-4.bmp","ma:mala","Left","37","2","14","7","S","C","38"
"","","approach-retreat","187","1725577","0.0-187.0","","","1-4","10601","40","0","Testing","Stims/Figures/128-C-30-3.bmp","ma:ma:na","Down","38","2","15","7","S","C","39"
"","","approach-retreat","188","1733369","0.0-188.0","","","1-4","6289","37","1","Testing","Stims/Figures/118-J-0-2.bmp","paka:ta","Left","37","2","16","7","P","C","40"
"","","approach-retreat","189","1740234","0.0-189.0","","","1-4","5361","37","1","Testing","Stims/Figures/128-J-10-3.bmp","mala:na","Left","37","2","17","7","S","C","41"
"","","approach-retreat","190","1745801","0.0-190.0","","","1-4","4065","37","1","Testing","Stims/Figures/144-C-30-3.bmp","na:mana","Right","37","2","18","7","S","C","42"
"","","approach-retreat","191","1751482","0.0-191.0","","","1-4","4177","40","1","Testing","Stims/Figures/94-C-20-2.bmp","papa:ta","Up","40","2","19","7","P","C","43"
"","","approach-retreat","192","1757569","0.0-192.0","","","1-4","4584","40","1","Testing","Stims/Figures/118-C-20-2.bmp","ta:paka","Up","40","2","20","7","P","C","44"
"","","approach-retreat","193","1766474","0.0-193.0","","","1-4","7402","37","1","Testing","Stims/Figures/7-C-20-4.bmp","mamala","Right","37","2","21","7","S","C","45"
"","","approach-retreat","194","1772689","0.0-194.0","","","1-4","4713","39","1","Testing","Stims/Figures/86-J-0-1.bmp","pa:pa:ta","Right","39","2","22","7","P","C","46"
"","","approach-retreat","195","1778626","0.0-195.0","","","1-4","4433","37","0","Testing","Stims/Figures/74-C-20-4.bmp","ma:ma:la","Left","39","2","23","7","S","C","47"
"","","approach-retreat","196","1787497","0.0-196.0","","","1-4","7369","40","1","Testing","Stims/Figures/27-J-0-1.bmp","taka:ka","Down","40","2","24","7","P","C","48"
"","","approach-retreat","197","1794041","0.0-197.0","","","1-4","5041","40","1","Testing","Stims/Figures/86-J-0-1.bmp","pa:pa:ta","Down","40","3","1","7","P","C","49"
"","","approach-retreat","198","1803857","0.0-198.0","","","1-4","8313","39","1","Testing","Stims/Figures/27-J-0-1.bmp","taka:ka","Right","39","3","2","7","P","C","50"
"","","approach-retreat","199","1810049","0.0-199.0","","","1-4","4689","39","0","Testing","Stims/Figures/74-C-20-4.bmp","ma:ma:la","Right","37","3","3","7","S","C","51"
"","","approach-retreat","200","1818305","0.0-200.0","","","1-4","6753","38","1","Testing","Stims/Figures/128-C-30-3.bmp","ma:ma:na","Down","38","3","4","7","S","C","52"
"","","approach-retreat","201","1826465","0.0-201.0","","","1-4","6658","39","0","Testing","Stims/Figures/139-C-20-2.bmp","ta:kaka","Right","37","3","5","7","P","C","53"
"","","approach-retreat","202","1832178","0.0-202.0","","","1-4","4210","40","1","Testing","Stims/Figures/19-C-20-4.bmp","mama:la","Up","40","3","6","7","S","C","54"
"","","approach-retreat","203","1838026","0.0-203.0","","","1-4","4346","38","1","Testing","Stims/Figures/94-J-0-2.bmp","ta:pa:ta","Up","38","3","7","7","P","C","55"
"","","approach-retreat","204","1847513","0.0-204.0","","","1-4","7985","40","1","Testing","Stims/Figures/57-J-0-1.bmp","pa:pa:ka","Down","40","3","8","7","P","C","56"
"","","approach-retreat","205","1854577","0.0-205.0","","","1-4","5562","37","1","Testing","Stims/Figures/44-C-30-3.bmp","malala","Right","37","3","9","7","S","C","57"
"","","approach-retreat","206","1860641","0.0-206.0","","","1-4","4561","38","0","Testing","Stims/Figures/19-J-10-4.bmp","ma:mala","Down","40","3","10","7","S","C","58"
"","","approach-retreat","207","1866553","0.0-207.0","","","1-4","4410","38","1","Testing","Stims/Figures/94-C-20-2.bmp","papa:ta","Down","38","3","11","7","P","C","59"
"","","approach-retreat","208","1872961","0.0-208.0","","","1-4","4905","37","1","Testing","Stims/Figures/139-J-0-2.bmp","tapa:ta","Left","37","3","12","7","P","C","60"
"","","approach-retreat","209","1878688","0.0-209.0","","","1-4","4225","37","0","Testing","Stims/Figures/44-J-10-3.bmp","mala:la","Right","39","3","13","7","S","C","61"
"","","approach-retreat","210","1884809","0.0-210.0","","","1-4","4617","40","1","Testing","Stims/Figures/86-C-30-1.bmp","pa:ka:ta","Up","40","3","14","7","P","C","62"
"","","approach-retreat","211","1891138","0.0-211.0","","","1-4","4826","38","1","Testing","Stims/Figures/57-C-30-1.bmp","tapa:ka","Down","38","3","15","7","P","C","63"
"","","approach-retreat","212","1897137","0.0-212.0","","","1-4","4497","37","1","Testing","Stims/Figures/144-C-30-3.bmp","na:mana","Right","37","3","16","7","S","C","64"
"","","approach-retreat","213","1905298","0.0-213.0","","","1-4","6657","37","1","Testing","Stims/Figures/128-J-10-3.bmp","mala:na","Left","37","3","17","7","S","C","65"
"","","approach-retreat","214","1913329","0.0-214.0","","","1-4","6529","38","0","Testing","Stims/Figures/27-C-30-1.bmp","pa:kata","Up","40","3","18","7","P","C","66"
"","","approach-retreat","215","1923129","0.0-215.0","","","1-4","8297","40","1","Testing","Stims/Figures/118-C-20-2.bmp","ta:paka","Up","40","3","19","7","P","C","67"
"","","approach-retreat","216","1934610","0.0-216.0","","","1-4","9975","37","1","Testing","Stims/Figures/74-J-10-4.bmp","na:mala","Left","37","3","20","7","S","C","68"
"","","approach-retreat","217","1940817","0.0-217.0","","","1-4","4704","37","1","Testing","Stims/Figures/7-J-10-4.bmp","na:la:la","Left","37","3","21","7","S","C","69"
"","","approach-retreat","218","1948802","0.0-218.0","","","1-4","6481","40","1","Testing","Stims/Figures/7-C-20-4.bmp","mamala","Up","40","3","22","7","S","C","70"
"","","approach-retreat","219","1961506","0.0-219.0","","","1-4","11200","37","1","Testing","Stims/Figures/144-J-10-3.bmp","nalana","Left","37","3","23","7","S","C","71"
"","","approach-retreat","220","1971057","0.0-220.0","","","1-4","8049","37","1","Testing","Stims/Figures/118-J-0-2.bmp","paka:ta","Left","37","3","24","7","P","C","72"
"","","approach-retreat","221","1980377","0.0-221.0","","","1-4","7818","39","1","Testing","Stims/Figures/7-C-20-4.bmp","mamala","Left","39","4","1","7","S","C","73"
"","","approach-retreat","222","1992617","0.0-222.0","","","1-4","10738","37","1","Testing","Stims/Figures/44-C-30-3.bmp","malala","Right","37","4","2","7","S","C","74"
"","","approach-retreat","223","1999233","0.0-223.0","","","1-4","5112","40","1","Testing","Stims/Figures/94-C-20-2.bmp","papa:ta","Up","40","4","3","7","P","C","75"
"","","approach-retreat","224","2007938","0.0-224.0","","","1-4","7202","39","1","Testing","Stims/Figures/139-J-0-2.bmp","tapa:ta","Right","39","4","4","7","P","C","76"
"","","approach-retreat","225","2013802","0.0-225.0","","","1-4","4360","37","0","Testing","Stims/Figures/19-J-10-4.bmp","ma:mala","Right","39","4","5","7","S","C","77"
"","","approach-retreat","226","2021337","0.0-226.0","","","1-4","6032","39","1","Testing","Stims/Figures/144-C-30-3.bmp","na:mana","Left","39","4","6","7","S","C","78"
"","","approach-retreat","227","2029042","0.0-227.0","","","1-4","6201","38","1","Testing","Stims/Figures/139-C-20-2.bmp","ta:kaka","Down","38","4","7","7","P","C","79"
"","","approach-retreat","228","2037178","0.0-228.0","","","1-4","6634","38","1","Testing","Stims/Figures/74-J-10-4.bmp","na:mala","Up","38","4","8","7","S","C","80"
"","","approach-retreat","229","2043187","0.0-229.0","","","1-4","4503","37","1","Testing","Stims/Figures/74-C-20-4.bmp","ma:ma:la","Right","37","4","9","7","S","C","81"
"","","approach-retreat","230","2050073","0.0-230.0","","","1-4","5383","37","1","Testing","Stims/Figures/57-J-0-1.bmp","pa:pa:ka","Left","37","4","10","7","P","C","82"
"","","approach-retreat","231","2060777","0.0-231.0","","","1-4","9201","40","1","Testing","Stims/Figures/7-J-10-4.bmp","na:la:la","Down","40","4","11","7","S","C","83"
"","","approach-retreat","232","2066834","0.0-232.0","","","1-4","4552","38","1","Testing","Stims/Figures/128-C-30-3.bmp","ma:ma:na","Down","38","4","12","7","S","C","84"
"","","approach-retreat","233","2073681","0.0-233.0","","","1-4","5346","40","0","Testing","Stims/Figures/44-J-10-3.bmp","mala:la","Up","38","4","13","7","S","C","85"
"","","approach-retreat","234","2080818","0.0-234.0","","","1-4","5633","40","1","Testing","Stims/Figures/27-J-0-1.bmp","taka:ka","Down","40","4","14","7","P","C","86"
"","","approach-retreat","235","2087090","0.0-235.0","","","1-4","4769","39","1","Testing","Stims/Figures/144-J-10-3.bmp","nalana","Right","39","4","15","7","S","C","87"
"","","approach-retreat","236","2095105","0.0-236.0","","","1-4","6511","39","1","Testing","Stims/Figures/86-C-30-1.bmp","pa:ka:ta","Left","39","4","16","7","P","C","88"
"","","approach-retreat","237","2102330","0.0-237.0","","","1-4","5721","39","1","Testing","Stims/Figures/118-C-20-2.bmp","ta:paka","Left","39","4","17","7","P","C","89"
"","","approach-retreat","238","2108505","0.0-238.0","","","1-4","4674","39","1","Testing","Stims/Figures/118-J-0-2.bmp","paka:ta","Right","39","4","18","7","P","C","90"
"","","approach-retreat","239","2126473","0.0-239.0","","","1-4","16465","37","1","Testing","Stims/Figures/86-J-0-1.bmp","pa:pa:ta","Left","37","4","19","7","P","C","91"
"","","approach-retreat","240","2132346","0.0-240.0","","","1-4","4370","38","1","Testing","Stims/Figures/94-J-0-2.bmp","ta:pa:ta","Up","38","4","20","7","P","C","92"
"","","approach-retreat","241","2138034","0.0-241.0","","","1-4","4185","38","1","Testing","Stims/Figures/57-C-30-1.bmp","tapa:ka","Down","38","4","21","7","P","C","93"
"","","approach-retreat","242","2144633","0.0-242.0","","","1-4","5097","38","1","Testing","Stims/Figures/128-J-10-3.bmp","mala:na","Up","38","4","22","7","S","C","94"
"","","approach-retreat","243","2154977","0.0-243.0","","","1-4","8842","40","0","Testing","Stims/Figures/27-C-30-1.bmp","pa:kata","Down","38","4","23","7","P","C","95"
"","","approach-retreat","244","2165169","0.0-244.0","","","1-4","8690","40","1","Testing","Stims/Figures/19-C-20-4.bmp","mama:la","Up","40","4","24","7","S","C","96"
"14156","","survey-text","245","2179328","0.0-245.0","","{""Q0"":""1100""}","","","","","","","","","","","","","","",""
