"rt","key_press","trial_type","trial_index","time_elapsed","internal_node_id","view_history","responses","Id","Rt","ResKeyCode","ResCorr","TrialType2","Image","Label","Location","CorrectResponse","Block","BlockTrial","Condition","LabelType","Subcondition","trialNum"
"3786","32","text","0","3791","0.0-0.0-0.0","","","","","","","","","","","","","","","","",""
"162694","","instructions","1","166488","0.0-1.0","[{""page_index"":0,""viewing_time"":162693}]","","","","","","","","","","","","","","","",""
"8633","","survey-multi-choice","2","175171","0.0-2.0","","{""Q0"":""Da"",""Q1"":""Da"",""Q2"":""Da"",""Q3"":""Da"",""Q4"":""Da"",""Q5"":""Da""}","","","","","","","","","","","","","","",""
"","","bio","3","180788","0.0-3.0","","{""age"":""22"",""gender"":""f"",""specify"":""""}","","","","","","","","","","","","","","",""
"","","approach-retreat","4","187875","0.0-4.0","","","1-5","5574","40","0","Training","Stims/Figures/71-J-0-1.bmp","sa:sa:za","Down","38","1","1","3B","C2","J","1"
"","","approach-retreat","5","194742","0.0-5.0","","","1-5","5357","39","1","Training","Stims/Figures/86-J-0-1.bmp","sa:sa:za","Left","39","1","2","3B","C2","J","2"
"","","approach-retreat","6","201437","0.0-6.0","","","1-5","5186","40","1","Training","Stims/Figures/85-J-0-2.bmp","sa:sa:za","Up","40","1","3","3B","C2","J","3"
"","","approach-retreat","7","208690","0.0-7.0","","","1-5","5743","39","1","Training","Stims/Figures/71-C-30-1.bmp","fashava","Right","39","1","4","3B","C1","J","4"
"","","approach-retreat","8","214937","0.0-8.0","","","1-5","4739","37","1","Training","Stims/Figures/128-J-10-3.bmp","sa:sa:za","Right","37","1","5","3B","C2","J","5"
"","","approach-retreat","9","221354","0.0-9.0","","","1-5","4908","40","1","Training","Stims/Figures/128-C-30-3.bmp","fashava","Down","40","1","6","3B","C1","J","6"
"","","approach-retreat","10","227152","0.0-10.0","","","1-5","4289","39","1","Training","Stims/Figures/44-C-30-3.bmp","fashava","Right","39","1","7","3B","C1","J","7"
"","","approach-retreat","11","234989","0.0-11.0","","","1-5","6327","40","1","Training","Stims/Figures/19-J-10-4.bmp","sa:sa:za","Up","40","1","8","3B","C2","J","8"
"","","approach-retreat","12","241932","0.0-12.0","","","1-5","5432","40","1","Training","Stims/Figures/84-C-20-2.bmp","fashava","Down","40","1","9","3B","C1","J","9"
"","","approach-retreat","13","248330","0.0-13.0","","","1-5","4889","40","1","Training","Stims/Figures/86-C-30-1.bmp","fashava","Down","40","1","10","3B","C1","J","10"
"","","approach-retreat","14","256266","0.0-14.0","","","1-5","6425","40","1","Training","Stims/Figures/44-J-10-3.bmp","sa:sa:za","Up","40","1","11","3B","C2","J","11"
"","","approach-retreat","15","262545","0.0-15.0","","","1-5","4770","37","1","Training","Stims/Figures/85-C-20-2.bmp","fashava","Left","37","1","12","3B","C1","J","12"
"","","approach-retreat","16","270481","0.0-16.0","","","1-5","6429","40","1","Training","Stims/Figures/7-J-10-4.bmp","sa:sa:za","Up","40","1","13","3B","C2","J","13"
"","","approach-retreat","17","276639","0.0-17.0","","","1-5","4648","37","1","Training","Stims/Figures/7-C-20-4.bmp","fashava","Left","37","1","14","3B","C1","J","14"
"","","approach-retreat","18","284103","0.0-18.0","","","1-5","5955","39","1","Training","Stims/Figures/19-C-20-4.bmp","fashava","Right","39","1","15","3B","C1","J","15"
"","","approach-retreat","19","290668","0.0-19.0","","","1-5","5056","39","1","Training","Stims/Figures/84-J-0-2.bmp","sa:sa:za","Left","39","1","16","3B","C2","J","16"
"","","approach-retreat","20","297461","0.0-20.0","","","1-5","5283","38","1","Training","Stims/Figures/85-J-0-2.bmp","sa:sa:za","Down","38","2","1","3B","C2","J","17"
"","","approach-retreat","21","303373","0.0-21.0","","","1-5","4404","37","1","Training","Stims/Figures/71-C-30-1.bmp","fashava","Left","37","2","2","3B","C1","J","18"
"","","approach-retreat","22","309674","0.0-22.0","","","1-5","4791","38","1","Training","Stims/Figures/128-J-10-3.bmp","sa:sa:za","Down","38","2","3","3B","C2","J","19"
"","","approach-retreat","23","316400","0.0-23.0","","","1-5","5216","37","1","Training","Stims/Figures/19-J-10-4.bmp","sa:sa:za","Right","37","2","4","3B","C2","J","20"
"","","approach-retreat","24","323330","0.0-24.0","","","1-5","5422","39","1","Training","Stims/Figures/84-C-20-2.bmp","fashava","Right","39","2","5","3B","C1","J","21"
"","","approach-retreat","25","329634","0.0-25.0","","","1-5","4795","38","0","Training","Stims/Figures/44-J-10-3.bmp","sa:sa:za","Up","40","2","6","3B","C2","J","22"
"","","approach-retreat","26","336412","0.0-26.0","","","1-5","5269","39","1","Training","Stims/Figures/84-J-0-2.bmp","sa:sa:za","Left","39","2","7","3B","C2","J","23"
"","","approach-retreat","27","342198","0.0-27.0","","","1-5","4277","39","1","Training","Stims/Figures/71-J-0-1.bmp","sa:sa:za","Left","39","2","8","3B","C2","J","24"
"","","approach-retreat","28","348112","0.0-28.0","","","1-5","4407","38","1","Training","Stims/Figures/7-J-10-4.bmp","sa:sa:za","Down","38","2","9","3B","C2","J","25"
"","","approach-retreat","29","354673","0.0-29.0","","","1-5","5052","38","1","Training","Stims/Figures/86-C-30-1.bmp","fashava","Up","38","2","10","3B","C1","J","26"
"","","approach-retreat","30","360618","0.0-30.0","","","1-5","4435","39","1","Training","Stims/Figures/44-C-30-3.bmp","fashava","Right","39","2","11","3B","C1","J","27"
"","","approach-retreat","31","367226","0.0-31.0","","","1-5","5100","38","1","Training","Stims/Figures/19-C-20-4.bmp","fashava","Up","38","2","12","3B","C1","J","28"
"","","approach-retreat","32","373273","0.0-32.0","","","1-5","4537","40","1","Training","Stims/Figures/7-C-20-4.bmp","fashava","Down","40","2","13","3B","C1","J","29"
"","","approach-retreat","33","379622","0.0-33.0","","","1-5","4841","37","1","Training","Stims/Figures/85-C-20-2.bmp","fashava","Left","37","2","14","3B","C1","J","30"
"","","approach-retreat","34","386234","0.0-34.0","","","1-5","5104","39","1","Training","Stims/Figures/128-C-30-3.bmp","fashava","Right","39","2","15","3B","C1","J","31"
"","","approach-retreat","35","391998","0.0-35.0","","","1-5","4255","38","0","Training","Stims/Figures/86-J-0-1.bmp","sa:sa:za","Up","40","2","16","3B","C2","J","32"
"","","approach-retreat","36","398573","0.0-36.0","","","1-5","5064","39","1","Training","Stims/Figures/71-J-0-1.bmp","sa:sa:za","Left","39","3","1","3B","C2","J","33"
"","","approach-retreat","37","405018","0.0-37.0","","","1-5","4937","40","1","Training","Stims/Figures/44-C-30-3.bmp","fashava","Down","40","3","2","3B","C1","J","34"
"","","approach-retreat","38","412142","0.0-38.0","","","1-5","5613","39","1","Training","Stims/Figures/85-J-0-2.bmp","sa:sa:za","Left","39","3","3","3B","C2","J","35"
"","","approach-retreat","39","418373","0.0-39.0","","","1-5","4720","39","1","Training","Stims/Figures/19-J-10-4.bmp","sa:sa:za","Left","39","3","4","3B","C2","J","36"
"","","approach-retreat","40","425210","0.0-40.0","","","1-5","5327","39","1","Training","Stims/Figures/7-C-20-4.bmp","fashava","Right","39","3","5","3B","C1","J","37"
"","","approach-retreat","41","431692","0.0-41.0","","","1-5","4973","38","1","Training","Stims/Figures/85-C-20-2.bmp","fashava","Up","38","3","6","3B","C1","J","38"
"","","approach-retreat","42","438252","0.0-42.0","","","1-5","5051","37","1","Training","Stims/Figures/84-J-0-2.bmp","sa:sa:za","Right","37","3","7","3B","C2","J","39"
"","","approach-retreat","43","444936","0.0-43.0","","","1-5","5175","40","1","Training","Stims/Figures/86-J-0-1.bmp","sa:sa:za","Up","40","3","8","3B","C2","J","40"
"","","approach-retreat","44","451731","0.0-44.0","","","1-5","5286","40","1","Training","Stims/Figures/86-C-30-1.bmp","fashava","Down","40","3","9","3B","C1","J","41"
"","","approach-retreat","45","458476","0.0-45.0","","","1-5","5235","40","1","Training","Stims/Figures/128-C-30-3.bmp","fashava","Down","40","3","10","3B","C1","J","42"
"","","approach-retreat","46","465453","0.0-46.0","","","1-5","5468","38","1","Training","Stims/Figures/84-C-20-2.bmp","fashava","Up","38","3","11","3B","C1","J","43"
"","","approach-retreat","47","472489","0.0-47.0","","","1-5","5525","37","1","Training","Stims/Figures/44-J-10-3.bmp","sa:sa:za","Right","37","3","12","3B","C2","J","44"
"","","approach-retreat","48","478829","0.0-48.0","","","1-5","4831","38","1","Training","Stims/Figures/71-C-30-1.bmp","fashava","Up","38","3","13","3B","C1","J","45"
"","","approach-retreat","49","487392","0.0-49.0","","","1-5","7053","40","1","Training","Stims/Figures/19-C-20-4.bmp","fashava","Down","40","3","14","3B","C1","J","46"
"","","approach-retreat","50","494297","0.0-50.0","","","1-5","5394","39","1","Training","Stims/Figures/7-J-10-4.bmp","sa:sa:za","Left","39","3","15","3B","C2","J","47"
"","","approach-retreat","51","502305","0.0-51.0","","","1-5","6499","37","1","Training","Stims/Figures/128-J-10-3.bmp","sa:sa:za","Right","37","3","16","3B","C2","J","48"
"","","approach-retreat","52","508892","0.0-52.0","","","1-5","5078","37","1","Training","Stims/Figures/44-C-30-3.bmp","fashava","Left","37","4","1","3B","C1","J","49"
"","","approach-retreat","53","515953","0.0-53.0","","","1-5","5553","37","1","Training","Stims/Figures/19-C-20-4.bmp","fashava","Left","37","4","2","3B","C1","J","50"
"","","approach-retreat","54","522678","0.0-54.0","","","1-5","5217","39","1","Training","Stims/Figures/128-C-30-3.bmp","fashava","Right","39","4","3","3B","C1","J","51"
"","","approach-retreat","55","528955","0.0-55.0","","","1-5","4768","38","1","Training","Stims/Figures/128-J-10-3.bmp","sa:sa:za","Down","38","4","4","3B","C2","J","52"
"","","approach-retreat","56","536698","0.0-56.0","","","1-5","6233","37","1","Training","Stims/Figures/85-C-20-2.bmp","fashava","Left","37","4","5","3B","C1","J","53"
"","","approach-retreat","57","542810","0.0-57.0","","","1-5","4603","39","1","Training","Stims/Figures/7-J-10-4.bmp","sa:sa:za","Left","39","4","6","3B","C2","J","54"
"","","approach-retreat","58","548737","0.0-58.0","","","1-5","4418","38","1","Training","Stims/Figures/85-J-0-2.bmp","sa:sa:za","Down","38","4","7","3B","C2","J","55"
"","","approach-retreat","59","556305","0.0-59.0","","","1-5","6059","39","1","Training","Stims/Figures/86-C-30-1.bmp","fashava","Right","39","4","8","3B","C1","J","56"
"","","approach-retreat","60","562651","0.0-60.0","","","1-5","4837","40","1","Training","Stims/Figures/44-J-10-3.bmp","sa:sa:za","Up","40","4","9","3B","C2","J","57"
"","","approach-retreat","61","569978","0.0-61.0","","","1-5","5818","40","1","Training","Stims/Figures/86-J-0-1.bmp","sa:sa:za","Up","40","4","10","3B","C2","J","58"
"","","approach-retreat","62","576525","0.0-62.0","","","1-5","5037","40","1","Training","Stims/Figures/71-J-0-1.bmp","sa:sa:za","Up","40","4","11","3B","C2","J","59"
"","","approach-retreat","63","583193","0.0-63.0","","","1-5","5159","38","1","Training","Stims/Figures/84-C-20-2.bmp","fashava","Up","38","4","12","3B","C1","J","60"
"","","approach-retreat","64","589633","0.0-64.0","","","1-5","4927","39","1","Training","Stims/Figures/71-C-30-1.bmp","fashava","Right","39","4","13","3B","C1","J","61"
"","","approach-retreat","65","596901","0.0-65.0","","","1-5","5758","40","1","Training","Stims/Figures/7-C-20-4.bmp","fashava","Down","40","4","14","3B","C1","J","62"
"","","approach-retreat","66","603378","0.0-66.0","","","1-5","4967","38","1","Training","Stims/Figures/19-J-10-4.bmp","sa:sa:za","Down","38","4","15","3B","C2","J","63"
"","","approach-retreat","67","609602","0.0-67.0","","","1-5","4712","37","1","Training","Stims/Figures/84-J-0-2.bmp","sa:sa:za","Right","37","4","16","3B","C2","J","64"
"","","approach-retreat","68","615738","0.0-68.0","","","1-5","4629","40","1","Training","Stims/Figures/71-C-30-1.bmp","fashava","Down","40","5","1","3B","C1","J","65"
"","","approach-retreat","69","623497","0.0-69.0","","","1-5","6249","38","1","Training","Stims/Figures/84-C-20-2.bmp","fashava","Up","38","5","2","3B","C1","J","66"
"","","approach-retreat","70","629583","0.0-70.0","","","1-5","4577","37","1","Training","Stims/Figures/85-J-0-2.bmp","sa:sa:za","Right","37","5","3","3B","C2","J","67"
"","","approach-retreat","71","637496","0.0-71.0","","","1-5","6405","39","1","Training","Stims/Figures/71-J-0-1.bmp","sa:sa:za","Left","39","5","4","3B","C2","J","68"
"","","approach-retreat","72","643891","0.0-72.0","","","1-5","4887","37","1","Training","Stims/Figures/7-J-10-4.bmp","sa:sa:za","Right","37","5","5","3B","C2","J","69"
"","","approach-retreat","73","651554","0.0-73.0","","","1-5","6155","40","1","Training","Stims/Figures/44-C-30-3.bmp","fashava","Down","40","5","6","3B","C1","J","70"
"","","approach-retreat","74","659804","0.0-74.0","","","1-5","6740","40","1","Training","Stims/Figures/85-C-20-2.bmp","fashava","Down","40","5","7","3B","C1","J","71"
"","","approach-retreat","75","665953","0.0-75.0","","","1-5","4640","39","1","Training","Stims/Figures/86-J-0-1.bmp","sa:sa:za","Left","39","5","8","3B","C2","J","72"
"","","approach-retreat","76","672225","0.0-76.0","","","1-5","4763","39","1","Training","Stims/Figures/19-J-10-4.bmp","sa:sa:za","Left","39","5","9","3B","C2","J","73"
"","","approach-retreat","77","678191","0.0-77.0","","","1-5","4458","37","1","Training","Stims/Figures/128-C-30-3.bmp","fashava","Left","37","5","10","3B","C1","J","74"
"","","approach-retreat","78","685023","0.0-78.0","","","1-5","5322","40","1","Training","Stims/Figures/44-J-10-3.bmp","sa:sa:za","Up","40","5","11","3B","C2","J","75"
"","","approach-retreat","79","691864","0.0-79.0","","","1-5","5331","40","1","Training","Stims/Figures/86-C-30-1.bmp","fashava","Down","40","5","12","3B","C1","J","76"
"","","approach-retreat","80","698949","0.0-80.0","","","1-5","5575","38","1","Training","Stims/Figures/7-C-20-4.bmp","fashava","Up","38","5","13","3B","C1","J","77"
"","","approach-retreat","81","705026","0.0-81.0","","","1-5","4569","37","1","Training","Stims/Figures/84-J-0-2.bmp","sa:sa:za","Right","37","5","14","3B","C2","J","78"
"","","approach-retreat","82","712540","0.0-82.0","","","1-5","6003","40","1","Training","Stims/Figures/128-J-10-3.bmp","sa:sa:za","Up","40","5","15","3B","C2","J","79"
"","","approach-retreat","83","718835","0.0-83.0","","","1-5","4787","39","1","Training","Stims/Figures/19-C-20-4.bmp","fashava","Right","39","5","16","3B","C1","J","80"
"","","approach-retreat","84","725278","0.0-84.0","","","1-5","4933","40","1","Training","Stims/Figures/85-C-20-2.bmp","fashava","Down","40","6","1","3B","C1","J","81"
"","","approach-retreat","85","731794","0.0-85.0","","","1-5","5008","37","1","Training","Stims/Figures/128-J-10-3.bmp","sa:sa:za","Right","37","6","2","3B","C2","J","82"
"","","approach-retreat","86","738096","0.0-86.0","","","1-5","4792","38","1","Training","Stims/Figures/19-J-10-4.bmp","sa:sa:za","Down","38","6","3","3B","C2","J","83"
"","","approach-retreat","87","744210","0.0-87.0","","","1-5","4605","37","1","Training","Stims/Figures/44-C-30-3.bmp","fashava","Left","37","6","4","3B","C1","J","84"
"","","approach-retreat","88","751231","0.0-88.0","","","1-5","5514","38","1","Training","Stims/Figures/86-J-0-1.bmp","sa:sa:za","Down","38","6","5","3B","C2","J","85"
"","","approach-retreat","89","757336","0.0-89.0","","","1-5","4596","39","1","Training","Stims/Figures/86-C-30-1.bmp","fashava","Right","39","6","6","3B","C1","J","86"
"","","approach-retreat","90","763173","0.0-90.0","","","1-5","4327","37","1","Training","Stims/Figures/71-C-30-1.bmp","fashava","Left","37","6","7","3B","C1","J","87"
"","","approach-retreat","91","769915","0.0-91.0","","","1-5","5235","37","1","Training","Stims/Figures/84-J-0-2.bmp","sa:sa:za","Right","37","6","8","3B","C2","J","88"
"","","approach-retreat","92","775713","0.0-92.0","","","1-5","4287","40","1","Training","Stims/Figures/44-J-10-3.bmp","sa:sa:za","Up","40","6","9","3B","C2","J","89"
"","","approach-retreat","93","781788","0.0-93.0","","","1-5","4565","39","0","Training","Stims/Figures/84-C-20-2.bmp","fashava","Left","37","6","10","3B","C1","J","90"
"","","approach-retreat","94","788888","0.0-94.0","","","1-5","5591","40","1","Training","Stims/Figures/7-J-10-4.bmp","sa:sa:za","Up","40","6","11","3B","C2","J","91"
"","","approach-retreat","95","794975","0.0-95.0","","","1-5","4579","39","1","Training","Stims/Figures/85-J-0-2.bmp","sa:sa:za","Left","39","6","12","3B","C2","J","92"
"","","approach-retreat","96","800700","0.0-96.0","","","1-5","4216","38","1","Training","Stims/Figures/71-J-0-1.bmp","sa:sa:za","Down","38","6","13","3B","C2","J","93"
"","","approach-retreat","97","807203","0.0-97.0","","","1-5","4994","38","1","Training","Stims/Figures/128-C-30-3.bmp","fashava","Up","38","6","14","3B","C1","J","94"
"","","approach-retreat","98","813189","0.0-98.0","","","1-5","4475","39","1","Training","Stims/Figures/19-C-20-4.bmp","fashava","Right","39","6","15","3B","C1","J","95"
"","","approach-retreat","99","818984","0.0-99.0","","","1-5","4285","38","1","Training","Stims/Figures/7-C-20-4.bmp","fashava","Up","38","6","16","3B","C1","J","96"
"","","approach-retreat","100","825176","0.0-100.0","","","1-5","4683","39","1","Training","Stims/Figures/85-C-20-2.bmp","fashava","Right","39","7","1","3B","C1","J","97"
"","","approach-retreat","101","830819","0.0-101.0","","","1-5","4133","40","1","Training","Stims/Figures/19-J-10-4.bmp","sa:sa:za","Up","40","7","2","3B","C2","J","98"
"","","approach-retreat","102","836556","0.0-102.0","","","1-5","4227","37","1","Training","Stims/Figures/71-C-30-1.bmp","fashava","Left","37","7","3","3B","C1","J","99"
"","","approach-retreat","103","842764","0.0-103.0","","","1-5","4699","37","1","Training","Stims/Figures/71-J-0-1.bmp","sa:sa:za","Right","37","7","4","3B","C2","J","100"
"","","approach-retreat","104","848502","0.0-104.0","","","1-5","4230","38","1","Training","Stims/Figures/84-C-20-2.bmp","fashava","Up","38","7","5","3B","C1","J","101"
"","","approach-retreat","105","854895","0.0-105.0","","","1-5","4883","39","1","Training","Stims/Figures/128-J-10-3.bmp","sa:sa:za","Left","39","7","6","3B","C2","J","102"
"","","approach-retreat","106","861450","0.0-106.0","","","1-5","5047","38","1","Training","Stims/Figures/85-J-0-2.bmp","sa:sa:za","Down","38","7","7","3B","C2","J","103"
"","","approach-retreat","107","867556","0.0-107.0","","","1-5","4597","39","1","Training","Stims/Figures/19-C-20-4.bmp","fashava","Right","39","7","8","3B","C1","J","104"
"","","approach-retreat","108","873373","0.0-108.0","","","1-5","4307","40","1","Training","Stims/Figures/86-C-30-1.bmp","fashava","Down","40","7","9","3B","C1","J","105"
"","","approach-retreat","109","879117","0.0-109.0","","","1-5","4235","38","1","Training","Stims/Figures/44-J-10-3.bmp","sa:sa:za","Down","38","7","10","3B","C2","J","106"
"","","approach-retreat","110","884857","0.0-110.0","","","1-5","4230","37","1","Training","Stims/Figures/7-C-20-4.bmp","fashava","Left","37","7","11","3B","C1","J","107"
"","","approach-retreat","111","891022","0.0-111.0","","","1-5","4658","38","1","Training","Stims/Figures/86-J-0-1.bmp","sa:sa:za","Down","38","7","12","3B","C2","J","108"
"","","approach-retreat","112","897861","0.0-112.0","","","1-5","5330","40","1","Training","Stims/Figures/84-J-0-2.bmp","sa:sa:za","Up","40","7","13","3B","C2","J","109"
"","","approach-retreat","113","904125","0.0-113.0","","","1-5","4755","37","1","Training","Stims/Figures/128-C-30-3.bmp","fashava","Left","37","7","14","3B","C1","J","110"
"","","approach-retreat","114","910264","0.0-114.0","","","1-5","4630","39","1","Training","Stims/Figures/44-C-30-3.bmp","fashava","Right","39","7","15","3B","C1","J","111"
"","","approach-retreat","115","916701","0.0-115.0","","","1-5","4929","40","1","Training","Stims/Figures/7-J-10-4.bmp","sa:sa:za","Up","40","7","16","3B","C2","J","112"
"","","approach-retreat","116","923379","0.0-116.0","","","1-5","5168","40","1","Training","Stims/Figures/19-J-10-4.bmp","sa:sa:za","Up","40","8","1","3B","C2","J","113"
"","","approach-retreat","117","928893","0.0-117.0","","","1-5","4002","40","1","Training","Stims/Figures/44-J-10-3.bmp","sa:sa:za","Up","40","8","2","3B","C2","J","114"
"","","approach-retreat","118","934832","0.0-118.0","","","1-5","4430","37","1","Training","Stims/Figures/7-C-20-4.bmp","fashava","Left","37","8","3","3B","C1","J","115"
"","","approach-retreat","119","940598","0.0-119.0","","","1-5","4256","38","1","Training","Stims/Figures/84-C-20-2.bmp","fashava","Up","38","8","4","3B","C1","J","116"
"","","approach-retreat","120","946327","0.0-120.0","","","1-5","4221","40","1","Training","Stims/Figures/85-C-20-2.bmp","fashava","Down","40","8","5","3B","C1","J","117"
"","","approach-retreat","121","952235","0.0-121.0","","","1-5","4397","37","1","Training","Stims/Figures/128-J-10-3.bmp","sa:sa:za","Right","37","8","6","3B","C2","J","118"
"","","approach-retreat","122","957635","0.0-122.0","","","1-5","3891","40","1","Training","Stims/Figures/7-J-10-4.bmp","sa:sa:za","Up","40","8","7","3B","C2","J","119"
"","","approach-retreat","123","963242","0.0-123.0","","","1-5","4098","38","1","Training","Stims/Figures/71-J-0-1.bmp","sa:sa:za","Down","38","8","8","3B","C2","J","120"
"","","approach-retreat","124","969065","0.0-124.0","","","1-5","4314","37","1","Training","Stims/Figures/71-C-30-1.bmp","fashava","Left","37","8","9","3B","C1","J","121"
"","","approach-retreat","125","974684","0.0-125.0","","","1-5","4109","37","1","Training","Stims/Figures/86-C-30-1.bmp","fashava","Left","37","8","10","3B","C1","J","122"
"","","approach-retreat","126","980540","0.0-126.0","","","1-5","4348","39","1","Training","Stims/Figures/128-C-30-3.bmp","fashava","Right","39","8","11","3B","C1","J","123"
"","","approach-retreat","127","986223","0.0-127.0","","","1-5","4174","38","1","Training","Stims/Figures/86-J-0-1.bmp","sa:sa:za","Down","38","8","12","3B","C2","J","124"
"","","approach-retreat","128","991867","0.0-128.0","","","1-5","4135","39","1","Training","Stims/Figures/19-C-20-4.bmp","fashava","Right","39","8","13","3B","C1","J","125"
"","","approach-retreat","129","997615","0.0-129.0","","","1-5","4239","39","1","Training","Stims/Figures/44-C-30-3.bmp","fashava","Right","39","8","14","3B","C1","J","126"
"","","approach-retreat","130","1003333","0.0-130.0","","","1-5","4209","39","1","Training","Stims/Figures/84-J-0-2.bmp","sa:sa:za","Left","39","8","15","3B","C2","J","127"
"","","approach-retreat","131","1009109","0.0-131.0","","","1-5","4267","38","1","Training","Stims/Figures/85-J-0-2.bmp","sa:sa:za","Down","38","8","16","3B","C2","J","128"
"","","approach-retreat","132","1014835","0.0-132.0","","","1-5","4216","38","1","Training","Stims/Figures/86-J-0-1.bmp","sa:sa:za","Down","38","9","1","3B","C2","J","129"
"","","approach-retreat","133","1020626","0.0-133.0","","","1-5","4282","39","1","Training","Stims/Figures/7-C-20-4.bmp","fashava","Right","39","9","2","3B","C1","J","130"
"","","approach-retreat","134","1027842","0.0-134.0","","","1-5","5705","37","1","Training","Stims/Figures/7-J-10-4.bmp","sa:sa:za","Right","37","9","3","3B","C2","J","131"
"","","approach-retreat","135","1033526","0.0-135.0","","","1-5","4175","40","1","Training","Stims/Figures/128-J-10-3.bmp","sa:sa:za","Up","40","9","4","3B","C2","J","132"
"","","approach-retreat","136","1039283","0.0-136.0","","","1-5","4242","37","1","Training","Stims/Figures/86-C-30-1.bmp","fashava","Left","37","9","5","3B","C1","J","133"
"","","approach-retreat","137","1045625","0.0-137.0","","","1-5","4833","40","1","Training","Stims/Figures/71-J-0-1.bmp","sa:sa:za","Up","40","9","6","3B","C2","J","134"
"","","approach-retreat","138","1051684","0.0-138.0","","","1-5","4549","40","1","Training","Stims/Figures/44-C-30-3.bmp","fashava","Down","40","9","7","3B","C1","J","135"
"","","approach-retreat","139","1057795","0.0-139.0","","","1-5","4601","39","1","Training","Stims/Figures/84-C-20-2.bmp","fashava","Right","39","9","8","3B","C1","J","136"
"","","approach-retreat","140","1063748","0.0-140.0","","","1-5","4443","37","1","Training","Stims/Figures/85-C-20-2.bmp","fashava","Left","37","9","9","3B","C1","J","137"
"","","approach-retreat","141","1069914","0.0-141.0","","","1-5","4658","40","1","Training","Stims/Figures/19-J-10-4.bmp","sa:sa:za","Up","40","9","10","3B","C2","J","138"
"","","approach-retreat","142","1076449","0.0-142.0","","","1-5","5025","40","1","Training","Stims/Figures/19-C-20-4.bmp","fashava","Down","40","9","11","3B","C1","J","139"
"","","approach-retreat","143","1082462","0.0-143.0","","","1-5","4504","39","1","Training","Stims/Figures/85-J-0-2.bmp","sa:sa:za","Left","39","9","12","3B","C2","J","140"
"","","approach-retreat","144","1088454","0.0-144.0","","","1-5","4483","40","1","Training","Stims/Figures/128-C-30-3.bmp","fashava","Down","40","9","13","3B","C1","J","141"
"","","approach-retreat","145","1094120","0.0-145.0","","","1-5","4157","37","1","Training","Stims/Figures/84-J-0-2.bmp","sa:sa:za","Right","37","9","14","3B","C2","J","142"
"","","approach-retreat","146","1101045","0.0-146.0","","","1-5","5416","38","1","Training","Stims/Figures/71-C-30-1.bmp","fashava","Up","38","9","15","3B","C1","J","143"
"","","approach-retreat","147","1107984","0.0-147.0","","","1-5","5429","39","1","Training","Stims/Figures/44-J-10-3.bmp","sa:sa:za","Left","39","9","16","3B","C2","J","144"
"17835","","instructions","148","1125819","0.0-148.0","[{""page_index"":0,""viewing_time"":17834}]","","","","","","","","","","","","","","","",""
"","","approach-retreat","149","1132038","0.0-149.0","","","1-5","4713","40","1","Testing","Stims/Figures/86-C-30-1.bmp","fashava","Down","40","1","1","3B","C1","J","1"
"","","approach-retreat","150","1140694","0.0-150.0","","","1-5","7148","37","1","Testing","Stims/Figures/128-J-10-3.bmp","sa:sa:za","Right","37","1","2","3B","C2","J","2"
"","","approach-retreat","151","1146742","0.0-151.0","","","1-5","4541","39","1","Testing","Stims/Figures/128-C-30-3.bmp","fashava","Right","39","1","3","3B","C1","J","3"
"","","approach-retreat","152","1152610","0.0-152.0","","","1-5","4362","38","1","Testing","Stims/Figures/71-J-0-1.bmp","sa:sa:za","Down","38","1","4","3B","C2","J","4"
"","","approach-retreat","153","1160368","0.0-153.0","","","1-5","6251","39","1","Testing","Stims/Figures/87-J-10-4.bmp","sa:sa:za","Left","39","1","5","3B","C2","J","5"
"","","approach-retreat","154","1165911","0.0-154.0","","","1-5","4037","39","1","Testing","Stims/Figures/139-J-0-2.bmp","sa:sa:za","Left","39","1","6","3B","C2","J","6"
"","","approach-retreat","155","1171754","0.0-155.0","","","1-5","4336","37","1","Testing","Stims/Figures/85-J-0-2.bmp","sa:sa:za","Right","37","1","7","3B","C2","J","7"
"","","approach-retreat","156","1177461","0.0-156.0","","","1-5","4201","39","1","Testing","Stims/Figures/84-J-0-2.bmp","sa:sa:za","Left","39","1","8","3B","C2","J","8"
"","","approach-retreat","157","1185170","0.0-157.0","","","1-5","6201","38","0","Testing","Stims/Figures/111-J-10-3.bmp","sa:sa:za","Up","40","1","9","3B","C2","J","9"
"","","approach-retreat","158","1192603","0.0-158.0","","","1-5","5927","39","1","Testing","Stims/Figures/139-C-20-2.bmp","fashava","Right","39","1","10","3B","C1","J","10"
"","","approach-retreat","159","1198332","0.0-159.0","","","1-5","4223","37","1","Testing","Stims/Figures/44-J-10-3.bmp","sa:sa:za","Right","37","1","11","3B","C2","J","11"
"","","approach-retreat","160","1204682","0.0-160.0","","","1-5","4843","38","1","Testing","Stims/Figures/44-C-30-3.bmp","fashava","Up","38","1","12","3B","C1","J","12"
"","","approach-retreat","161","1210839","0.0-161.0","","","1-5","4650","40","1","Testing","Stims/Figures/84-C-20-2.bmp","fashava","Down","40","1","13","3B","C1","J","13"
"","","approach-retreat","162","1219192","0.0-162.0","","","1-5","6846","38","1","Testing","Stims/Figures/93-C-30-1.bmp","fashava","Up","38","1","14","3B","C1","J","14"
"","","approach-retreat","163","1225004","0.0-163.0","","","1-5","4305","39","1","Testing","Stims/Figures/93-J-0-1.bmp","sa:sa:za","Left","39","1","15","3B","C2","J","15"
"","","approach-retreat","164","1231356","0.0-164.0","","","1-5","4844","40","1","Testing","Stims/Figures/85-C-20-2.bmp","fashava","Down","40","1","16","3B","C1","J","16"
"","","approach-retreat","165","1239438","0.0-165.0","","","1-5","6573","37","1","Testing","Stims/Figures/86-J-0-1.bmp","sa:sa:za","Right","37","1","17","3B","C2","J","17"
"","","approach-retreat","166","1245494","0.0-166.0","","","1-5","4549","40","1","Testing","Stims/Figures/7-J-10-4.bmp","sa:sa:za","Up","40","1","18","3B","C2","J","18"
"","","approach-retreat","167","1251335","0.0-167.0","","","1-5","4328","37","1","Testing","Stims/Figures/87-C-20-4.bmp","fashava","Left","37","1","19","3B","C1","J","19"
"","","approach-retreat","168","1260289","0.0-168.0","","","1-5","7448","40","0","Testing","Stims/Figures/19-J-10-4.bmp","sa:sa:za","Down","38","1","20","3B","C2","J","20"
"","","approach-retreat","169","1266180","0.0-169.0","","","1-5","4383","40","1","Testing","Stims/Figures/7-C-20-4.bmp","fashava","Down","40","1","21","3B","C1","J","21"
"","","approach-retreat","170","1272086","0.0-170.0","","","1-5","4400","38","1","Testing","Stims/Figures/71-C-30-1.bmp","fashava","Up","38","1","22","3B","C1","J","22"
"","","approach-retreat","171","1279225","0.0-171.0","","","1-5","5631","37","1","Testing","Stims/Figures/19-C-20-4.bmp","fashava","Left","37","1","23","3B","C1","J","23"
"","","approach-retreat","172","1285025","0.0-172.0","","","1-5","4291","38","1","Testing","Stims/Figures/111-C-30-3.bmp","fashava","Up","38","1","24","3B","C1","J","24"
"","","approach-retreat","173","1290738","0.0-173.0","","","1-5","4206","37","1","Testing","Stims/Figures/128-J-10-3.bmp","sa:sa:za","Right","37","2","1","3B","C2","J","25"
"","","approach-retreat","174","1297527","0.0-174.0","","","1-5","5280","39","1","Testing","Stims/Figures/44-C-30-3.bmp","fashava","Right","39","2","2","3B","C1","J","26"
"","","approach-retreat","175","1303249","0.0-175.0","","","1-5","4214","39","1","Testing","Stims/Figures/44-J-10-3.bmp","sa:sa:za","Left","39","2","3","3B","C2","J","27"
"","","approach-retreat","176","1309067","0.0-176.0","","","1-5","4310","40","1","Testing","Stims/Figures/139-C-20-2.bmp","fashava","Down","40","2","4","3B","C1","J","28"
"","","approach-retreat","177","1314674","0.0-177.0","","","1-5","4100","40","1","Testing","Stims/Figures/87-C-20-4.bmp","fashava","Down","40","2","5","3B","C1","J","29"
"","","approach-retreat","178","1320619","0.0-178.0","","","1-5","4439","40","1","Testing","Stims/Figures/139-J-0-2.bmp","sa:sa:za","Up","40","2","6","3B","C2","J","30"
"","","approach-retreat","179","1326455","0.0-179.0","","","1-5","4328","40","1","Testing","Stims/Figures/128-C-30-3.bmp","fashava","Down","40","2","7","3B","C1","J","31"
"","","approach-retreat","180","1332177","0.0-180.0","","","1-5","4215","39","1","Testing","Stims/Figures/85-J-0-2.bmp","sa:sa:za","Left","39","2","8","3B","C2","J","32"
"","","approach-retreat","181","1338951","0.0-181.0","","","1-5","5266","38","1","Testing","Stims/Figures/111-C-30-3.bmp","fashava","Up","38","2","9","3B","C1","J","33"
"","","approach-retreat","182","1344741","0.0-182.0","","","1-5","4284","40","1","Testing","Stims/Figures/93-J-0-1.bmp","sa:sa:za","Up","40","2","10","3B","C2","J","34"
"","","approach-retreat","183","1351971","0.0-183.0","","","1-5","5722","38","1","Testing","Stims/Figures/71-J-0-1.bmp","sa:sa:za","Down","38","2","11","3B","C2","J","35"
"","","approach-retreat","184","1357730","0.0-184.0","","","1-5","4252","38","1","Testing","Stims/Figures/86-J-0-1.bmp","sa:sa:za","Down","38","2","12","3B","C2","J","36"
"","","approach-retreat","185","1363641","0.0-185.0","","","1-5","4403","39","1","Testing","Stims/Figures/7-J-10-4.bmp","sa:sa:za","Left","39","2","13","3B","C2","J","37"
"","","approach-retreat","186","1369644","0.0-186.0","","","1-5","4496","38","1","Testing","Stims/Figures/111-J-10-3.bmp","sa:sa:za","Down","38","2","14","3B","C2","J","38"
"","","approach-retreat","187","1375552","0.0-187.0","","","1-5","4401","40","1","Testing","Stims/Figures/84-J-0-2.bmp","sa:sa:za","Up","40","2","15","3B","C2","J","39"
"","","approach-retreat","188","1381605","0.0-188.0","","","1-5","4547","39","1","Testing","Stims/Figures/85-C-20-2.bmp","fashava","Right","39","2","16","3B","C1","J","40"
"","","approach-retreat","189","1387697","0.0-189.0","","","1-5","4584","39","1","Testing","Stims/Figures/71-C-30-1.bmp","fashava","Right","39","2","17","3B","C1","J","41"
"","","approach-retreat","190","1393304","0.0-190.0","","","1-5","4101","39","1","Testing","Stims/Figures/84-C-20-2.bmp","fashava","Right","39","2","18","3B","C1","J","42"
"","","approach-retreat","191","1399133","0.0-191.0","","","1-5","4321","37","1","Testing","Stims/Figures/93-C-30-1.bmp","fashava","Left","37","2","19","3B","C1","J","43"
"","","approach-retreat","192","1404776","0.0-192.0","","","1-5","4136","37","1","Testing","Stims/Figures/19-C-20-4.bmp","fashava","Left","37","2","20","3B","C1","J","44"
"","","approach-retreat","193","1410605","0.0-193.0","","","1-5","4321","37","1","Testing","Stims/Figures/86-C-30-1.bmp","fashava","Left","37","2","21","3B","C1","J","45"
"","","approach-retreat","194","1418426","0.0-194.0","","","1-5","6314","40","1","Testing","Stims/Figures/87-J-10-4.bmp","sa:sa:za","Up","40","2","22","3B","C2","J","46"
"","","approach-retreat","195","1425940","0.0-195.0","","","1-5","6008","40","1","Testing","Stims/Figures/19-J-10-4.bmp","sa:sa:za","Up","40","2","23","3B","C2","J","47"
"","","approach-retreat","196","1431689","0.0-196.0","","","1-5","4243","39","1","Testing","Stims/Figures/7-C-20-4.bmp","fashava","Right","39","2","24","3B","C1","J","48"
"","","approach-retreat","197","1438498","0.0-197.0","","","1-5","5302","38","1","Testing","Stims/Figures/93-J-0-1.bmp","sa:sa:za","Down","38","3","1","3B","C2","J","49"
"","","approach-retreat","198","1447389","0.0-198.0","","","1-5","7383","39","1","Testing","Stims/Figures/19-J-10-4.bmp","sa:sa:za","Left","39","3","2","3B","C2","J","50"
"","","approach-retreat","199","1453306","0.0-199.0","","","1-5","4408","37","1","Testing","Stims/Figures/7-C-20-4.bmp","fashava","Left","37","3","3","3B","C1","J","51"
"","","approach-retreat","200","1459208","0.0-200.0","","","1-5","4394","40","1","Testing","Stims/Figures/71-J-0-1.bmp","sa:sa:za","Up","40","3","4","3B","C2","J","52"
"","","approach-retreat","201","1466090","0.0-201.0","","","1-5","5375","37","1","Testing","Stims/Figures/128-J-10-3.bmp","sa:sa:za","Right","37","3","5","3B","C2","J","53"
"","","approach-retreat","202","1471776","0.0-202.0","","","1-5","4178","39","1","Testing","Stims/Figures/128-C-30-3.bmp","fashava","Right","39","3","6","3B","C1","J","54"
"","","approach-retreat","203","1477514","0.0-203.0","","","1-5","4231","38","1","Testing","Stims/Figures/87-C-20-4.bmp","fashava","Up","38","3","7","3B","C1","J","55"
"","","approach-retreat","204","1483397","0.0-204.0","","","1-5","4376","38","1","Testing","Stims/Figures/139-J-0-2.bmp","sa:sa:za","Down","38","3","8","3B","C2","J","56"
"","","approach-retreat","205","1489926","0.0-205.0","","","1-5","5023","39","1","Testing","Stims/Figures/71-C-30-1.bmp","fashava","Right","39","3","9","3B","C1","J","57"
"","","approach-retreat","206","1495723","0.0-206.0","","","1-5","4291","40","1","Testing","Stims/Figures/86-C-30-1.bmp","fashava","Down","40","3","10","3B","C1","J","58"
"","","approach-retreat","207","1501535","0.0-207.0","","","1-5","4305","37","1","Testing","Stims/Figures/86-J-0-1.bmp","sa:sa:za","Right","37","3","11","3B","C2","J","59"
"","","approach-retreat","208","1507527","0.0-208.0","","","1-5","4485","40","1","Testing","Stims/Figures/84-J-0-2.bmp","sa:sa:za","Up","40","3","12","3B","C2","J","60"
"","","approach-retreat","209","1513982","0.0-209.0","","","1-5","4949","38","1","Testing","Stims/Figures/85-C-20-2.bmp","fashava","Up","38","3","13","3B","C1","J","61"
"","","approach-retreat","210","1519996","0.0-210.0","","","1-5","4506","37","1","Testing","Stims/Figures/44-J-10-3.bmp","sa:sa:za","Right","37","3","14","3B","C2","J","62"
"","","approach-retreat","211","1526157","0.0-211.0","","","1-5","4653","37","1","Testing","Stims/Figures/139-C-20-2.bmp","fashava","Left","37","3","15","3B","C1","J","63"
"","","approach-retreat","212","1532038","0.0-212.0","","","1-5","4375","37","1","Testing","Stims/Figures/44-C-30-3.bmp","fashava","Left","37","3","16","3B","C1","J","64"
"","","approach-retreat","213","1538172","0.0-213.0","","","1-5","4626","37","1","Testing","Stims/Figures/84-C-20-2.bmp","fashava","Left","37","3","17","3B","C1","J","65"
"","","approach-retreat","214","1545333","0.0-214.0","","","1-5","5655","39","1","Testing","Stims/Figures/85-J-0-2.bmp","sa:sa:za","Left","39","3","18","3B","C2","J","66"
"","","approach-retreat","215","1551216","0.0-215.0","","","1-5","4372","38","1","Testing","Stims/Figures/111-C-30-3.bmp","fashava","Up","38","3","19","3B","C1","J","67"
"","","approach-retreat","216","1557402","0.0-216.0","","","1-5","4681","37","1","Testing","Stims/Figures/111-J-10-3.bmp","sa:sa:za","Right","37","3","20","3B","C2","J","68"
"","","approach-retreat","217","1564304","0.0-217.0","","","1-5","5393","40","1","Testing","Stims/Figures/93-C-30-1.bmp","fashava","Down","40","3","21","3B","C1","J","69"
"","","approach-retreat","218","1569997","0.0-218.0","","","1-5","4186","40","1","Testing","Stims/Figures/7-J-10-4.bmp","sa:sa:za","Up","40","3","22","3B","C2","J","70"
"","","approach-retreat","219","1575856","0.0-219.0","","","1-5","4352","40","1","Testing","Stims/Figures/19-C-20-4.bmp","fashava","Down","40","3","23","3B","C1","J","71"
"","","approach-retreat","220","1581599","0.0-220.0","","","1-5","4237","38","1","Testing","Stims/Figures/87-J-10-4.bmp","sa:sa:za","Down","38","3","24","3B","C2","J","72"
"","","approach-retreat","221","1587425","0.0-221.0","","","1-5","4318","39","1","Testing","Stims/Figures/86-C-30-1.bmp","fashava","Right","39","4","1","3B","C1","J","73"
"","","approach-retreat","222","1593251","0.0-222.0","","","1-5","4319","38","1","Testing","Stims/Figures/84-C-20-2.bmp","fashava","Up","38","4","2","3B","C1","J","74"
"","","approach-retreat","223","1599074","0.0-223.0","","","1-5","4316","39","1","Testing","Stims/Figures/111-J-10-3.bmp","sa:sa:za","Left","39","4","3","3B","C2","J","75"
"","","approach-retreat","224","1605362","0.0-224.0","","","1-5","4780","38","1","Testing","Stims/Figures/7-C-20-4.bmp","fashava","Up","38","4","4","3B","C1","J","76"
"","","approach-retreat","225","1611243","0.0-225.0","","","1-5","4374","40","1","Testing","Stims/Figures/19-C-20-4.bmp","fashava","Down","40","4","5","3B","C1","J","77"
"","","approach-retreat","226","1616997","0.0-226.0","","","1-5","4247","38","1","Testing","Stims/Figures/71-C-30-1.bmp","fashava","Up","38","4","6","3B","C1","J","78"
"","","approach-retreat","227","1622901","0.0-227.0","","","1-5","4395","40","1","Testing","Stims/Figures/93-C-30-1.bmp","fashava","Down","40","4","7","3B","C1","J","79"
"","","approach-retreat","228","1628975","0.0-228.0","","","1-5","4563","39","1","Testing","Stims/Figures/128-C-30-3.bmp","fashava","Right","39","4","8","3B","C1","J","80"
"","","approach-retreat","229","1634585","0.0-229.0","","","1-5","4103","37","1","Testing","Stims/Figures/111-C-30-3.bmp","fashava","Left","37","4","9","3B","C1","J","81"
"","","approach-retreat","230","1641428","0.0-230.0","","","1-5","5336","40","1","Testing","Stims/Figures/86-J-0-1.bmp","sa:sa:za","Up","40","4","10","3B","C2","J","82"
"","","approach-retreat","231","1651546","0.0-231.0","","","1-5","8611","39","1","Testing","Stims/Figures/44-C-30-3.bmp","fashava","Right","39","4","11","3B","C1","J","83"
"","","approach-retreat","232","1657148","0.0-232.0","","","1-5","4093","39","1","Testing","Stims/Figures/87-J-10-4.bmp","sa:sa:za","Left","39","4","12","3B","C2","J","84"
"","","approach-retreat","233","1662958","0.0-233.0","","","1-5","4303","37","1","Testing","Stims/Figures/84-J-0-2.bmp","sa:sa:za","Right","37","4","13","3B","C2","J","85"
"","","approach-retreat","234","1670317","0.0-234.0","","","1-5","5853","37","1","Testing","Stims/Figures/71-J-0-1.bmp","sa:sa:za","Right","37","4","14","3B","C2","J","86"
"","","approach-retreat","235","1676162","0.0-235.0","","","1-5","4338","37","1","Testing","Stims/Figures/139-J-0-2.bmp","sa:sa:za","Right","37","4","15","3B","C2","J","87"
"","","approach-retreat","236","1683170","0.0-236.0","","","1-5","5502","37","1","Testing","Stims/Figures/139-C-20-2.bmp","fashava","Left","37","4","16","3B","C1","J","88"
"","","approach-retreat","237","1690585","0.0-237.0","","","1-5","5908","38","1","Testing","Stims/Figures/85-J-0-2.bmp","sa:sa:za","Down","38","4","17","3B","C2","J","89"
"","","approach-retreat","238","1699821","0.0-238.0","","","1-5","7729","38","0","Testing","Stims/Figures/19-J-10-4.bmp","sa:sa:za","Up","40","4","18","3B","C2","J","90"
"","","approach-retreat","239","1706770","0.0-239.0","","","1-5","5442","37","1","Testing","Stims/Figures/85-C-20-2.bmp","fashava","Left","37","4","19","3B","C1","J","91"
"","","approach-retreat","240","1713641","0.0-240.0","","","1-5","5364","38","1","Testing","Stims/Figures/93-J-0-1.bmp","sa:sa:za","Down","38","4","20","3B","C2","J","92"
"","","approach-retreat","241","1720104","0.0-241.0","","","1-5","4957","38","1","Testing","Stims/Figures/44-J-10-3.bmp","sa:sa:za","Down","38","4","21","3B","C2","J","93"
"","","approach-retreat","242","1725946","0.0-242.0","","","1-5","4335","38","1","Testing","Stims/Figures/7-J-10-4.bmp","sa:sa:za","Down","38","4","22","3B","C2","J","94"
"","","approach-retreat","243","1733577","0.0-243.0","","","1-5","6124","39","1","Testing","Stims/Figures/128-J-10-3.bmp","sa:sa:za","Left","39","4","23","3B","C2","J","95"
"","","approach-retreat","244","1739347","0.0-244.0","","","1-5","4263","38","1","Testing","Stims/Figures/87-C-20-4.bmp","fashava","Up","38","4","24","3B","C1","J","96"
"149814","","survey-text","245","1889167","0.0-245.0","","{""Q0"":""1092/2018""}","","","","","","","","","","","","","","",""
