\"rt\",\"key_press\",\"trial_type\",\"trial_index\",\"time_elapsed\",\"internal_node_id\",\"view_history\",\"responses\",\"Id\",\"Rt\",\"ResKeyCode\",\"ResCorr\",\"TrialType2\",\"Image\",\"Label\",\"Location\",\"CorrectResponse\",\"Block\",\"BlockTrial\",\"Condition\",\"LabelType\",\"Subcondition\",\"trialNum\"
\"69285\",\"32\",\"text\",\"0\",\"69304\",\"0.0-0.0-0.0\",\"\",\"\",\"\",\"\",\"\",\"\",\"\",\"\",\"\",\"\",\"\",\"\",\"\",\"\",\"\",\"\",\"\"
\"95471\",\"\",\"instructions\",\"1\",\"164781\",\"0.0-1.0\",\"[{\"\"page_index\"\":0,\"\"viewing_time\"\":95467}]\",\"\",\"\",\"\",\"\",\"\",\"\",\"\",\"\",\"\",\"\",\"\",\"\",\"\",\"\",\"\",\"\"
\"23366\",\"\",\"survey-multi-choice\",\"2\",\"188255\",\"0.0-2.0\",\"\",\"{\"\"Q0\"\":\"\"Da\"\",\"\"Q1\"\":\"\"Da\"\",\"\"Q2\"\":\"\"Da\"\",\"\"Q3\"\":\"\"Da\"\",\"\"Q4\"\":\"\"Da\"\",\"\"Q5\"\":\"\"Da\"\"}\",\"\",\"\",\"\",\"\",\"\",\"\",\"\",\"\",\"\",\"\",\"\",\"\",\"\",\"\",\"\"
\"\",\"\",\"bio\",\"3\",\"240887\",\"0.0-3.0\",\"\",\"{\"\"age\"\":\"\"20\"\",\"\"gender\"\":\"\"f\"\",\"\"specify\"\":\"\"\"\"}\",\"\",\"\",\"\",\"\",\"\",\"\",\"\",\"\",\"\",\"\",\"\",\"\",\"\",\"\",\"\"
\"\",\"\",\"approach-retreat\",\"4\",\"248214\",\"0.0-4.0\",\"\",\"\",\"2-5\",\"5788\",\"39\",\"1\",\"Training\",\"Stims/Figures/71-J-0-1.bmp\",\"fafava\",\"Right\",\"39\",\"1\",\"1\",\"8\",\"C1\",\"C\",\"1\"
\"\",\"\",\"approach-retreat\",\"5\",\"254042\",\"0.0-5.0\",\"\",\"\",\"2-5\",\"4303\",\"37\",\"1\",\"Training\",\"Stims/Figures/7-C-20-4.bmp\",\"sasa:za\",\"Right\",\"37\",\"1\",\"2\",\"8\",\"C2\",\"C\",\"2\"
\"\",\"\",\"approach-retreat\",\"6\",\"260388\",\"0.0-6.0\",\"\",\"\",\"2-5\",\"4823\",\"40\",\"0\",\"Training\",\"Stims/Figures/85-C-20-2.bmp\",\"vasha:va\",\"Down\",\"38\",\"1\",\"3\",\"8\",\"C1\",\"C\",\"3\"
\"\",\"\",\"approach-retreat\",\"7\",\"266608\",\"0.0-7.0\",\"\",\"\",\"2-5\",\"4669\",\"39\",\"0\",\"Training\",\"Stims/Figures/102-C-20-4.bmp\",\"za:sa:za\",\"Right\",\"37\",\"1\",\"4\",\"8\",\"C2\",\"C\",\"4\"
\"\",\"\",\"approach-retreat\",\"8\",\"273004\",\"0.0-8.0\",\"\",\"\",\"2-5\",\"4848\",\"37\",\"1\",\"Training\",\"Stims/Figures/144-C-30-3.bmp\",\"za:saza\",\"Right\",\"37\",\"1\",\"5\",\"8\",\"C2\",\"C\",\"5\"
\"\",\"\",\"approach-retreat\",\"9\",\"279106\",\"0.0-9.0\",\"\",\"\",\"2-5\",\"4563\",\"38\",\"0\",\"Training\",\"Stims/Figures/102-J-10-4.bmp\",\"sa:haza\",\"Down\",\"40\",\"1\",\"6\",\"8\",\"C2\",\"C\",\"6\"
\"\",\"\",\"approach-retreat\",\"10\",\"284971\",\"0.0-10.0\",\"\",\"\",\"2-5\",\"4321\",\"38\",\"1\",\"Training\",\"Stims/Figures/139-C-20-2.bmp\",\"va:sha:sha\",\"Down\",\"38\",\"1\",\"7\",\"8\",\"C1\",\"C\",\"7\"
\"\",\"\",\"approach-retreat\",\"11\",\"291571\",\"0.0-11.0\",\"\",\"\",\"2-5\",\"5056\",\"39\",\"0\",\"Training\",\"Stims/Figures/93-J-0-1.bmp\",\"fafa:va\",\"Left\",\"37\",\"1\",\"8\",\"8\",\"C1\",\"C\",\"8\"
\"\",\"\",\"approach-retreat\",\"12\",\"297908\",\"0.0-12.0\",\"\",\"\",\"2-5\",\"4799\",\"40\",\"0\",\"Training\",\"Stims/Figures/44-C-30-3.bmp\",\"saha:za\",\"Down\",\"38\",\"1\",\"9\",\"8\",\"C2\",\"C\",\"9\"
\"\",\"\",\"approach-retreat\",\"13\",\"303981\",\"0.0-13.0\",\"\",\"\",\"2-5\",\"4528\",\"39\",\"1\",\"Training\",\"Stims/Figures/71-C-30-1.bmp\",\"vashasha\",\"Left\",\"39\",\"1\",\"10\",\"8\",\"C1\",\"C\",\"10\"
\"\",\"\",\"approach-retreat\",\"14\",\"310467\",\"0.0-14.0\",\"\",\"\",\"2-5\",\"4941\",\"39\",\"0\",\"Training\",\"Stims/Figures/85-J-0-2.bmp\",\"vafasha\",\"Left\",\"37\",\"1\",\"11\",\"8\",\"C1\",\"C\",\"11\"
\"\",\"\",\"approach-retreat\",\"15\",\"319318\",\"0.0-15.0\",\"\",\"\",\"2-5\",\"7307\",\"40\",\"0\",\"Training\",\"Stims/Figures/144-J-10-3.bmp\",\"sa:saza\",\"Up\",\"38\",\"1\",\"12\",\"8\",\"C2\",\"C\",\"12\"
\"\",\"\",\"approach-retreat\",\"16\",\"327296\",\"0.0-16.0\",\"\",\"\",\"2-5\",\"6437\",\"40\",\"0\",\"Training\",\"Stims/Figures/44-J-10-3.bmp\",\"sahaza\",\"Up\",\"38\",\"1\",\"13\",\"8\",\"C2\",\"C\",\"13\"
\"\",\"\",\"approach-retreat\",\"17\",\"333007\",\"0.0-17.0\",\"\",\"\",\"2-5\",\"4168\",\"38\",\"1\",\"Training\",\"Stims/Figures/139-J-0-2.bmp\",\"va:shava\",\"Up\",\"38\",\"1\",\"14\",\"8\",\"C1\",\"C\",\"14\"
\"\",\"\",\"approach-retreat\",\"18\",\"338663\",\"0.0-18.0\",\"\",\"\",\"2-5\",\"4117\",\"40\",\"1\",\"Training\",\"Stims/Figures/93-C-30-1.bmp\",\"fa:sha:sha\",\"Up\",\"40\",\"1\",\"15\",\"8\",\"C1\",\"C\",\"15\"
\"\",\"\",\"approach-retreat\",\"19\",\"344594\",\"0.0-19.0\",\"\",\"\",\"2-5\",\"4386\",\"37\",\"1\",\"Training\",\"Stims/Figures/7-J-10-4.bmp\",\"sasa:ha\",\"Left\",\"37\",\"1\",\"16\",\"8\",\"C2\",\"C\",\"16\"
\"\",\"\",\"approach-retreat\",\"20\",\"350515\",\"0.0-20.0\",\"\",\"\",\"2-5\",\"4383\",\"38\",\"1\",\"Training\",\"Stims/Figures/102-C-20-4.bmp\",\"za:sa:za\",\"Down\",\"38\",\"2\",\"1\",\"8\",\"C2\",\"C\",\"17\"
\"\",\"\",\"approach-retreat\",\"21\",\"356974\",\"0.0-21.0\",\"\",\"\",\"2-5\",\"4914\",\"37\",\"1\",\"Training\",\"Stims/Figures/139-C-20-2.bmp\",\"va:sha:sha\",\"Right\",\"37\",\"2\",\"2\",\"8\",\"C1\",\"C\",\"18\"
\"\",\"\",\"approach-retreat\",\"22\",\"362729\",\"0.0-22.0\",\"\",\"\",\"2-5\",\"4212\",\"37\",\"1\",\"Training\",\"Stims/Figures/44-C-30-3.bmp\",\"saha:za\",\"Right\",\"37\",\"2\",\"3\",\"8\",\"C2\",\"C\",\"19\"
\"\",\"\",\"approach-retreat\",\"23\",\"368410\",\"0.0-23.0\",\"\",\"\",\"2-5\",\"4139\",\"38\",\"0\",\"Training\",\"Stims/Figures/7-J-10-4.bmp\",\"sasa:ha\",\"Down\",\"40\",\"2\",\"4\",\"8\",\"C2\",\"C\",\"20\"
\"\",\"\",\"approach-retreat\",\"24\",\"374143\",\"0.0-24.0\",\"\",\"\",\"2-5\",\"4196\",\"40\",\"0\",\"Training\",\"Stims/Figures/102-J-10-4.bmp\",\"sa:haza\",\"Up\",\"38\",\"2\",\"5\",\"8\",\"C2\",\"C\",\"21\"
\"\",\"\",\"approach-retreat\",\"25\",\"379854\",\"0.0-25.0\",\"\",\"\",\"2-5\",\"4168\",\"40\",\"0\",\"Training\",\"Stims/Figures/144-J-10-3.bmp\",\"sa:saza\",\"Up\",\"38\",\"2\",\"6\",\"8\",\"C2\",\"C\",\"22\"
\"\",\"\",\"approach-retreat\",\"26\",\"385571\",\"0.0-26.0\",\"\",\"\",\"2-5\",\"4170\",\"37\",\"1\",\"Training\",\"Stims/Figures/144-C-30-3.bmp\",\"za:saza\",\"Right\",\"37\",\"2\",\"7\",\"8\",\"C2\",\"C\",\"23\"
\"\",\"\",\"approach-retreat\",\"27\",\"391322\",\"0.0-27.0\",\"\",\"\",\"2-5\",\"4215\",\"38\",\"1\",\"Training\",\"Stims/Figures/71-C-30-1.bmp\",\"vashasha\",\"Down\",\"38\",\"2\",\"8\",\"8\",\"C1\",\"C\",\"24\"
\"\",\"\",\"approach-retreat\",\"28\",\"397085\",\"0.0-28.0\",\"\",\"\",\"2-5\",\"4234\",\"38\",\"0\",\"Training\",\"Stims/Figures/139-J-0-2.bmp\",\"va:shava\",\"Down\",\"40\",\"2\",\"9\",\"8\",\"C1\",\"C\",\"25\"
\"\",\"\",\"approach-retreat\",\"29\",\"403562\",\"0.0-29.0\",\"\",\"\",\"2-5\",\"4937\",\"40\",\"0\",\"Training\",\"Stims/Figures/85-J-0-2.bmp\",\"vafasha\",\"Up\",\"38\",\"2\",\"10\",\"8\",\"C1\",\"C\",\"26\"
\"\",\"\",\"approach-retreat\",\"30\",\"409678\",\"0.0-30.0\",\"\",\"\",\"2-5\",\"4570\",\"39\",\"1\",\"Training\",\"Stims/Figures/85-C-20-2.bmp\",\"vasha:va\",\"Left\",\"39\",\"2\",\"11\",\"8\",\"C1\",\"C\",\"27\"
\"\",\"\",\"approach-retreat\",\"31\",\"416295\",\"0.0-31.0\",\"\",\"\",\"2-5\",\"5071\",\"40\",\"1\",\"Training\",\"Stims/Figures/7-C-20-4.bmp\",\"sasa:za\",\"Up\",\"40\",\"2\",\"12\",\"8\",\"C2\",\"C\",\"28\"
\"\",\"\",\"approach-retreat\",\"32\",\"422874\",\"0.0-32.0\",\"\",\"\",\"2-5\",\"5040\",\"39\",\"1\",\"Training\",\"Stims/Figures/93-C-30-1.bmp\",\"fa:sha:sha\",\"Left\",\"39\",\"2\",\"13\",\"8\",\"C1\",\"C\",\"29\"
\"\",\"\",\"approach-retreat\",\"33\",\"428796\",\"0.0-33.0\",\"\",\"\",\"2-5\",\"4373\",\"37\",\"1\",\"Training\",\"Stims/Figures/44-J-10-3.bmp\",\"sahaza\",\"Left\",\"37\",\"2\",\"14\",\"8\",\"C2\",\"C\",\"30\"
\"\",\"\",\"approach-retreat\",\"34\",\"434634\",\"0.0-34.0\",\"\",\"\",\"2-5\",\"4298\",\"37\",\"0\",\"Training\",\"Stims/Figures/71-J-0-1.bmp\",\"fafava\",\"Right\",\"39\",\"2\",\"15\",\"8\",\"C1\",\"C\",\"31\"
\"\",\"\",\"approach-retreat\",\"35\",\"440406\",\"0.0-35.0\",\"\",\"\",\"2-5\",\"4229\",\"39\",\"0\",\"Training\",\"Stims/Figures/93-J-0-1.bmp\",\"fafa:va\",\"Left\",\"37\",\"2\",\"16\",\"8\",\"C1\",\"C\",\"32\"
\"\",\"\",\"approach-retreat\",\"36\",\"446189\",\"0.0-36.0\",\"\",\"\",\"2-5\",\"4242\",\"37\",\"0\",\"Training\",\"Stims/Figures/71-J-0-1.bmp\",\"fafava\",\"Right\",\"39\",\"3\",\"1\",\"8\",\"C1\",\"C\",\"33\"
\"\",\"\",\"approach-retreat\",\"37\",\"452862\",\"0.0-37.0\",\"\",\"\",\"2-5\",\"5132\",\"37\",\"0\",\"Training\",\"Stims/Figures/44-C-30-3.bmp\",\"saha:za\",\"Left\",\"39\",\"3\",\"2\",\"8\",\"C2\",\"C\",\"34\"
\"\",\"\",\"approach-retreat\",\"38\",\"459246\",\"0.0-38.0\",\"\",\"\",\"2-5\",\"4831\",\"38\",\"0\",\"Training\",\"Stims/Figures/93-J-0-1.bmp\",\"fafa:va\",\"Down\",\"40\",\"3\",\"3\",\"8\",\"C1\",\"C\",\"35\"
\"\",\"\",\"approach-retreat\",\"39\",\"465026\",\"0.0-39.0\",\"\",\"\",\"2-5\",\"4268\",\"39\",\"0\",\"Training\",\"Stims/Figures/144-C-30-3.bmp\",\"za:saza\",\"Right\",\"37\",\"3\",\"4\",\"8\",\"C2\",\"C\",\"36\"
\"\",\"\",\"approach-retreat\",\"40\",\"471493\",\"0.0-40.0\",\"\",\"\",\"2-5\",\"4953\",\"38\",\"0\",\"Training\",\"Stims/Figures/85-J-0-2.bmp\",\"vafasha\",\"Down\",\"40\",\"3\",\"5\",\"8\",\"C1\",\"C\",\"37\"
\"\",\"\",\"approach-retreat\",\"41\",\"478518\",\"0.0-41.0\",\"\",\"\",\"2-5\",\"5492\",\"39\",\"1\",\"Training\",\"Stims/Figures/44-J-10-3.bmp\",\"sahaza\",\"Right\",\"39\",\"3\",\"6\",\"8\",\"C2\",\"C\",\"38\"
\"\",\"\",\"approach-retreat\",\"42\",\"484364\",\"0.0-42.0\",\"\",\"\",\"2-5\",\"4308\",\"40\",\"1\",\"Training\",\"Stims/Figures/102-J-10-4.bmp\",\"sa:haza\",\"Down\",\"40\",\"3\",\"7\",\"8\",\"C2\",\"C\",\"39\"
\"\",\"\",\"approach-retreat\",\"43\",\"490149\",\"0.0-43.0\",\"\",\"\",\"2-5\",\"4245\",\"40\",\"1\",\"Training\",\"Stims/Figures/139-C-20-2.bmp\",\"va:sha:sha\",\"Up\",\"40\",\"3\",\"8\",\"8\",\"C1\",\"C\",\"40\"
\"\",\"\",\"approach-retreat\",\"44\",\"495883\",\"0.0-44.0\",\"\",\"\",\"2-5\",\"4194\",\"37\",\"0\",\"Training\",\"Stims/Figures/144-J-10-3.bmp\",\"sa:saza\",\"Right\",\"39\",\"3\",\"9\",\"8\",\"C2\",\"C\",\"41\"
\"\",\"\",\"approach-retreat\",\"45\",\"501988\",\"0.0-45.0\",\"\",\"\",\"2-5\",\"4552\",\"39\",\"0\",\"Training\",\"Stims/Figures/7-J-10-4.bmp\",\"sasa:ha\",\"Left\",\"37\",\"3\",\"10\",\"8\",\"C2\",\"C\",\"42\"
\"\",\"\",\"approach-retreat\",\"46\",\"507921\",\"0.0-46.0\",\"\",\"\",\"2-5\",\"4384\",\"38\",\"1\",\"Training\",\"Stims/Figures/7-C-20-4.bmp\",\"sasa:za\",\"Down\",\"38\",\"3\",\"11\",\"8\",\"C2\",\"C\",\"43\"
\"\",\"\",\"approach-retreat\",\"47\",\"513946\",\"0.0-47.0\",\"\",\"\",\"2-5\",\"4482\",\"38\",\"0\",\"Training\",\"Stims/Figures/85-C-20-2.bmp\",\"vasha:va\",\"Up\",\"40\",\"3\",\"12\",\"8\",\"C1\",\"C\",\"44\"
\"\",\"\",\"approach-retreat\",\"48\",\"520669\",\"0.0-48.0\",\"\",\"\",\"2-5\",\"5187\",\"38\",\"0\",\"Training\",\"Stims/Figures/102-C-20-4.bmp\",\"za:sa:za\",\"Up\",\"40\",\"3\",\"13\",\"8\",\"C2\",\"C\",\"45\"
\"\",\"\",\"approach-retreat\",\"49\",\"526456\",\"0.0-49.0\",\"\",\"\",\"2-5\",\"4242\",\"40\",\"0\",\"Training\",\"Stims/Figures/139-J-0-2.bmp\",\"va:shava\",\"Up\",\"38\",\"3\",\"14\",\"8\",\"C1\",\"C\",\"46\"
\"\",\"\",\"approach-retreat\",\"50\",\"532065\",\"0.0-50.0\",\"\",\"\",\"2-5\",\"4066\",\"37\",\"0\",\"Training\",\"Stims/Figures/93-C-30-1.bmp\",\"fa:sha:sha\",\"Left\",\"39\",\"3\",\"15\",\"8\",\"C1\",\"C\",\"47\"
\"\",\"\",\"approach-retreat\",\"51\",\"537568\",\"0.0-51.0\",\"\",\"\",\"2-5\",\"3960\",\"39\",\"1\",\"Training\",\"Stims/Figures/71-C-30-1.bmp\",\"vashasha\",\"Left\",\"39\",\"3\",\"16\",\"8\",\"C1\",\"C\",\"48\"
\"\",\"\",\"approach-retreat\",\"52\",\"543457\",\"0.0-52.0\",\"\",\"\",\"2-5\",\"4349\",\"39\",\"1\",\"Training\",\"Stims/Figures/139-C-20-2.bmp\",\"va:sha:sha\",\"Left\",\"39\",\"4\",\"1\",\"8\",\"C1\",\"C\",\"49\"
\"\",\"\",\"approach-retreat\",\"53\",\"549185\",\"0.0-53.0\",\"\",\"\",\"2-5\",\"4181\",\"40\",\"1\",\"Training\",\"Stims/Figures/144-C-30-3.bmp\",\"za:saza\",\"Up\",\"40\",\"4\",\"2\",\"8\",\"C2\",\"C\",\"50\"
\"\",\"\",\"approach-retreat\",\"54\",\"554530\",\"0.0-54.0\",\"\",\"\",\"2-5\",\"3801\",\"38\",\"0\",\"Training\",\"Stims/Figures/7-C-20-4.bmp\",\"sasa:za\",\"Up\",\"40\",\"4\",\"3\",\"8\",\"C2\",\"C\",\"51\"
\"\",\"\",\"approach-retreat\",\"55\",\"560302\",\"0.0-55.0\",\"\",\"\",\"2-5\",\"4231\",\"40\",\"0\",\"Training\",\"Stims/Figures/85-C-20-2.bmp\",\"vasha:va\",\"Down\",\"38\",\"4\",\"4\",\"8\",\"C1\",\"C\",\"52\"
\"\",\"\",\"approach-retreat\",\"56\",\"566705\",\"0.0-56.0\",\"\",\"\",\"2-5\",\"4867\",\"39\",\"1\",\"Training\",\"Stims/Figures/93-J-0-1.bmp\",\"fafa:va\",\"Right\",\"39\",\"4\",\"5\",\"8\",\"C1\",\"C\",\"53\"
\"\",\"\",\"approach-retreat\",\"57\",\"572729\",\"0.0-57.0\",\"\",\"\",\"2-5\",\"4470\",\"39\",\"0\",\"Training\",\"Stims/Figures/144-J-10-3.bmp\",\"sa:saza\",\"Left\",\"37\",\"4\",\"6\",\"8\",\"C2\",\"C\",\"54\"
\"\",\"\",\"approach-retreat\",\"58\",\"579050\",\"0.0-58.0\",\"\",\"\",\"2-5\",\"4776\",\"38\",\"1\",\"Training\",\"Stims/Figures/71-C-30-1.bmp\",\"vashasha\",\"Down\",\"38\",\"4\",\"7\",\"8\",\"C1\",\"C\",\"55\"
\"\",\"\",\"approach-retreat\",\"59\",\"584991\",\"0.0-59.0\",\"\",\"\",\"2-5\",\"4397\",\"38\",\"0\",\"Training\",\"Stims/Figures/102-C-20-4.bmp\",\"za:sa:za\",\"Up\",\"40\",\"4\",\"8\",\"8\",\"C2\",\"C\",\"56\"
\"\",\"\",\"approach-retreat\",\"60\",\"590520\",\"0.0-60.0\",\"\",\"\",\"2-5\",\"3987\",\"38\",\"1\",\"Training\",\"Stims/Figures/44-C-30-3.bmp\",\"saha:za\",\"Down\",\"38\",\"4\",\"9\",\"8\",\"C2\",\"C\",\"57\"
\"\",\"\",\"approach-retreat\",\"61\",\"596374\",\"0.0-61.0\",\"\",\"\",\"2-5\",\"4319\",\"39\",\"0\",\"Training\",\"Stims/Figures/93-C-30-1.bmp\",\"fa:sha:sha\",\"Right\",\"37\",\"4\",\"10\",\"8\",\"C1\",\"C\",\"58\"
\"\",\"\",\"approach-retreat\",\"62\",\"603289\",\"0.0-62.0\",\"\",\"\",\"2-5\",\"5375\",\"37\",\"1\",\"Training\",\"Stims/Figures/71-J-0-1.bmp\",\"fafava\",\"Left\",\"37\",\"4\",\"11\",\"8\",\"C1\",\"C\",\"59\"
\"\",\"\",\"approach-retreat\",\"63\",\"609260\",\"0.0-63.0\",\"\",\"\",\"2-5\",\"4432\",\"37\",\"1\",\"Training\",\"Stims/Figures/85-J-0-2.bmp\",\"vafasha\",\"Left\",\"37\",\"4\",\"12\",\"8\",\"C1\",\"C\",\"60\"
\"\",\"\",\"approach-retreat\",\"64\",\"615233\",\"0.0-64.0\",\"\",\"\",\"2-5\",\"4441\",\"40\",\"1\",\"Training\",\"Stims/Figures/44-J-10-3.bmp\",\"sahaza\",\"Down\",\"40\",\"4\",\"13\",\"8\",\"C2\",\"C\",\"61\"
\"\",\"\",\"approach-retreat\",\"65\",\"621600\",\"0.0-65.0\",\"\",\"\",\"2-5\",\"4837\",\"39\",\"1\",\"Training\",\"Stims/Figures/139-J-0-2.bmp\",\"va:shava\",\"Right\",\"39\",\"4\",\"14\",\"8\",\"C1\",\"C\",\"62\"
\"\",\"\",\"approach-retreat\",\"66\",\"627330\",\"0.0-66.0\",\"\",\"\",\"2-5\",\"4189\",\"39\",\"1\",\"Training\",\"Stims/Figures/7-J-10-4.bmp\",\"sasa:ha\",\"Right\",\"39\",\"4\",\"15\",\"8\",\"C2\",\"C\",\"63\"
\"\",\"\",\"approach-retreat\",\"67\",\"633058\",\"0.0-67.0\",\"\",\"\",\"2-5\",\"4190\",\"38\",\"1\",\"Training\",\"Stims/Figures/102-J-10-4.bmp\",\"sa:haza\",\"Up\",\"38\",\"4\",\"16\",\"8\",\"C2\",\"C\",\"64\"
\"\",\"\",\"approach-retreat\",\"68\",\"639235\",\"0.0-68.0\",\"\",\"\",\"2-5\",\"4641\",\"39\",\"0\",\"Training\",\"Stims/Figures/71-J-0-1.bmp\",\"fafava\",\"Left\",\"37\",\"5\",\"1\",\"8\",\"C1\",\"C\",\"65\"
\"\",\"\",\"approach-retreat\",\"69\",\"645274\",\"0.0-69.0\",\"\",\"\",\"2-5\",\"4513\",\"37\",\"0\",\"Training\",\"Stims/Figures/7-C-20-4.bmp\",\"sasa:za\",\"Left\",\"39\",\"5\",\"2\",\"8\",\"C2\",\"C\",\"66\"
\"\",\"\",\"approach-retreat\",\"70\",\"651063\",\"0.0-70.0\",\"\",\"\",\"2-5\",\"4245\",\"37\",\"1\",\"Training\",\"Stims/Figures/139-J-0-2.bmp\",\"va:shava\",\"Left\",\"37\",\"5\",\"3\",\"8\",\"C1\",\"C\",\"67\"
\"\",\"\",\"approach-retreat\",\"71\",\"656874\",\"0.0-71.0\",\"\",\"\",\"2-5\",\"4274\",\"40\",\"1\",\"Training\",\"Stims/Figures/93-J-0-1.bmp\",\"fafa:va\",\"Down\",\"40\",\"5\",\"4\",\"8\",\"C1\",\"C\",\"68\"
\"\",\"\",\"approach-retreat\",\"72\",\"662551\",\"0.0-72.0\",\"\",\"\",\"2-5\",\"4135\",\"40\",\"0\",\"Training\",\"Stims/Figures/44-C-30-3.bmp\",\"saha:za\",\"Down\",\"38\",\"5\",\"5\",\"8\",\"C2\",\"C\",\"69\"
\"\",\"\",\"approach-retreat\",\"73\",\"668343\",\"0.0-73.0\",\"\",\"\",\"2-5\",\"4256\",\"39\",\"0\",\"Training\",\"Stims/Figures/85-C-20-2.bmp\",\"vasha:va\",\"Right\",\"37\",\"5\",\"6\",\"8\",\"C1\",\"C\",\"70\"
\"\",\"\",\"approach-retreat\",\"74\",\"673870\",\"0.0-74.0\",\"\",\"\",\"2-5\",\"3992\",\"39\",\"0\",\"Training\",\"Stims/Figures/144-C-30-3.bmp\",\"za:saza\",\"Right\",\"37\",\"5\",\"7\",\"8\",\"C2\",\"C\",\"71\"
\"\",\"\",\"approach-retreat\",\"75\",\"679723\",\"0.0-75.0\",\"\",\"\",\"2-5\",\"4307\",\"37\",\"1\",\"Training\",\"Stims/Figures/85-J-0-2.bmp\",\"vafasha\",\"Left\",\"37\",\"5\",\"8\",\"8\",\"C1\",\"C\",\"72\"
\"\",\"\",\"approach-retreat\",\"76\",\"685468\",\"0.0-76.0\",\"\",\"\",\"2-5\",\"4212\",\"40\",\"1\",\"Training\",\"Stims/Figures/102-J-10-4.bmp\",\"sa:haza\",\"Down\",\"40\",\"5\",\"9\",\"8\",\"C2\",\"C\",\"73\"
\"\",\"\",\"approach-retreat\",\"77\",\"691182\",\"0.0-77.0\",\"\",\"\",\"2-5\",\"4174\",\"38\",\"1\",\"Training\",\"Stims/Figures/139-C-20-2.bmp\",\"va:sha:sha\",\"Down\",\"38\",\"5\",\"10\",\"8\",\"C1\",\"C\",\"74\"
\"\",\"\",\"approach-retreat\",\"78\",\"697454\",\"0.0-78.0\",\"\",\"\",\"2-5\",\"4751\",\"39\",\"0\",\"Training\",\"Stims/Figures/102-C-20-4.bmp\",\"za:sa:za\",\"Right\",\"37\",\"5\",\"11\",\"8\",\"C2\",\"C\",\"75\"
\"\",\"\",\"approach-retreat\",\"79\",\"703008\",\"0.0-79.0\",\"\",\"\",\"2-5\",\"4013\",\"38\",\"1\",\"Training\",\"Stims/Figures/7-J-10-4.bmp\",\"sasa:ha\",\"Up\",\"38\",\"5\",\"12\",\"8\",\"C2\",\"C\",\"76\"
\"\",\"\",\"approach-retreat\",\"80\",\"708737\",\"0.0-80.0\",\"\",\"\",\"2-5\",\"4195\",\"40\",\"0\",\"Training\",\"Stims/Figures/44-J-10-3.bmp\",\"sahaza\",\"Up\",\"38\",\"5\",\"13\",\"8\",\"C2\",\"C\",\"77\"
\"\",\"\",\"approach-retreat\",\"81\",\"714160\",\"0.0-81.0\",\"\",\"\",\"2-5\",\"3881\",\"40\",\"1\",\"Training\",\"Stims/Figures/71-C-30-1.bmp\",\"vashasha\",\"Up\",\"40\",\"5\",\"14\",\"8\",\"C1\",\"C\",\"78\"
\"\",\"\",\"approach-retreat\",\"82\",\"720228\",\"0.0-82.0\",\"\",\"\",\"2-5\",\"4522\",\"37\",\"0\",\"Training\",\"Stims/Figures/144-J-10-3.bmp\",\"sa:saza\",\"Right\",\"39\",\"5\",\"15\",\"8\",\"C2\",\"C\",\"79\"
\"\",\"\",\"approach-retreat\",\"83\",\"727773\",\"0.0-83.0\",\"\",\"\",\"2-5\",\"6012\",\"40\",\"1\",\"Training\",\"Stims/Figures/93-C-30-1.bmp\",\"fa:sha:sha\",\"Up\",\"40\",\"5\",\"16\",\"8\",\"C1\",\"C\",\"80\"
\"\",\"\",\"approach-retreat\",\"84\",\"733450\",\"0.0-84.0\",\"\",\"\",\"2-5\",\"4138\",\"40\",\"1\",\"Training\",\"Stims/Figures/44-C-30-3.bmp\",\"saha:za\",\"Up\",\"40\",\"6\",\"1\",\"8\",\"C2\",\"C\",\"81\"
\"\",\"\",\"approach-retreat\",\"85\",\"740500\",\"0.0-85.0\",\"\",\"\",\"2-5\",\"5510\",\"40\",\"1\",\"Training\",\"Stims/Figures/93-C-30-1.bmp\",\"fa:sha:sha\",\"Up\",\"40\",\"6\",\"2\",\"8\",\"C1\",\"C\",\"82\"
\"\",\"\",\"approach-retreat\",\"86\",\"745904\",\"0.0-86.0\",\"\",\"\",\"2-5\",\"3887\",\"40\",\"0\",\"Training\",\"Stims/Figures/93-J-0-1.bmp\",\"fafa:va\",\"Up\",\"38\",\"6\",\"3\",\"8\",\"C1\",\"C\",\"83\"
\"\",\"\",\"approach-retreat\",\"87\",\"751780\",\"0.0-87.0\",\"\",\"\",\"2-5\",\"4334\",\"39\",\"1\",\"Training\",\"Stims/Figures/71-C-30-1.bmp\",\"vashasha\",\"Left\",\"39\",\"6\",\"4\",\"8\",\"C1\",\"C\",\"84\"
\"\",\"\",\"approach-retreat\",\"88\",\"757740\",\"0.0-88.0\",\"\",\"\",\"2-5\",\"4417\",\"37\",\"0\",\"Training\",\"Stims/Figures/144-J-10-3.bmp\",\"sa:saza\",\"Right\",\"39\",\"6\",\"5\",\"8\",\"C2\",\"C\",\"85\"
\"\",\"\",\"approach-retreat\",\"89\",\"763558\",\"0.0-89.0\",\"\",\"\",\"2-5\",\"4275\",\"37\",\"1\",\"Training\",\"Stims/Figures/44-J-10-3.bmp\",\"sahaza\",\"Left\",\"37\",\"6\",\"6\",\"8\",\"C2\",\"C\",\"86\"
\"\",\"\",\"approach-retreat\",\"90\",\"769557\",\"0.0-90.0\",\"\",\"\",\"2-5\",\"4453\",\"37\",\"0\",\"Training\",\"Stims/Figures/85-J-0-2.bmp\",\"vafasha\",\"Right\",\"39\",\"6\",\"7\",\"8\",\"C1\",\"C\",\"87\"
\"\",\"\",\"approach-retreat\",\"91\",\"775397\",\"0.0-91.0\",\"\",\"\",\"2-5\",\"4294\",\"39\",\"1\",\"Training\",\"Stims/Figures/7-C-20-4.bmp\",\"sasa:za\",\"Left\",\"39\",\"6\",\"8\",\"8\",\"C2\",\"C\",\"88\"
\"\",\"\",\"approach-retreat\",\"92\",\"781104\",\"0.0-92.0\",\"\",\"\",\"2-5\",\"4165\",\"37\",\"0\",\"Training\",\"Stims/Figures/71-J-0-1.bmp\",\"fafava\",\"Right\",\"39\",\"6\",\"9\",\"8\",\"C1\",\"C\",\"89\"
\"\",\"\",\"approach-retreat\",\"93\",\"787001\",\"0.0-93.0\",\"\",\"\",\"2-5\",\"4353\",\"38\",\"0\",\"Training\",\"Stims/Figures/139-J-0-2.bmp\",\"va:shava\",\"Down\",\"40\",\"6\",\"10\",\"8\",\"C1\",\"C\",\"90\"
\"\",\"\",\"approach-retreat\",\"94\",\"792878\",\"0.0-94.0\",\"\",\"\",\"2-5\",\"4335\",\"37\",\"0\",\"Training\",\"Stims/Figures/102-C-20-4.bmp\",\"za:sa:za\",\"Left\",\"39\",\"6\",\"11\",\"8\",\"C2\",\"C\",\"91\"
\"\",\"\",\"approach-retreat\",\"95\",\"799459\",\"0.0-95.0\",\"\",\"\",\"2-5\",\"5035\",\"37\",\"1\",\"Training\",\"Stims/Figures/139-C-20-2.bmp\",\"va:sha:sha\",\"Right\",\"37\",\"6\",\"12\",\"8\",\"C1\",\"C\",\"92\"
\"\",\"\",\"approach-retreat\",\"96\",\"805493\",\"0.0-96.0\",\"\",\"\",\"2-5\",\"4497\",\"40\",\"0\",\"Training\",\"Stims/Figures/85-C-20-2.bmp\",\"vasha:va\",\"Down\",\"38\",\"6\",\"13\",\"8\",\"C1\",\"C\",\"93\"
\"\",\"\",\"approach-retreat\",\"97\",\"811226\",\"0.0-97.0\",\"\",\"\",\"2-5\",\"4191\",\"40\",\"1\",\"Training\",\"Stims/Figures/102-J-10-4.bmp\",\"sa:haza\",\"Down\",\"40\",\"6\",\"14\",\"8\",\"C2\",\"C\",\"94\"
\"\",\"\",\"approach-retreat\",\"98\",\"818089\",\"0.0-98.0\",\"\",\"\",\"2-5\",\"5348\",\"38\",\"0\",\"Training\",\"Stims/Figures/7-J-10-4.bmp\",\"sasa:ha\",\"Down\",\"40\",\"6\",\"15\",\"8\",\"C2\",\"C\",\"95\"
\"\",\"\",\"approach-retreat\",\"99\",\"824603\",\"0.0-99.0\",\"\",\"\",\"2-5\",\"4970\",\"40\",\"1\",\"Training\",\"Stims/Figures/144-C-30-3.bmp\",\"za:saza\",\"Up\",\"40\",\"6\",\"16\",\"8\",\"C2\",\"C\",\"96\"
\"\",\"\",\"approach-retreat\",\"100\",\"830358\",\"0.0-100.0\",\"\",\"\",\"2-5\",\"4205\",\"39\",\"1\",\"Training\",\"Stims/Figures/44-J-10-3.bmp\",\"sahaza\",\"Right\",\"39\",\"7\",\"1\",\"8\",\"C2\",\"C\",\"97\"
\"\",\"\",\"approach-retreat\",\"101\",\"836082\",\"0.0-101.0\",\"\",\"\",\"2-5\",\"4194\",\"40\",\"1\",\"Training\",\"Stims/Figures/71-J-0-1.bmp\",\"fafava\",\"Down\",\"40\",\"7\",\"2\",\"8\",\"C1\",\"C\",\"98\"
\"\",\"\",\"approach-retreat\",\"102\",\"843001\",\"0.0-102.0\",\"\",\"\",\"2-5\",\"5383\",\"39\",\"1\",\"Training\",\"Stims/Figures/71-C-30-1.bmp\",\"vashasha\",\"Left\",\"39\",\"7\",\"3\",\"8\",\"C1\",\"C\",\"99\"
\"\",\"\",\"approach-retreat\",\"103\",\"848877\",\"0.0-103.0\",\"\",\"\",\"2-5\",\"4331\",\"38\",\"1\",\"Training\",\"Stims/Figures/139-J-0-2.bmp\",\"va:shava\",\"Up\",\"38\",\"7\",\"4\",\"8\",\"C1\",\"C\",\"100\"
\"\",\"\",\"approach-retreat\",\"104\",\"856298\",\"0.0-104.0\",\"\",\"\",\"2-5\",\"5878\",\"38\",\"1\",\"Training\",\"Stims/Figures/93-C-30-1.bmp\",\"fa:sha:sha\",\"Down\",\"38\",\"7\",\"5\",\"8\",\"C1\",\"C\",\"101\"
\"\",\"\",\"approach-retreat\",\"105\",\"863110\",\"0.0-105.0\",\"\",\"\",\"2-5\",\"5269\",\"38\",\"0\",\"Training\",\"Stims/Figures/102-C-20-4.bmp\",\"za:sa:za\",\"Up\",\"40\",\"7\",\"6\",\"8\",\"C2\",\"C\",\"102\"
\"\",\"\",\"approach-retreat\",\"106\",\"868828\",\"0.0-106.0\",\"\",\"\",\"2-5\",\"4178\",\"38\",\"0\",\"Training\",\"Stims/Figures/144-J-10-3.bmp\",\"sa:saza\",\"Down\",\"40\",\"7\",\"7\",\"8\",\"C2\",\"C\",\"103\"
\"\",\"\",\"approach-retreat\",\"107\",\"874563\",\"0.0-107.0\",\"\",\"\",\"2-5\",\"4192\",\"39\",\"1\",\"Training\",\"Stims/Figures/85-J-0-2.bmp\",\"vafasha\",\"Right\",\"39\",\"7\",\"8\",\"8\",\"C1\",\"C\",\"104\"
\"\",\"\",\"approach-retreat\",\"108\",\"880418\",\"0.0-108.0\",\"\",\"\",\"2-5\",\"4311\",\"39\",\"1\",\"Training\",\"Stims/Figures/7-J-10-4.bmp\",\"sasa:ha\",\"Right\",\"39\",\"7\",\"9\",\"8\",\"C2\",\"C\",\"105\"
\"\",\"\",\"approach-retreat\",\"109\",\"887746\",\"0.0-109.0\",\"\",\"\",\"2-5\",\"5788\",\"40\",\"0\",\"Training\",\"Stims/Figures/102-J-10-4.bmp\",\"sa:haza\",\"Up\",\"38\",\"7\",\"10\",\"8\",\"C2\",\"C\",\"106\"
\"\",\"\",\"approach-retreat\",\"110\",\"894379\",\"0.0-110.0\",\"\",\"\",\"2-5\",\"5089\",\"37\",\"1\",\"Training\",\"Stims/Figures/44-C-30-3.bmp\",\"saha:za\",\"Right\",\"37\",\"7\",\"11\",\"8\",\"C2\",\"C\",\"107\"
\"\",\"\",\"approach-retreat\",\"111\",\"900145\",\"0.0-111.0\",\"\",\"\",\"2-5\",\"4231\",\"38\",\"0\",\"Training\",\"Stims/Figures/7-C-20-4.bmp\",\"sasa:za\",\"Up\",\"40\",\"7\",\"12\",\"8\",\"C2\",\"C\",\"108\"
\"\",\"\",\"approach-retreat\",\"112\",\"906623\",\"0.0-112.0\",\"\",\"\",\"2-5\",\"4931\",\"39\",\"1\",\"Training\",\"Stims/Figures/85-C-20-2.bmp\",\"vasha:va\",\"Left\",\"39\",\"7\",\"13\",\"8\",\"C1\",\"C\",\"109\"
\"\",\"\",\"approach-retreat\",\"113\",\"912521\",\"0.0-113.0\",\"\",\"\",\"2-5\",\"4347\",\"40\",\"0\",\"Training\",\"Stims/Figures/144-C-30-3.bmp\",\"za:saza\",\"Down\",\"38\",\"7\",\"14\",\"8\",\"C2\",\"C\",\"110\"
\"\",\"\",\"approach-retreat\",\"114\",\"918460\",\"0.0-114.0\",\"\",\"\",\"2-5\",\"4391\",\"37\",\"1\",\"Training\",\"Stims/Figures/93-J-0-1.bmp\",\"fafa:va\",\"Left\",\"37\",\"7\",\"15\",\"8\",\"C1\",\"C\",\"111\"
\"\",\"\",\"approach-retreat\",\"115\",\"924877\",\"0.0-115.0\",\"\",\"\",\"2-5\",\"4888\",\"39\",\"1\",\"Training\",\"Stims/Figures/139-C-20-2.bmp\",\"va:sha:sha\",\"Left\",\"39\",\"7\",\"16\",\"8\",\"C1\",\"C\",\"112\"
\"\",\"\",\"approach-retreat\",\"116\",\"932918\",\"0.0-116.0\",\"\",\"\",\"2-5\",\"6499\",\"37\",\"1\",\"Training\",\"Stims/Figures/93-J-0-1.bmp\",\"fafa:va\",\"Left\",\"37\",\"8\",\"1\",\"8\",\"C1\",\"C\",\"113\"
\"\",\"\",\"approach-retreat\",\"117\",\"938838\",\"0.0-117.0\",\"\",\"\",\"2-5\",\"4378\",\"37\",\"0\",\"Training\",\"Stims/Figures/144-C-30-3.bmp\",\"za:saza\",\"Left\",\"39\",\"8\",\"2\",\"8\",\"C2\",\"C\",\"114\"
\"\",\"\",\"approach-retreat\",\"118\",\"944506\",\"0.0-118.0\",\"\",\"\",\"2-5\",\"4127\",\"40\",\"1\",\"Training\",\"Stims/Figures/44-J-10-3.bmp\",\"sahaza\",\"Down\",\"40\",\"8\",\"3\",\"8\",\"C2\",\"C\",\"115\"
\"\",\"\",\"approach-retreat\",\"119\",\"950444\",\"0.0-119.0\",\"\",\"\",\"2-5\",\"4393\",\"40\",\"0\",\"Training\",\"Stims/Figures/102-C-20-4.bmp\",\"za:sa:za\",\"Down\",\"38\",\"8\",\"4\",\"8\",\"C2\",\"C\",\"116\"
\"\",\"\",\"approach-retreat\",\"120\",\"956191\",\"0.0-120.0\",\"\",\"\",\"2-5\",\"4204\",\"37\",\"0\",\"Training\",\"Stims/Figures/85-C-20-2.bmp\",\"vasha:va\",\"Left\",\"39\",\"8\",\"5\",\"8\",\"C1\",\"C\",\"117\"
\"\",\"\",\"approach-retreat\",\"121\",\"963387\",\"0.0-121.0\",\"\",\"\",\"2-5\",\"5665\",\"38\",\"1\",\"Training\",\"Stims/Figures/7-C-20-4.bmp\",\"sasa:za\",\"Down\",\"38\",\"8\",\"6\",\"8\",\"C2\",\"C\",\"118\"
\"\",\"\",\"approach-retreat\",\"122\",\"970849\",\"0.0-122.0\",\"\",\"\",\"2-5\",\"5927\",\"39\",\"1\",\"Training\",\"Stims/Figures/71-C-30-1.bmp\",\"vashasha\",\"Left\",\"39\",\"8\",\"7\",\"8\",\"C1\",\"C\",\"119\"
\"\",\"\",\"approach-retreat\",\"123\",\"978956\",\"0.0-123.0\",\"\",\"\",\"2-5\",\"6566\",\"40\",\"1\",\"Training\",\"Stims/Figures/93-C-30-1.bmp\",\"fa:sha:sha\",\"Up\",\"40\",\"8\",\"8\",\"8\",\"C1\",\"C\",\"120\"
\"\",\"\",\"approach-retreat\",\"124\",\"985573\",\"0.0-124.0\",\"\",\"\",\"2-5\",\"5084\",\"40\",\"1\",\"Training\",\"Stims/Figures/102-J-10-4.bmp\",\"sa:haza\",\"Down\",\"40\",\"8\",\"9\",\"8\",\"C2\",\"C\",\"121\"
\"\",\"\",\"approach-retreat\",\"125\",\"992142\",\"0.0-125.0\",\"\",\"\",\"2-5\",\"5026\",\"40\",\"0\",\"Training\",\"Stims/Figures/144-J-10-3.bmp\",\"sa:saza\",\"Up\",\"38\",\"8\",\"10\",\"8\",\"C2\",\"C\",\"122\"
\"\",\"\",\"approach-retreat\",\"126\",\"1000443\",\"0.0-126.0\",\"\",\"\",\"2-5\",\"6757\",\"37\",\"0\",\"Training\",\"Stims/Figures/71-J-0-1.bmp\",\"fafava\",\"Right\",\"39\",\"8\",\"11\",\"8\",\"C1\",\"C\",\"123\"
\"\",\"\",\"approach-retreat\",\"127\",\"1006170\",\"0.0-127.0\",\"\",\"\",\"2-5\",\"4198\",\"39\",\"1\",\"Training\",\"Stims/Figures/139-J-0-2.bmp\",\"va:shava\",\"Right\",\"39\",\"8\",\"12\",\"8\",\"C1\",\"C\",\"124\"
\"\",\"\",\"approach-retreat\",\"128\",\"1012893\",\"0.0-128.0\",\"\",\"\",\"2-5\",\"5188\",\"37\",\"1\",\"Training\",\"Stims/Figures/139-C-20-2.bmp\",\"va:sha:sha\",\"Right\",\"37\",\"8\",\"13\",\"8\",\"C1\",\"C\",\"125\"
\"\",\"\",\"approach-retreat\",\"129\",\"1019620\",\"0.0-129.0\",\"\",\"\",\"2-5\",\"5191\",\"38\",\"1\",\"Training\",\"Stims/Figures/85-J-0-2.bmp\",\"vafasha\",\"Up\",\"38\",\"8\",\"14\",\"8\",\"C1\",\"C\",\"126\"
\"\",\"\",\"approach-retreat\",\"130\",\"1025937\",\"0.0-130.0\",\"\",\"\",\"2-5\",\"4776\",\"40\",\"0\",\"Training\",\"Stims/Figures/7-J-10-4.bmp\",\"sasa:ha\",\"Up\",\"38\",\"8\",\"15\",\"8\",\"C2\",\"C\",\"127\"
\"\",\"\",\"approach-retreat\",\"131\",\"1031691\",\"0.0-131.0\",\"\",\"\",\"2-5\",\"4218\",\"37\",\"1\",\"Training\",\"Stims/Figures/44-C-30-3.bmp\",\"saha:za\",\"Right\",\"37\",\"8\",\"16\",\"8\",\"C2\",\"C\",\"128\"
\"\",\"\",\"approach-retreat\",\"132\",\"1037246\",\"0.0-132.0\",\"\",\"\",\"2-5\",\"4016\",\"39\",\"1\",\"Training\",\"Stims/Figures/102-J-10-4.bmp\",\"sa:haza\",\"Right\",\"39\",\"9\",\"1\",\"8\",\"C2\",\"C\",\"129\"
\"\",\"\",\"approach-retreat\",\"133\",\"1042916\",\"0.0-133.0\",\"\",\"\",\"2-5\",\"4150\",\"40\",\"1\",\"Training\",\"Stims/Figures/102-C-20-4.bmp\",\"za:sa:za\",\"Up\",\"40\",\"9\",\"2\",\"8\",\"C2\",\"C\",\"130\"
\"\",\"\",\"approach-retreat\",\"134\",\"1048412\",\"0.0-134.0\",\"\",\"\",\"2-5\",\"3953\",\"39\",\"1\",\"Training\",\"Stims/Figures/71-J-0-1.bmp\",\"fafava\",\"Right\",\"39\",\"9\",\"3\",\"8\",\"C1\",\"C\",\"131\"
\"\",\"\",\"approach-retreat\",\"135\",\"1054692\",\"0.0-135.0\",\"\",\"\",\"2-5\",\"4742\",\"39\",\"0\",\"Training\",\"Stims/Figures/139-J-0-2.bmp\",\"va:shava\",\"Left\",\"37\",\"9\",\"4\",\"8\",\"C1\",\"C\",\"132\"
\"\",\"\",\"approach-retreat\",\"136\",\"1060430\",\"0.0-136.0\",\"\",\"\",\"2-5\",\"4189\",\"38\",\"1\",\"Training\",\"Stims/Figures/93-C-30-1.bmp\",\"fa:sha:sha\",\"Down\",\"38\",\"9\",\"5\",\"8\",\"C1\",\"C\",\"133\"
\"\",\"\",\"approach-retreat\",\"137\",\"1066577\",\"0.0-137.0\",\"\",\"\",\"2-5\",\"4608\",\"40\",\"0\",\"Training\",\"Stims/Figures/7-J-10-4.bmp\",\"sasa:ha\",\"Up\",\"38\",\"9\",\"6\",\"8\",\"C2\",\"C\",\"134\"
\"\",\"\",\"approach-retreat\",\"138\",\"1073555\",\"0.0-138.0\",\"\",\"\",\"2-5\",\"5433\",\"38\",\"1\",\"Training\",\"Stims/Figures/144-J-10-3.bmp\",\"sa:saza\",\"Up\",\"38\",\"9\",\"7\",\"8\",\"C2\",\"C\",\"135\"
\"\",\"\",\"approach-retreat\",\"139\",\"1079300\",\"0.0-139.0\",\"\",\"\",\"2-5\",\"4199\",\"40\",\"1\",\"Training\",\"Stims/Figures/139-C-20-2.bmp\",\"va:sha:sha\",\"Up\",\"40\",\"9\",\"8\",\"8\",\"C1\",\"C\",\"136\"
\"\",\"\",\"approach-retreat\",\"140\",\"1086392\",\"0.0-140.0\",\"\",\"\",\"2-5\",\"5553\",\"39\",\"1\",\"Training\",\"Stims/Figures/44-C-30-3.bmp\",\"saha:za\",\"Left\",\"39\",\"9\",\"9\",\"8\",\"C2\",\"C\",\"137\"
\"\",\"\",\"approach-retreat\",\"141\",\"1092199\",\"0.0-141.0\",\"\",\"\",\"2-5\",\"4261\",\"39\",\"1\",\"Training\",\"Stims/Figures/93-J-0-1.bmp\",\"fafa:va\",\"Right\",\"39\",\"9\",\"10\",\"8\",\"C1\",\"C\",\"138\"
\"\",\"\",\"approach-retreat\",\"142\",\"1097943\",\"0.0-142.0\",\"\",\"\",\"2-5\",\"4195\",\"39\",\"1\",\"Training\",\"Stims/Figures/71-C-30-1.bmp\",\"vashasha\",\"Left\",\"39\",\"9\",\"11\",\"8\",\"C1\",\"C\",\"139\"
\"\",\"\",\"approach-retreat\",\"143\",\"1103986\",\"0.0-143.0\",\"\",\"\",\"2-5\",\"4496\",\"39\",\"0\",\"Training\",\"Stims/Figures/85-J-0-2.bmp\",\"vafasha\",\"Left\",\"37\",\"9\",\"12\",\"8\",\"C1\",\"C\",\"140\"
\"\",\"\",\"approach-retreat\",\"144\",\"1111335\",\"0.0-144.0\",\"\",\"\",\"2-5\",\"5806\",\"40\",\"0\",\"Training\",\"Stims/Figures/144-C-30-3.bmp\",\"za:saza\",\"Down\",\"38\",\"9\",\"13\",\"8\",\"C2\",\"C\",\"141\"
\"\",\"\",\"approach-retreat\",\"145\",\"1116725\",\"0.0-145.0\",\"\",\"\",\"2-5\",\"3848\",\"38\",\"1\",\"Training\",\"Stims/Figures/7-C-20-4.bmp\",\"sasa:za\",\"Down\",\"38\",\"9\",\"14\",\"8\",\"C2\",\"C\",\"142\"
\"\",\"\",\"approach-retreat\",\"146\",\"1122281\",\"0.0-146.0\",\"\",\"\",\"2-5\",\"4012\",\"40\",\"1\",\"Training\",\"Stims/Figures/44-J-10-3.bmp\",\"sahaza\",\"Down\",\"40\",\"9\",\"15\",\"8\",\"C2\",\"C\",\"143\"
\"\",\"\",\"approach-retreat\",\"147\",\"1127968\",\"0.0-147.0\",\"\",\"\",\"2-5\",\"4176\",\"39\",\"0\",\"Training\",\"Stims/Figures/85-C-20-2.bmp\",\"vasha:va\",\"Right\",\"37\",\"9\",\"16\",\"8\",\"C1\",\"C\",\"144\"
\"19101\",\"\",\"instructions\",\"148\",\"1147071\",\"0.0-148.0\",\"[{\"\"page_index\"\":0,\"\"viewing_time\"\":19098}]\",\"\",\"\",\"\",\"\",\"\",\"\",\"\",\"\",\"\",\"\",\"\",\"\",\"\",\"\",\"\",\"\"
\"\",\"\",\"approach-retreat\",\"149\",\"1155209\",\"0.0-149.0\",\"\",\"\",\"2-5\",\"6607\",\"39\",\"0\",\"Testing\",\"Stims/Figures/144-C-30-3.bmp\",\"za:saza\",\"Right\",\"37\",\"1\",\"1\",\"8\",\"C2\",\"C\",\"1\"
\"\",\"\",\"approach-retreat\",\"150\",\"1165747\",\"0.0-150.0\",\"\",\"\",\"2-5\",\"9003\",\"37\",\"1\",\"Testing\",\"Stims/Figures/139-J-0-2.bmp\",\"va:shava\",\"Left\",\"37\",\"1\",\"2\",\"8\",\"C1\",\"C\",\"2\"
\"\",\"\",\"approach-retreat\",\"151\",\"1173287\",\"0.0-151.0\",\"\",\"\",\"2-5\",\"6006\",\"39\",\"0\",\"Testing\",\"Stims/Figures/118-J-0-2.bmp\",\"va:shasha\",\"Left\",\"37\",\"1\",\"3\",\"8\",\"C1\",\"C\",\"3\"
\"\",\"\",\"approach-retreat\",\"152\",\"1179332\",\"0.0-152.0\",\"\",\"\",\"2-5\",\"4512\",\"38\",\"0\",\"Testing\",\"Stims/Figures/71-J-0-1.bmp\",\"fafava\",\"Down\",\"40\",\"1\",\"4\",\"8\",\"C1\",\"C\",\"4\"
\"\",\"\",\"approach-retreat\",\"153\",\"1186264\",\"0.0-153.0\",\"\",\"\",\"2-5\",\"5421\",\"39\",\"0\",\"Testing\",\"Stims/Figures/7-C-20-4.bmp\",\"sasa:za\",\"Right\",\"37\",\"1\",\"5\",\"8\",\"C2\",\"C\",\"5\"
\"\",\"\",\"approach-retreat\",\"154\",\"1198064\",\"0.0-154.0\",\"\",\"\",\"2-5\",\"10269\",\"38\",\"0\",\"Testing\",\"Stims/Figures/93-C-30-1.bmp\",\"fa:sha:sha\",\"Up\",\"40\",\"1\",\"6\",\"8\",\"C1\",\"C\",\"6\"
\"\",\"\",\"approach-retreat\",\"155\",\"1204815\",\"0.0-155.0\",\"\",\"\",\"2-5\",\"5220\",\"40\",\"1\",\"Testing\",\"Stims/Figures/118-C-20-2.bmp\",\"fa:sha:va\",\"Up\",\"40\",\"1\",\"7\",\"8\",\"C1\",\"C\",\"7\"
\"\",\"\",\"approach-retreat\",\"156\",\"1210694\",\"0.0-156.0\",\"\",\"\",\"2-5\",\"4349\",\"38\",\"0\",\"Testing\",\"Stims/Figures/144-J-10-3.bmp\",\"sa:saza\",\"Down\",\"40\",\"1\",\"8\",\"8\",\"C2\",\"C\",\"8\"
\"\",\"\",\"approach-retreat\",\"157\",\"1216991\",\"0.0-157.0\",\"\",\"\",\"2-5\",\"4768\",\"37\",\"0\",\"Testing\",\"Stims/Figures/139-C-20-2.bmp\",\"va:sha:sha\",\"Left\",\"39\",\"1\",\"9\",\"8\",\"C1\",\"C\",\"9\"
\"\",\"\",\"approach-retreat\",\"158\",\"1222804\",\"0.0-158.0\",\"\",\"\",\"2-5\",\"4287\",\"38\",\"0\",\"Testing\",\"Stims/Figures/102-C-20-4.bmp\",\"za:sa:za\",\"Up\",\"40\",\"1\",\"10\",\"8\",\"C2\",\"C\",\"10\"
\"\",\"\",\"approach-retreat\",\"159\",\"1229079\",\"0.0-159.0\",\"\",\"\",\"2-5\",\"4744\",\"39\",\"1\",\"Testing\",\"Stims/Figures/86-C-30-1.bmp\",\"fasha:va\",\"Left\",\"39\",\"1\",\"11\",\"8\",\"C1\",\"C\",\"11\"
\"\",\"\",\"approach-retreat\",\"160\",\"1235078\",\"0.0-160.0\",\"\",\"\",\"2-5\",\"4470\",\"40\",\"1\",\"Testing\",\"Stims/Figures/102-J-10-4.bmp\",\"sa:haza\",\"Down\",\"40\",\"1\",\"12\",\"8\",\"C2\",\"C\",\"12\"
\"\",\"\",\"approach-retreat\",\"161\",\"1241831\",\"0.0-161.0\",\"\",\"\",\"2-5\",\"5224\",\"40\",\"0\",\"Testing\",\"Stims/Figures/111-J-10-3.bmp\",\"sasaza\",\"Up\",\"38\",\"1\",\"13\",\"8\",\"C2\",\"C\",\"13\"
\"\",\"\",\"approach-retreat\",\"162\",\"1249229\",\"0.0-162.0\",\"\",\"\",\"2-5\",\"5867\",\"38\",\"1\",\"Testing\",\"Stims/Figures/85-J-0-2.bmp\",\"vafasha\",\"Up\",\"38\",\"1\",\"14\",\"8\",\"C1\",\"C\",\"14\"
\"\",\"\",\"approach-retreat\",\"163\",\"1255536\",\"0.0-163.0\",\"\",\"\",\"2-5\",\"4784\",\"40\",\"1\",\"Testing\",\"Stims/Figures/71-C-30-1.bmp\",\"vashasha\",\"Up\",\"40\",\"1\",\"15\",\"8\",\"C1\",\"C\",\"15\"
\"\",\"\",\"approach-retreat\",\"164\",\"1261553\",\"0.0-164.0\",\"\",\"\",\"2-5\",\"4489\",\"37\",\"0\",\"Testing\",\"Stims/Figures/44-C-30-3.bmp\",\"saha:za\",\"Left\",\"39\",\"1\",\"16\",\"8\",\"C2\",\"C\",\"16\"
\"\",\"\",\"approach-retreat\",\"165\",\"1267929\",\"0.0-165.0\",\"\",\"\",\"2-5\",\"4836\",\"38\",\"1\",\"Testing\",\"Stims/Figures/111-C-30-3.bmp\",\"sa:haha\",\"Down\",\"38\",\"1\",\"17\",\"8\",\"C2\",\"C\",\"17\"
\"\",\"\",\"approach-retreat\",\"166\",\"1275184\",\"0.0-166.0\",\"\",\"\",\"2-5\",\"5724\",\"37\",\"0\",\"Testing\",\"Stims/Figures/7-J-10-4.bmp\",\"sasa:ha\",\"Right\",\"39\",\"1\",\"18\",\"8\",\"C2\",\"C\",\"18\"
\"\",\"\",\"approach-retreat\",\"167\",\"1282228\",\"0.0-167.0\",\"\",\"\",\"2-5\",\"5507\",\"37\",\"1\",\"Testing\",\"Stims/Figures/87-C-20-4.bmp\",\"za:sa:ha\",\"Right\",\"37\",\"1\",\"19\",\"8\",\"C2\",\"C\",\"19\"
\"\",\"\",\"approach-retreat\",\"168\",\"1288247\",\"0.0-168.0\",\"\",\"\",\"2-5\",\"4487\",\"37\",\"0\",\"Testing\",\"Stims/Figures/93-J-0-1.bmp\",\"fafa:va\",\"Right\",\"39\",\"1\",\"20\",\"8\",\"C1\",\"C\",\"20\"
\"\",\"\",\"approach-retreat\",\"169\",\"1294854\",\"0.0-169.0\",\"\",\"\",\"2-5\",\"5077\",\"38\",\"0\",\"Testing\",\"Stims/Figures/87-J-10-4.bmp\",\"sahaha\",\"Down\",\"40\",\"1\",\"21\",\"8\",\"C2\",\"C\",\"21\"
\"\",\"\",\"approach-retreat\",\"170\",\"1300798\",\"0.0-170.0\",\"\",\"\",\"2-5\",\"4413\",\"39\",\"1\",\"Testing\",\"Stims/Figures/44-J-10-3.bmp\",\"sahaza\",\"Right\",\"39\",\"1\",\"22\",\"8\",\"C2\",\"C\",\"22\"
\"\",\"\",\"approach-retreat\",\"171\",\"1306822\",\"0.0-171.0\",\"\",\"\",\"2-5\",\"4501\",\"40\",\"1\",\"Testing\",\"Stims/Figures/86-J-0-1.bmp\",\"va:fa:va\",\"Down\",\"40\",\"1\",\"23\",\"8\",\"C1\",\"C\",\"23\"
\"\",\"\",\"approach-retreat\",\"172\",\"1312640\",\"0.0-172.0\",\"\",\"\",\"2-5\",\"4288\",\"39\",\"1\",\"Testing\",\"Stims/Figures/85-C-20-2.bmp\",\"vasha:va\",\"Left\",\"39\",\"1\",\"24\",\"8\",\"C1\",\"C\",\"24\"
\"\",\"\",\"approach-retreat\",\"173\",\"1318469\",\"0.0-173.0\",\"\",\"\",\"2-5\",\"4298\",\"39\",\"1\",\"Testing\",\"Stims/Figures/87-J-10-4.bmp\",\"sahaha\",\"Right\",\"39\",\"2\",\"1\",\"8\",\"C2\",\"C\",\"25\"
\"\",\"\",\"approach-retreat\",\"174\",\"1324229\",\"0.0-174.0\",\"\",\"\",\"2-5\",\"4236\",\"37\",\"0\",\"Testing\",\"Stims/Figures/71-J-0-1.bmp\",\"fafava\",\"Right\",\"39\",\"2\",\"2\",\"8\",\"C1\",\"C\",\"26\"
\"\",\"\",\"approach-retreat\",\"175\",\"1330173\",\"0.0-175.0\",\"\",\"\",\"2-5\",\"4408\",\"37\",\"1\",\"Testing\",\"Stims/Figures/139-J-0-2.bmp\",\"va:shava\",\"Left\",\"37\",\"2\",\"3\",\"8\",\"C1\",\"C\",\"27\"
\"\",\"\",\"approach-retreat\",\"176\",\"1336252\",\"0.0-176.0\",\"\",\"\",\"2-5\",\"4550\",\"39\",\"0\",\"Testing\",\"Stims/Figures/118-C-20-2.bmp\",\"fa:sha:va\",\"Right\",\"37\",\"2\",\"4\",\"8\",\"C1\",\"C\",\"28\"
\"\",\"\",\"approach-retreat\",\"177\",\"1342928\",\"0.0-177.0\",\"\",\"\",\"2-5\",\"5152\",\"39\",\"1\",\"Testing\",\"Stims/Figures/111-C-30-3.bmp\",\"sa:haha\",\"Left\",\"39\",\"2\",\"5\",\"8\",\"C2\",\"C\",\"29\"
\"\",\"\",\"approach-retreat\",\"178\",\"1348549\",\"0.0-178.0\",\"\",\"\",\"2-5\",\"4087\",\"40\",\"1\",\"Testing\",\"Stims/Figures/93-J-0-1.bmp\",\"fafa:va\",\"Down\",\"40\",\"2\",\"6\",\"8\",\"C1\",\"C\",\"30\"
\"\",\"\",\"approach-retreat\",\"179\",\"1354806\",\"0.0-179.0\",\"\",\"\",\"2-5\",\"4727\",\"40\",\"1\",\"Testing\",\"Stims/Figures/7-C-20-4.bmp\",\"sasa:za\",\"Up\",\"40\",\"2\",\"7\",\"8\",\"C2\",\"C\",\"31\"
\"\",\"\",\"approach-retreat\",\"180\",\"1361183\",\"0.0-180.0\",\"\",\"\",\"2-5\",\"4849\",\"38\",\"1\",\"Testing\",\"Stims/Figures/111-J-10-3.bmp\",\"sasaza\",\"Up\",\"38\",\"2\",\"8\",\"8\",\"C2\",\"C\",\"32\"
\"\",\"\",\"approach-retreat\",\"181\",\"1367248\",\"0.0-181.0\",\"\",\"\",\"2-5\",\"4535\",\"39\",\"1\",\"Testing\",\"Stims/Figures/71-C-30-1.bmp\",\"vashasha\",\"Left\",\"39\",\"2\",\"9\",\"8\",\"C1\",\"C\",\"33\"
\"\",\"\",\"approach-retreat\",\"182\",\"1373431\",\"0.0-182.0\",\"\",\"\",\"2-5\",\"4661\",\"37\",\"0\",\"Testing\",\"Stims/Figures/85-C-20-2.bmp\",\"vasha:va\",\"Left\",\"39\",\"2\",\"10\",\"8\",\"C1\",\"C\",\"34\"
\"\",\"\",\"approach-retreat\",\"183\",\"1379445\",\"0.0-183.0\",\"\",\"\",\"2-5\",\"4484\",\"38\",\"1\",\"Testing\",\"Stims/Figures/144-C-30-3.bmp\",\"za:saza\",\"Down\",\"38\",\"2\",\"11\",\"8\",\"C2\",\"C\",\"35\"
\"\",\"\",\"approach-retreat\",\"184\",\"1385743\",\"0.0-184.0\",\"\",\"\",\"2-5\",\"4767\",\"39\",\"0\",\"Testing\",\"Stims/Figures/139-C-20-2.bmp\",\"va:sha:sha\",\"Right\",\"37\",\"2\",\"12\",\"8\",\"C1\",\"C\",\"36\"
\"\",\"\",\"approach-retreat\",\"185\",\"1391629\",\"0.0-185.0\",\"\",\"\",\"2-5\",\"4355\",\"38\",\"0\",\"Testing\",\"Stims/Figures/44-C-30-3.bmp\",\"saha:za\",\"Up\",\"40\",\"2\",\"13\",\"8\",\"C2\",\"C\",\"37\"
\"\",\"\",\"approach-retreat\",\"186\",\"1397302\",\"0.0-186.0\",\"\",\"\",\"2-5\",\"4142\",\"39\",\"0\",\"Testing\",\"Stims/Figures/86-C-30-1.bmp\",\"fasha:va\",\"Right\",\"37\",\"2\",\"14\",\"8\",\"C1\",\"C\",\"38\"
\"\",\"\",\"approach-retreat\",\"187\",\"1403106\",\"0.0-187.0\",\"\",\"\",\"2-5\",\"4274\",\"38\",\"0\",\"Testing\",\"Stims/Figures/118-J-0-2.bmp\",\"va:shasha\",\"Down\",\"40\",\"2\",\"15\",\"8\",\"C1\",\"C\",\"39\"
\"\",\"\",\"approach-retreat\",\"188\",\"1409608\",\"0.0-188.0\",\"\",\"\",\"2-5\",\"4971\",\"39\",\"0\",\"Testing\",\"Stims/Figures/86-J-0-1.bmp\",\"va:fa:va\",\"Left\",\"37\",\"2\",\"16\",\"8\",\"C1\",\"C\",\"40\"
\"\",\"\",\"approach-retreat\",\"189\",\"1415281\",\"0.0-189.0\",\"\",\"\",\"2-5\",\"4144\",\"37\",\"0\",\"Testing\",\"Stims/Figures/87-C-20-4.bmp\",\"za:sa:ha\",\"Left\",\"39\",\"2\",\"17\",\"8\",\"C2\",\"C\",\"41\"
\"\",\"\",\"approach-retreat\",\"190\",\"1421239\",\"0.0-190.0\",\"\",\"\",\"2-5\",\"4428\",\"40\",\"0\",\"Testing\",\"Stims/Figures/85-J-0-2.bmp\",\"vafasha\",\"Up\",\"38\",\"2\",\"18\",\"8\",\"C1\",\"C\",\"42\"
\"\",\"\",\"approach-retreat\",\"191\",\"1427073\",\"0.0-191.0\",\"\",\"\",\"2-5\",\"4311\",\"40\",\"0\",\"Testing\",\"Stims/Figures/102-C-20-4.bmp\",\"za:sa:za\",\"Down\",\"38\",\"2\",\"19\",\"8\",\"C2\",\"C\",\"43\"
\"\",\"\",\"approach-retreat\",\"192\",\"1433267\",\"0.0-192.0\",\"\",\"\",\"2-5\",\"4662\",\"38\",\"0\",\"Testing\",\"Stims/Figures/7-J-10-4.bmp\",\"sasa:ha\",\"Down\",\"40\",\"2\",\"20\",\"8\",\"C2\",\"C\",\"44\"
\"\",\"\",\"approach-retreat\",\"193\",\"1440615\",\"0.0-193.0\",\"\",\"\",\"2-5\",\"5817\",\"38\",\"0\",\"Testing\",\"Stims/Figures/93-C-30-1.bmp\",\"fa:sha:sha\",\"Up\",\"40\",\"2\",\"21\",\"8\",\"C1\",\"C\",\"45\"
\"\",\"\",\"approach-retreat\",\"194\",\"1446234\",\"0.0-194.0\",\"\",\"\",\"2-5\",\"4088\",\"40\",\"1\",\"Testing\",\"Stims/Figures/144-J-10-3.bmp\",\"sa:saza\",\"Down\",\"40\",\"2\",\"22\",\"8\",\"C2\",\"C\",\"46\"
\"\",\"\",\"approach-retreat\",\"195\",\"1452000\",\"0.0-195.0\",\"\",\"\",\"2-5\",\"4245\",\"37\",\"0\",\"Testing\",\"Stims/Figures/44-J-10-3.bmp\",\"sahaza\",\"Right\",\"39\",\"2\",\"23\",\"8\",\"C2\",\"C\",\"47\"
\"\",\"\",\"approach-retreat\",\"196\",\"1457772\",\"0.0-196.0\",\"\",\"\",\"2-5\",\"4243\",\"38\",\"1\",\"Testing\",\"Stims/Figures/102-J-10-4.bmp\",\"sa:haza\",\"Up\",\"38\",\"2\",\"24\",\"8\",\"C2\",\"C\",\"48\"
\"\",\"\",\"approach-retreat\",\"197\",\"1463750\",\"0.0-197.0\",\"\",\"\",\"2-5\",\"4445\",\"37\",\"0\",\"Testing\",\"Stims/Figures/71-J-0-1.bmp\",\"fafava\",\"Right\",\"39\",\"3\",\"1\",\"8\",\"C1\",\"C\",\"49\"
\"\",\"\",\"approach-retreat\",\"198\",\"1469283\",\"0.0-198.0\",\"\",\"\",\"2-5\",\"4004\",\"38\",\"0\",\"Testing\",\"Stims/Figures/7-J-10-4.bmp\",\"sasa:ha\",\"Down\",\"40\",\"3\",\"2\",\"8\",\"C2\",\"C\",\"50\"
\"\",\"\",\"approach-retreat\",\"199\",\"1475048\",\"0.0-199.0\",\"\",\"\",\"2-5\",\"4237\",\"37\",\"0\",\"Testing\",\"Stims/Figures/86-J-0-1.bmp\",\"va:fa:va\",\"Right\",\"39\",\"3\",\"3\",\"8\",\"C1\",\"C\",\"51\"
\"\",\"\",\"approach-retreat\",\"200\",\"1480913\",\"0.0-200.0\",\"\",\"\",\"2-5\",\"4336\",\"38\",\"0\",\"Testing\",\"Stims/Figures/85-J-0-2.bmp\",\"vafasha\",\"Down\",\"40\",\"3\",\"4\",\"8\",\"C1\",\"C\",\"52\"
\"\",\"\",\"approach-retreat\",\"201\",\"1486570\",\"0.0-201.0\",\"\",\"\",\"2-5\",\"4125\",\"39\",\"0\",\"Testing\",\"Stims/Figures/139-C-20-2.bmp\",\"va:sha:sha\",\"Right\",\"37\",\"3\",\"5\",\"8\",\"C1\",\"C\",\"53\"
\"\",\"\",\"approach-retreat\",\"202\",\"1492478\",\"0.0-202.0\",\"\",\"\",\"2-5\",\"4378\",\"40\",\"1\",\"Testing\",\"Stims/Figures/85-C-20-2.bmp\",\"vasha:va\",\"Up\",\"40\",\"3\",\"6\",\"8\",\"C1\",\"C\",\"54\"
\"\",\"\",\"approach-retreat\",\"203\",\"1498429\",\"0.0-203.0\",\"\",\"\",\"2-5\",\"4440\",\"40\",\"1\",\"Testing\",\"Stims/Figures/44-J-10-3.bmp\",\"sahaza\",\"Down\",\"40\",\"3\",\"7\",\"8\",\"C2\",\"C\",\"55\"
\"\",\"\",\"approach-retreat\",\"204\",\"1504983\",\"0.0-204.0\",\"\",\"\",\"2-5\",\"5022\",\"40\",\"1\",\"Testing\",\"Stims/Figures/93-C-30-1.bmp\",\"fa:sha:sha\",\"Up\",\"40\",\"3\",\"8\",\"8\",\"C1\",\"C\",\"56\"
\"\",\"\",\"approach-retreat\",\"205\",\"1511212\",\"0.0-205.0\",\"\",\"\",\"2-5\",\"4698\",\"37\",\"0\",\"Testing\",\"Stims/Figures/93-J-0-1.bmp\",\"fafa:va\",\"Right\",\"39\",\"3\",\"9\",\"8\",\"C1\",\"C\",\"57\"
\"\",\"\",\"approach-retreat\",\"206\",\"1517370\",\"0.0-206.0\",\"\",\"\",\"2-5\",\"4635\",\"39\",\"1\",\"Testing\",\"Stims/Figures/118-C-20-2.bmp\",\"fa:sha:va\",\"Left\",\"39\",\"3\",\"10\",\"8\",\"C1\",\"C\",\"58\"
\"\",\"\",\"approach-retreat\",\"207\",\"1523077\",\"0.0-207.0\",\"\",\"\",\"2-5\",\"4176\",\"38\",\"0\",\"Testing\",\"Stims/Figures/7-C-20-4.bmp\",\"sasa:za\",\"Up\",\"40\",\"3\",\"11\",\"8\",\"C2\",\"C\",\"59\"
\"\",\"\",\"approach-retreat\",\"208\",\"1528591\",\"0.0-208.0\",\"\",\"\",\"2-5\",\"3983\",\"38\",\"0\",\"Testing\",\"Stims/Figures/144-C-30-3.bmp\",\"za:saza\",\"Up\",\"40\",\"3\",\"12\",\"8\",\"C2\",\"C\",\"60\"
\"\",\"\",\"approach-retreat\",\"209\",\"1534937\",\"0.0-209.0\",\"\",\"\",\"2-5\",\"4816\",\"37\",\"0\",\"Testing\",\"Stims/Figures/111-C-30-3.bmp\",\"sa:haha\",\"Left\",\"39\",\"3\",\"13\",\"8\",\"C2\",\"C\",\"61\"
\"\",\"\",\"approach-retreat\",\"210\",\"1540745\",\"0.0-210.0\",\"\",\"\",\"2-5\",\"4277\",\"39\",\"1\",\"Testing\",\"Stims/Figures/139-J-0-2.bmp\",\"va:shava\",\"Right\",\"39\",\"3\",\"14\",\"8\",\"C1\",\"C\",\"62\"
\"\",\"\",\"approach-retreat\",\"211\",\"1546389\",\"0.0-211.0\",\"\",\"\",\"2-5\",\"4114\",\"38\",\"0\",\"Testing\",\"Stims/Figures/102-C-20-4.bmp\",\"za:sa:za\",\"Up\",\"40\",\"3\",\"15\",\"8\",\"C2\",\"C\",\"63\"
\"\",\"\",\"approach-retreat\",\"212\",\"1551960\",\"0.0-212.0\",\"\",\"\",\"2-5\",\"4040\",\"38\",\"0\",\"Testing\",\"Stims/Figures/71-C-30-1.bmp\",\"vashasha\",\"Up\",\"40\",\"3\",\"16\",\"8\",\"C1\",\"C\",\"64\"
\"\",\"\",\"approach-retreat\",\"213\",\"1557513\",\"0.0-213.0\",\"\",\"\",\"2-5\",\"4041\",\"37\",\"1\",\"Testing\",\"Stims/Figures/86-C-30-1.bmp\",\"fasha:va\",\"Right\",\"37\",\"3\",\"17\",\"8\",\"C1\",\"C\",\"65\"
\"\",\"\",\"approach-retreat\",\"214\",\"1563525\",\"0.0-214.0\",\"\",\"\",\"2-5\",\"4482\",\"37\",\"1\",\"Testing\",\"Stims/Figures/87-J-10-4.bmp\",\"sahaha\",\"Left\",\"37\",\"3\",\"18\",\"8\",\"C2\",\"C\",\"66\"
\"\",\"\",\"approach-retreat\",\"215\",\"1570171\",\"0.0-215.0\",\"\",\"\",\"2-5\",\"5135\",\"37\",\"1\",\"Testing\",\"Stims/Figures/102-J-10-4.bmp\",\"sa:haza\",\"Left\",\"37\",\"3\",\"19\",\"8\",\"C2\",\"C\",\"67\"
\"\",\"\",\"approach-retreat\",\"216\",\"1576503\",\"0.0-216.0\",\"\",\"\",\"2-5\",\"4823\",\"40\",\"0\",\"Testing\",\"Stims/Figures/44-C-30-3.bmp\",\"saha:za\",\"Down\",\"38\",\"3\",\"20\",\"8\",\"C2\",\"C\",\"68\"
\"\",\"\",\"approach-retreat\",\"217\",\"1583609\",\"0.0-217.0\",\"\",\"\",\"2-5\",\"5597\",\"39\",\"0\",\"Testing\",\"Stims/Figures/118-J-0-2.bmp\",\"va:shasha\",\"Left\",\"37\",\"3\",\"21\",\"8\",\"C1\",\"C\",\"69\"
\"\",\"\",\"approach-retreat\",\"218\",\"1589423\",\"0.0-218.0\",\"\",\"\",\"2-5\",\"4285\",\"38\",\"0\",\"Testing\",\"Stims/Figures/111-J-10-3.bmp\",\"sasaza\",\"Down\",\"40\",\"3\",\"22\",\"8\",\"C2\",\"C\",\"70\"
\"\",\"\",\"approach-retreat\",\"219\",\"1595748\",\"0.0-219.0\",\"\",\"\",\"2-5\",\"4794\",\"37\",\"0\",\"Testing\",\"Stims/Figures/87-C-20-4.bmp\",\"za:sa:ha\",\"Left\",\"39\",\"3\",\"23\",\"8\",\"C2\",\"C\",\"71\"
\"\",\"\",\"approach-retreat\",\"220\",\"1601680\",\"0.0-220.0\",\"\",\"\",\"2-5\",\"4403\",\"40\",\"1\",\"Testing\",\"Stims/Figures/144-J-10-3.bmp\",\"sa:saza\",\"Down\",\"40\",\"3\",\"24\",\"8\",\"C2\",\"C\",\"72\"
\"\",\"\",\"approach-retreat\",\"221\",\"1608149\",\"0.0-221.0\",\"\",\"\",\"2-5\",\"4942\",\"37\",\"1\",\"Testing\",\"Stims/Figures/44-J-10-3.bmp\",\"sahaza\",\"Left\",\"37\",\"4\",\"1\",\"8\",\"C2\",\"C\",\"73\"
\"\",\"\",\"approach-retreat\",\"222\",\"1614517\",\"0.0-222.0\",\"\",\"\",\"2-5\",\"4837\",\"40\",\"0\",\"Testing\",\"Stims/Figures/86-J-0-1.bmp\",\"va:fa:va\",\"Up\",\"38\",\"4\",\"2\",\"8\",\"C1\",\"C\",\"74\"
\"\",\"\",\"approach-retreat\",\"223\",\"1621357\",\"0.0-223.0\",\"\",\"\",\"2-5\",\"5321\",\"39\",\"0\",\"Testing\",\"Stims/Figures/85-J-0-2.bmp\",\"vafasha\",\"Left\",\"37\",\"4\",\"3\",\"8\",\"C1\",\"C\",\"75\"
\"\",\"\",\"approach-retreat\",\"224\",\"1627037\",\"0.0-224.0\",\"\",\"\",\"2-5\",\"4151\",\"37\",\"1\",\"Testing\",\"Stims/Figures/139-C-20-2.bmp\",\"va:sha:sha\",\"Right\",\"37\",\"4\",\"4\",\"8\",\"C1\",\"C\",\"76\"
\"\",\"\",\"approach-retreat\",\"225\",\"1633572\",\"0.0-225.0\",\"\",\"\",\"2-5\",\"5007\",\"39\",\"1\",\"Testing\",\"Stims/Figures/93-J-0-1.bmp\",\"fafa:va\",\"Right\",\"39\",\"4\",\"5\",\"8\",\"C1\",\"C\",\"77\"
\"\",\"\",\"approach-retreat\",\"226\",\"1639484\",\"0.0-226.0\",\"\",\"\",\"2-5\",\"4378\",\"37\",\"0\",\"Testing\",\"Stims/Figures/102-C-20-4.bmp\",\"za:sa:za\",\"Left\",\"39\",\"4\",\"6\",\"8\",\"C2\",\"C\",\"78\"
\"\",\"\",\"approach-retreat\",\"227\",\"1645384\",\"0.0-227.0\",\"\",\"\",\"2-5\",\"4369\",\"39\",\"0\",\"Testing\",\"Stims/Figures/111-J-10-3.bmp\",\"sasaza\",\"Left\",\"37\",\"4\",\"7\",\"8\",\"C2\",\"C\",\"79\"
\"\",\"\",\"approach-retreat\",\"228\",\"1651572\",\"0.0-228.0\",\"\",\"\",\"2-5\",\"4657\",\"38\",\"1\",\"Testing\",\"Stims/Figures/144-J-10-3.bmp\",\"sa:saza\",\"Up\",\"38\",\"4\",\"8\",\"8\",\"C2\",\"C\",\"80\"
\"\",\"\",\"approach-retreat\",\"229\",\"1657460\",\"0.0-229.0\",\"\",\"\",\"2-5\",\"4361\",\"38\",\"1\",\"Testing\",\"Stims/Figures/93-C-30-1.bmp\",\"fa:sha:sha\",\"Down\",\"38\",\"4\",\"9\",\"8\",\"C1\",\"C\",\"81\"
\"\",\"\",\"approach-retreat\",\"230\",\"1663307\",\"0.0-230.0\",\"\",\"\",\"2-5\",\"4315\",\"39\",\"0\",\"Testing\",\"Stims/Figures/87-C-20-4.bmp\",\"za:sa:ha\",\"Right\",\"37\",\"4\",\"10\",\"8\",\"C2\",\"C\",\"82\"
\"\",\"\",\"approach-retreat\",\"231\",\"1668966\",\"0.0-231.0\",\"\",\"\",\"2-5\",\"4112\",\"38\",\"0\",\"Testing\",\"Stims/Figures/139-J-0-2.bmp\",\"va:shava\",\"Down\",\"40\",\"4\",\"11\",\"8\",\"C1\",\"C\",\"83\"
\"\",\"\",\"approach-retreat\",\"232\",\"1675155\",\"0.0-232.0\",\"\",\"\",\"2-5\",\"4658\",\"40\",\"1\",\"Testing\",\"Stims/Figures/71-C-30-1.bmp\",\"vashasha\",\"Up\",\"40\",\"4\",\"12\",\"8\",\"C1\",\"C\",\"84\"
\"\",\"\",\"approach-retreat\",\"233\",\"1680958\",\"0.0-233.0\",\"\",\"\",\"2-5\",\"4274\",\"38\",\"0\",\"Testing\",\"Stims/Figures/118-J-0-2.bmp\",\"va:shasha\",\"Down\",\"40\",\"4\",\"13\",\"8\",\"C1\",\"C\",\"85\"
\"\",\"\",\"approach-retreat\",\"234\",\"1687542\",\"0.0-234.0\",\"\",\"\",\"2-5\",\"5056\",\"38\",\"0\",\"Testing\",\"Stims/Figures/71-J-0-1.bmp\",\"fafava\",\"Down\",\"40\",\"4\",\"14\",\"8\",\"C1\",\"C\",\"86\"
\"\",\"\",\"approach-retreat\",\"235\",\"1693211\",\"0.0-235.0\",\"\",\"\",\"2-5\",\"4134\",\"39\",\"0\",\"Testing\",\"Stims/Figures/144-C-30-3.bmp\",\"za:saza\",\"Right\",\"37\",\"4\",\"15\",\"8\",\"C2\",\"C\",\"87\"
\"\",\"\",\"approach-retreat\",\"236\",\"1699201\",\"0.0-236.0\",\"\",\"\",\"2-5\",\"4462\",\"40\",\"1\",\"Testing\",\"Stims/Figures/118-C-20-2.bmp\",\"fa:sha:va\",\"Up\",\"40\",\"4\",\"16\",\"8\",\"C1\",\"C\",\"88\"
\"\",\"\",\"approach-retreat\",\"237\",\"1706576\",\"0.0-237.0\",\"\",\"\",\"2-5\",\"5844\",\"39\",\"1\",\"Testing\",\"Stims/Figures/85-C-20-2.bmp\",\"vasha:va\",\"Left\",\"39\",\"4\",\"17\",\"8\",\"C1\",\"C\",\"89\"
\"\",\"\",\"approach-retreat\",\"238\",\"1713040\",\"0.0-238.0\",\"\",\"\",\"2-5\",\"4930\",\"38\",\"0\",\"Testing\",\"Stims/Figures/44-C-30-3.bmp\",\"saha:za\",\"Up\",\"40\",\"4\",\"18\",\"8\",\"C2\",\"C\",\"90\"
\"\",\"\",\"approach-retreat\",\"239\",\"1719532\",\"0.0-239.0\",\"\",\"\",\"2-5\",\"4959\",\"39\",\"0\",\"Testing\",\"Stims/Figures/7-C-20-4.bmp\",\"sasa:za\",\"Right\",\"37\",\"4\",\"19\",\"8\",\"C2\",\"C\",\"91\"
\"\",\"\",\"approach-retreat\",\"240\",\"1725862\",\"0.0-240.0\",\"\",\"\",\"2-5\",\"4800\",\"40\",\"1\",\"Testing\",\"Stims/Figures/87-J-10-4.bmp\",\"sahaha\",\"Down\",\"40\",\"4\",\"20\",\"8\",\"C2\",\"C\",\"92\"
\"\",\"\",\"approach-retreat\",\"241\",\"1732594\",\"0.0-241.0\",\"\",\"\",\"2-5\",\"5200\",\"37\",\"0\",\"Testing\",\"Stims/Figures/111-C-30-3.bmp\",\"sa:haha\",\"Left\",\"39\",\"4\",\"21\",\"8\",\"C2\",\"C\",\"93\"
\"\",\"\",\"approach-retreat\",\"242\",\"1738371\",\"0.0-242.0\",\"\",\"\",\"2-5\",\"4247\",\"38\",\"1\",\"Testing\",\"Stims/Figures/86-C-30-1.bmp\",\"fasha:va\",\"Down\",\"38\",\"4\",\"22\",\"8\",\"C1\",\"C\",\"94\"
\"\",\"\",\"approach-retreat\",\"243\",\"1746423\",\"0.0-243.0\",\"\",\"\",\"2-5\",\"6535\",\"40\",\"0\",\"Testing\",\"Stims/Figures/7-J-10-4.bmp\",\"sasa:ha\",\"Up\",\"38\",\"4\",\"23\",\"8\",\"C2\",\"C\",\"95\"
\"\",\"\",\"approach-retreat\",\"244\",\"1753030\",\"0.0-244.0\",\"\",\"\",\"2-5\",\"5073\",\"37\",\"0\",\"Testing\",\"Stims/Figures/102-J-10-4.bmp\",\"sa:haza\",\"Right\",\"39\",\"4\",\"24\",\"8\",\"C2\",\"C\",\"96\"
\"24116\",\"\",\"survey-text\",\"245\",\"1777167\",\"0.0-245.0\",\"\",\"{\"\"Q0\"\":\"\"PS160075\"\"}\",\"\",\"\",\"\",\"\",\"\",\"\",\"\",\"\",\"\",\"\",\"\",\"\",\"\",\"\",\"\"
