\"rt\",\"key_press\",\"trial_type\",\"trial_index\",\"time_elapsed\",\"internal_node_id\",\"view_history\",\"responses\",\"Id\",\"Rt\",\"ResKeyCode\",\"ResCorr\",\"TrialType2\",\"Image\",\"Label\",\"Location\",\"CorrectResponse\",\"Block\",\"BlockTrial\",\"Condition\",\"LabelType\",\"Subcondition\",\"trialNum\"
\"43074\",\"32\",\"text\",\"0\",\"43080\",\"0.0-0.0-0.0\",\"\",\"\",\"\",\"\",\"\",\"\",\"\",\"\",\"\",\"\",\"\",\"\",\"\",\"\",\"\",\"\",\"\"
\"66037\",\"\",\"instructions\",\"1\",\"109119\",\"0.0-1.0\",\"[{\"\"page_index\"\":0,\"\"viewing_time\"\":66036}]\",\"\",\"\",\"\",\"\",\"\",\"\",\"\",\"\",\"\",\"\",\"\",\"\",\"\",\"\",\"\",\"\"
\"24781\",\"\",\"survey-multi-choice\",\"2\",\"133994\",\"0.0-2.0\",\"\",\"{\"\"Q0\"\":\"\"Da\"\",\"\"Q1\"\":\"\"Da\"\",\"\"Q2\"\":\"\"Da\"\",\"\"Q3\"\":\"\"Da\"\",\"\"Q4\"\":\"\"Da\"\",\"\"Q5\"\":\"\"Da\"\"}\",\"\",\"\",\"\",\"\",\"\",\"\",\"\",\"\",\"\",\"\",\"\",\"\",\"\",\"\",\"\"
\"\",\"\",\"bio\",\"3\",\"141452\",\"0.0-3.0\",\"\",\"{\"\"age\"\":\"\"20\"\",\"\"gender\"\":\"\"m\"\",\"\"specify\"\":\"\"\"\"}\",\"\",\"\",\"\",\"\",\"\",\"\",\"\",\"\",\"\",\"\",\"\",\"\",\"\",\"\",\"\"
\"\",\"\",\"approach-retreat\",\"4\",\"148119\",\"0.0-4.0\",\"\",\"\",\"1-3\",\"5081\",\"39\",\"0\",\"Training\",\"Stims/Figures/57-C-30-1.bmp\",\"sa:haha\",\"Right\",\"37\",\"1\",\"1\",\"6A\",\"C2\",\"C\",\"1\"
\"\",\"\",\"approach-retreat\",\"5\",\"154070\",\"0.0-5.0\",\"\",\"\",\"1-3\",\"4441\",\"38\",\"0\",\"Training\",\"Stims/Figures/85-J-0-2.bmp\",\"fafa:va\",\"Down\",\"40\",\"1\",\"2\",\"6A\",\"C1\",\"C\",\"2\"
\"\",\"\",\"approach-retreat\",\"6\",\"159851\",\"0.0-6.0\",\"\",\"\",\"1-3\",\"4276\",\"38\",\"1\",\"Training\",\"Stims/Figures/87-C-20-4.bmp\",\"sa:saha\",\"Down\",\"38\",\"1\",\"3\",\"6A\",\"C2\",\"C\",\"3\"
\"\",\"\",\"approach-retreat\",\"7\",\"165658\",\"0.0-7.0\",\"\",\"\",\"1-3\",\"4296\",\"40\",\"0\",\"Training\",\"Stims/Figures/100-J-10-3.bmp\",\"vasha:va\",\"Up\",\"38\",\"1\",\"4\",\"6A\",\"C1\",\"C\",\"4\"
\"\",\"\",\"approach-retreat\",\"8\",\"171670\",\"0.0-8.0\",\"\",\"\",\"1-3\",\"4504\",\"39\",\"1\",\"Training\",\"Stims/Figures/128-J-10-3.bmp\",\"fashasha\",\"Right\",\"39\",\"1\",\"5\",\"6A\",\"C1\",\"C\",\"5\"
\"\",\"\",\"approach-retreat\",\"9\",\"177457\",\"0.0-9.0\",\"\",\"\",\"1-3\",\"4278\",\"37\",\"0\",\"Training\",\"Stims/Figures/139-C-20-2.bmp\",\"zahaha\",\"Left\",\"39\",\"1\",\"6\",\"6A\",\"C2\",\"C\",\"6\"
\"\",\"\",\"approach-retreat\",\"10\",\"183319\",\"0.0-10.0\",\"\",\"\",\"1-3\",\"4355\",\"40\",\"0\",\"Training\",\"Stims/Figures/87-J-10-4.bmp\",\"va:sha:sha\",\"Up\",\"38\",\"1\",\"7\",\"6A\",\"C1\",\"C\",\"7\"
\"\",\"\",\"approach-retreat\",\"11\",\"188954\",\"0.0-11.0\",\"\",\"\",\"1-3\",\"4126\",\"38\",\"0\",\"Training\",\"Stims/Figures/128-C-30-3.bmp\",\"za:haha\",\"Up\",\"40\",\"1\",\"8\",\"6A\",\"C2\",\"C\",\"8\"
\"\",\"\",\"approach-retreat\",\"12\",\"194838\",\"0.0-12.0\",\"\",\"\",\"1-3\",\"4370\",\"39\",\"1\",\"Training\",\"Stims/Figures/7-C-20-4.bmp\",\"zaha:ha\",\"Left\",\"39\",\"1\",\"9\",\"6A\",\"C2\",\"C\",\"9\"
\"\",\"\",\"approach-retreat\",\"13\",\"200587\",\"0.0-13.0\",\"\",\"\",\"1-3\",\"4245\",\"40\",\"1\",\"Training\",\"Stims/Figures/93-J-0-1.bmp\",\"fasha:va\",\"Down\",\"40\",\"1\",\"10\",\"6A\",\"C1\",\"C\",\"10\"
\"\",\"\",\"approach-retreat\",\"14\",\"206372\",\"0.0-14.0\",\"\",\"\",\"1-3\",\"4275\",\"38\",\"1\",\"Training\",\"Stims/Figures/93-C-30-1.bmp\",\"sahaza\",\"Down\",\"38\",\"1\",\"11\",\"6A\",\"C2\",\"C\",\"11\"
\"\",\"\",\"approach-retreat\",\"15\",\"212030\",\"0.0-15.0\",\"\",\"\",\"1-3\",\"4146\",\"37\",\"1\",\"Training\",\"Stims/Figures/7-J-10-4.bmp\",\"va:fa:sha\",\"Left\",\"37\",\"1\",\"12\",\"6A\",\"C1\",\"C\",\"12\"
\"\",\"\",\"approach-retreat\",\"16\",\"217406\",\"0.0-16.0\",\"\",\"\",\"1-3\",\"3863\",\"39\",\"0\",\"Training\",\"Stims/Figures/139-J-0-2.bmp\",\"vafava\",\"Left\",\"37\",\"1\",\"13\",\"6A\",\"C1\",\"C\",\"13\"
\"\",\"\",\"approach-retreat\",\"17\",\"222991\",\"0.0-17.0\",\"\",\"\",\"1-3\",\"4077\",\"39\",\"1\",\"Training\",\"Stims/Figures/57-J-0-1.bmp\",\"fafava\",\"Right\",\"39\",\"1\",\"14\",\"6A\",\"C1\",\"C\",\"14\"
\"\",\"\",\"approach-retreat\",\"18\",\"228938\",\"0.0-18.0\",\"\",\"\",\"1-3\",\"4439\",\"40\",\"1\",\"Training\",\"Stims/Figures/85-C-20-2.bmp\",\"sasaza\",\"Up\",\"40\",\"1\",\"15\",\"6A\",\"C2\",\"C\",\"15\"
\"\",\"\",\"approach-retreat\",\"19\",\"234688\",\"0.0-19.0\",\"\",\"\",\"1-3\",\"4239\",\"39\",\"0\",\"Training\",\"Stims/Figures/100-C-30-3.bmp\",\"zaha:za\",\"Right\",\"37\",\"1\",\"16\",\"6A\",\"C2\",\"C\",\"16\"
\"\",\"\",\"approach-retreat\",\"20\",\"240804\",\"0.0-20.0\",\"\",\"\",\"1-3\",\"4608\",\"37\",\"1\",\"Training\",\"Stims/Figures/100-C-30-3.bmp\",\"zaha:za\",\"Right\",\"37\",\"2\",\"1\",\"6A\",\"C2\",\"C\",\"17\"
\"\",\"\",\"approach-retreat\",\"21\",\"247440\",\"0.0-21.0\",\"\",\"\",\"1-3\",\"5129\",\"38\",\"1\",\"Training\",\"Stims/Figures/87-J-10-4.bmp\",\"va:sha:sha\",\"Up\",\"38\",\"2\",\"2\",\"6A\",\"C1\",\"C\",\"18\"
\"\",\"\",\"approach-retreat\",\"22\",\"253108\",\"0.0-22.0\",\"\",\"\",\"1-3\",\"4156\",\"38\",\"1\",\"Training\",\"Stims/Figures/85-J-0-2.bmp\",\"fafa:va\",\"Up\",\"38\",\"2\",\"3\",\"6A\",\"C1\",\"C\",\"19\"
\"\",\"\",\"approach-retreat\",\"23\",\"258712\",\"0.0-23.0\",\"\",\"\",\"1-3\",\"4098\",\"38\",\"0\",\"Training\",\"Stims/Figures/93-C-30-1.bmp\",\"sahaza\",\"Up\",\"40\",\"2\",\"4\",\"6A\",\"C2\",\"C\",\"20\"
\"\",\"\",\"approach-retreat\",\"24\",\"265154\",\"0.0-24.0\",\"\",\"\",\"1-3\",\"4932\",\"39\",\"0\",\"Training\",\"Stims/Figures/85-C-20-2.bmp\",\"sasaza\",\"Right\",\"37\",\"2\",\"5\",\"6A\",\"C2\",\"C\",\"21\"
\"\",\"\",\"approach-retreat\",\"25\",\"270483\",\"0.0-25.0\",\"\",\"\",\"1-3\",\"3819\",\"37\",\"1\",\"Training\",\"Stims/Figures/128-J-10-3.bmp\",\"fashasha\",\"Left\",\"37\",\"2\",\"6\",\"6A\",\"C1\",\"C\",\"22\"
\"\",\"\",\"approach-retreat\",\"26\",\"276148\",\"0.0-26.0\",\"\",\"\",\"1-3\",\"4155\",\"38\",\"0\",\"Training\",\"Stims/Figures/139-J-0-2.bmp\",\"vafava\",\"Down\",\"40\",\"2\",\"7\",\"6A\",\"C1\",\"C\",\"23\"
\"\",\"\",\"approach-retreat\",\"27\",\"281773\",\"0.0-27.0\",\"\",\"\",\"1-3\",\"4117\",\"38\",\"0\",\"Training\",\"Stims/Figures/100-J-10-3.bmp\",\"vasha:va\",\"Down\",\"40\",\"2\",\"8\",\"6A\",\"C1\",\"C\",\"24\"
\"\",\"\",\"approach-retreat\",\"28\",\"287675\",\"0.0-28.0\",\"\",\"\",\"1-3\",\"4395\",\"40\",\"1\",\"Training\",\"Stims/Figures/7-J-10-4.bmp\",\"va:fa:sha\",\"Down\",\"40\",\"2\",\"9\",\"6A\",\"C1\",\"C\",\"25\"
\"\",\"\",\"approach-retreat\",\"29\",\"293297\",\"0.0-29.0\",\"\",\"\",\"1-3\",\"4113\",\"39\",\"1\",\"Training\",\"Stims/Figures/139-C-20-2.bmp\",\"zahaha\",\"Left\",\"39\",\"2\",\"10\",\"6A\",\"C2\",\"C\",\"26\"
\"\",\"\",\"approach-retreat\",\"30\",\"298812\",\"0.0-30.0\",\"\",\"\",\"1-3\",\"4002\",\"39\",\"1\",\"Training\",\"Stims/Figures/57-C-30-1.bmp\",\"sa:haha\",\"Left\",\"39\",\"2\",\"11\",\"6A\",\"C2\",\"C\",\"27\"
\"\",\"\",\"approach-retreat\",\"31\",\"304380\",\"0.0-31.0\",\"\",\"\",\"1-3\",\"4056\",\"40\",\"0\",\"Training\",\"Stims/Figures/7-C-20-4.bmp\",\"zaha:ha\",\"Down\",\"38\",\"2\",\"12\",\"6A\",\"C2\",\"C\",\"28\"
\"\",\"\",\"approach-retreat\",\"32\",\"310162\",\"0.0-32.0\",\"\",\"\",\"1-3\",\"4272\",\"39\",\"1\",\"Training\",\"Stims/Figures/93-J-0-1.bmp\",\"fasha:va\",\"Right\",\"39\",\"2\",\"13\",\"6A\",\"C1\",\"C\",\"29\"
\"\",\"\",\"approach-retreat\",\"33\",\"316045\",\"0.0-33.0\",\"\",\"\",\"1-3\",\"4372\",\"38\",\"0\",\"Training\",\"Stims/Figures/128-C-30-3.bmp\",\"za:haha\",\"Up\",\"40\",\"2\",\"14\",\"6A\",\"C2\",\"C\",\"30\"
\"\",\"\",\"approach-retreat\",\"34\",\"321673\",\"0.0-34.0\",\"\",\"\",\"1-3\",\"4120\",\"39\",\"1\",\"Training\",\"Stims/Figures/57-J-0-1.bmp\",\"fafava\",\"Right\",\"39\",\"2\",\"15\",\"6A\",\"C1\",\"C\",\"31\"
\"\",\"\",\"approach-retreat\",\"35\",\"327258\",\"0.0-35.0\",\"\",\"\",\"1-3\",\"4080\",\"37\",\"0\",\"Training\",\"Stims/Figures/87-C-20-4.bmp\",\"sa:saha\",\"Left\",\"39\",\"2\",\"16\",\"6A\",\"C2\",\"C\",\"32\"
\"\",\"\",\"approach-retreat\",\"36\",\"332941\",\"0.0-36.0\",\"\",\"\",\"1-3\",\"4173\",\"39\",\"1\",\"Training\",\"Stims/Figures/85-C-20-2.bmp\",\"sasaza\",\"Left\",\"39\",\"3\",\"1\",\"6A\",\"C2\",\"C\",\"33\"
\"\",\"\",\"approach-retreat\",\"37\",\"338537\",\"0.0-37.0\",\"\",\"\",\"1-3\",\"4086\",\"39\",\"0\",\"Training\",\"Stims/Figures/128-J-10-3.bmp\",\"fashasha\",\"Left\",\"37\",\"3\",\"2\",\"6A\",\"C1\",\"C\",\"34\"
\"\",\"\",\"approach-retreat\",\"38\",\"344163\",\"0.0-38.0\",\"\",\"\",\"1-3\",\"4114\",\"40\",\"0\",\"Training\",\"Stims/Figures/87-J-10-4.bmp\",\"va:sha:sha\",\"Up\",\"38\",\"3\",\"3\",\"6A\",\"C1\",\"C\",\"35\"
\"\",\"\",\"approach-retreat\",\"39\",\"349789\",\"0.0-39.0\",\"\",\"\",\"1-3\",\"4111\",\"38\",\"1\",\"Training\",\"Stims/Figures/57-C-30-1.bmp\",\"sa:haha\",\"Down\",\"38\",\"3\",\"4\",\"6A\",\"C2\",\"C\",\"36\"
\"\",\"\",\"approach-retreat\",\"40\",\"355468\",\"0.0-40.0\",\"\",\"\",\"1-3\",\"4170\",\"38\",\"1\",\"Training\",\"Stims/Figures/57-J-0-1.bmp\",\"fafava\",\"Up\",\"38\",\"3\",\"5\",\"6A\",\"C1\",\"C\",\"37\"
\"\",\"\",\"approach-retreat\",\"41\",\"361334\",\"0.0-41.0\",\"\",\"\",\"1-3\",\"4353\",\"39\",\"0\",\"Training\",\"Stims/Figures/100-C-30-3.bmp\",\"zaha:za\",\"Right\",\"37\",\"3\",\"6\",\"6A\",\"C2\",\"C\",\"38\"
\"\",\"\",\"approach-retreat\",\"42\",\"367581\",\"0.0-42.0\",\"\",\"\",\"1-3\",\"4736\",\"40\",\"0\",\"Training\",\"Stims/Figures/7-J-10-4.bmp\",\"va:fa:sha\",\"Up\",\"38\",\"3\",\"7\",\"6A\",\"C1\",\"C\",\"39\"
\"\",\"\",\"approach-retreat\",\"43\",\"373616\",\"0.0-43.0\",\"\",\"\",\"1-3\",\"4525\",\"39\",\"0\",\"Training\",\"Stims/Figures/139-C-20-2.bmp\",\"zahaha\",\"Right\",\"37\",\"3\",\"8\",\"6A\",\"C2\",\"C\",\"40\"
\"\",\"\",\"approach-retreat\",\"44\",\"379464\",\"0.0-44.0\",\"\",\"\",\"1-3\",\"4340\",\"39\",\"1\",\"Training\",\"Stims/Figures/139-J-0-2.bmp\",\"vafava\",\"Right\",\"39\",\"3\",\"9\",\"6A\",\"C1\",\"C\",\"41\"
\"\",\"\",\"approach-retreat\",\"45\",\"384951\",\"0.0-45.0\",\"\",\"\",\"1-3\",\"3975\",\"37\",\"0\",\"Training\",\"Stims/Figures/87-C-20-4.bmp\",\"sa:saha\",\"Left\",\"39\",\"3\",\"10\",\"6A\",\"C2\",\"C\",\"42\"
\"\",\"\",\"approach-retreat\",\"46\",\"390597\",\"0.0-46.0\",\"\",\"\",\"1-3\",\"4140\",\"38\",\"1\",\"Training\",\"Stims/Figures/7-C-20-4.bmp\",\"zaha:ha\",\"Down\",\"38\",\"3\",\"11\",\"6A\",\"C2\",\"C\",\"43\"
\"\",\"\",\"approach-retreat\",\"47\",\"396119\",\"0.0-47.0\",\"\",\"\",\"1-3\",\"4010\",\"37\",\"0\",\"Training\",\"Stims/Figures/93-C-30-1.bmp\",\"sahaza\",\"Left\",\"39\",\"3\",\"12\",\"6A\",\"C2\",\"C\",\"44\"
\"\",\"\",\"approach-retreat\",\"48\",\"401775\",\"0.0-48.0\",\"\",\"\",\"1-3\",\"4145\",\"38\",\"1\",\"Training\",\"Stims/Figures/85-J-0-2.bmp\",\"fafa:va\",\"Up\",\"38\",\"3\",\"13\",\"6A\",\"C1\",\"C\",\"45\"
\"\",\"\",\"approach-retreat\",\"49\",\"407900\",\"0.0-49.0\",\"\",\"\",\"1-3\",\"4617\",\"37\",\"1\",\"Training\",\"Stims/Figures/128-C-30-3.bmp\",\"za:haha\",\"Right\",\"37\",\"3\",\"14\",\"6A\",\"C2\",\"C\",\"46\"
\"\",\"\",\"approach-retreat\",\"50\",\"413737\",\"0.0-50.0\",\"\",\"\",\"1-3\",\"4326\",\"40\",\"1\",\"Training\",\"Stims/Figures/100-J-10-3.bmp\",\"vasha:va\",\"Down\",\"40\",\"3\",\"15\",\"6A\",\"C1\",\"C\",\"47\"
\"\",\"\",\"approach-retreat\",\"51\",\"419378\",\"0.0-51.0\",\"\",\"\",\"1-3\",\"4128\",\"40\",\"1\",\"Training\",\"Stims/Figures/93-J-0-1.bmp\",\"fasha:va\",\"Down\",\"40\",\"3\",\"16\",\"6A\",\"C1\",\"C\",\"48\"
\"\",\"\",\"approach-retreat\",\"52\",\"425001\",\"0.0-52.0\",\"\",\"\",\"1-3\",\"4114\",\"38\",\"1\",\"Training\",\"Stims/Figures/128-C-30-3.bmp\",\"za:haha\",\"Down\",\"38\",\"4\",\"1\",\"6A\",\"C2\",\"C\",\"49\"
\"\",\"\",\"approach-retreat\",\"53\",\"430761\",\"0.0-53.0\",\"\",\"\",\"1-3\",\"4248\",\"37\",\"0\",\"Training\",\"Stims/Figures/100-C-30-3.bmp\",\"zaha:za\",\"Left\",\"39\",\"4\",\"2\",\"6A\",\"C2\",\"C\",\"50\"
\"\",\"\",\"approach-retreat\",\"54\",\"436235\",\"0.0-54.0\",\"\",\"\",\"1-3\",\"3966\",\"37\",\"0\",\"Training\",\"Stims/Figures/87-C-20-4.bmp\",\"sa:saha\",\"Left\",\"39\",\"4\",\"3\",\"6A\",\"C2\",\"C\",\"51\"
\"\",\"\",\"approach-retreat\",\"55\",\"442243\",\"0.0-55.0\",\"\",\"\",\"1-3\",\"4495\",\"37\",\"0\",\"Training\",\"Stims/Figures/7-J-10-4.bmp\",\"va:fa:sha\",\"Right\",\"39\",\"4\",\"4\",\"6A\",\"C1\",\"C\",\"52\"
\"\",\"\",\"approach-retreat\",\"56\",\"447994\",\"0.0-56.0\",\"\",\"\",\"1-3\",\"4243\",\"38\",\"0\",\"Training\",\"Stims/Figures/7-C-20-4.bmp\",\"zaha:ha\",\"Up\",\"40\",\"4\",\"5\",\"6A\",\"C2\",\"C\",\"53\"
\"\",\"\",\"approach-retreat\",\"57\",\"453744\",\"0.0-57.0\",\"\",\"\",\"1-3\",\"4242\",\"38\",\"0\",\"Training\",\"Stims/Figures/93-C-30-1.bmp\",\"sahaza\",\"Up\",\"40\",\"4\",\"6\",\"6A\",\"C2\",\"C\",\"54\"
\"\",\"\",\"approach-retreat\",\"58\",\"459430\",\"0.0-58.0\",\"\",\"\",\"1-3\",\"4177\",\"38\",\"0\",\"Training\",\"Stims/Figures/85-C-20-2.bmp\",\"sasaza\",\"Up\",\"40\",\"4\",\"7\",\"6A\",\"C2\",\"C\",\"55\"
\"\",\"\",\"approach-retreat\",\"59\",\"465127\",\"0.0-59.0\",\"\",\"\",\"1-3\",\"4185\",\"37\",\"1\",\"Training\",\"Stims/Figures/57-J-0-1.bmp\",\"fafava\",\"Left\",\"37\",\"4\",\"8\",\"6A\",\"C1\",\"C\",\"56\"
\"\",\"\",\"approach-retreat\",\"60\",\"470753\",\"0.0-60.0\",\"\",\"\",\"1-3\",\"4118\",\"38\",\"0\",\"Training\",\"Stims/Figures/85-J-0-2.bmp\",\"fafa:va\",\"Down\",\"40\",\"4\",\"9\",\"6A\",\"C1\",\"C\",\"57\"
\"\",\"\",\"approach-retreat\",\"61\",\"476728\",\"0.0-61.0\",\"\",\"\",\"1-3\",\"4466\",\"40\",\"1\",\"Training\",\"Stims/Figures/57-C-30-1.bmp\",\"sa:haha\",\"Up\",\"40\",\"4\",\"10\",\"6A\",\"C2\",\"C\",\"58\"
\"\",\"\",\"approach-retreat\",\"62\",\"482729\",\"0.0-62.0\",\"\",\"\",\"1-3\",\"4491\",\"39\",\"1\",\"Training\",\"Stims/Figures/139-J-0-2.bmp\",\"vafava\",\"Right\",\"39\",\"4\",\"11\",\"6A\",\"C1\",\"C\",\"59\"
\"\",\"\",\"approach-retreat\",\"63\",\"488820\",\"0.0-63.0\",\"\",\"\",\"1-3\",\"4582\",\"37\",\"0\",\"Training\",\"Stims/Figures/139-C-20-2.bmp\",\"zahaha\",\"Left\",\"39\",\"4\",\"12\",\"6A\",\"C2\",\"C\",\"60\"
\"\",\"\",\"approach-retreat\",\"64\",\"494497\",\"0.0-64.0\",\"\",\"\",\"1-3\",\"4167\",\"39\",\"1\",\"Training\",\"Stims/Figures/93-J-0-1.bmp\",\"fasha:va\",\"Right\",\"39\",\"4\",\"13\",\"6A\",\"C1\",\"C\",\"61\"
\"\",\"\",\"approach-retreat\",\"65\",\"500106\",\"0.0-65.0\",\"\",\"\",\"1-3\",\"4102\",\"40\",\"1\",\"Training\",\"Stims/Figures/87-J-10-4.bmp\",\"va:sha:sha\",\"Down\",\"40\",\"4\",\"14\",\"6A\",\"C1\",\"C\",\"62\"
\"\",\"\",\"approach-retreat\",\"66\",\"505711\",\"0.0-66.0\",\"\",\"\",\"1-3\",\"4091\",\"39\",\"1\",\"Training\",\"Stims/Figures/128-J-10-3.bmp\",\"fashasha\",\"Right\",\"39\",\"4\",\"15\",\"6A\",\"C1\",\"C\",\"63\"
\"\",\"\",\"approach-retreat\",\"67\",\"511283\",\"0.0-67.0\",\"\",\"\",\"1-3\",\"4067\",\"38\",\"0\",\"Training\",\"Stims/Figures/100-J-10-3.bmp\",\"vasha:va\",\"Down\",\"40\",\"4\",\"16\",\"6A\",\"C1\",\"C\",\"64\"
\"\",\"\",\"approach-retreat\",\"68\",\"516779\",\"0.0-68.0\",\"\",\"\",\"1-3\",\"3985\",\"39\",\"1\",\"Training\",\"Stims/Figures/7-J-10-4.bmp\",\"va:fa:sha\",\"Right\",\"39\",\"5\",\"1\",\"6A\",\"C1\",\"C\",\"65\"
\"\",\"\",\"approach-retreat\",\"69\",\"523486\",\"0.0-69.0\",\"\",\"\",\"1-3\",\"5197\",\"38\",\"1\",\"Training\",\"Stims/Figures/87-C-20-4.bmp\",\"sa:saha\",\"Down\",\"38\",\"5\",\"2\",\"6A\",\"C2\",\"C\",\"66\"
\"\",\"\",\"approach-retreat\",\"70\",\"529128\",\"0.0-70.0\",\"\",\"\",\"1-3\",\"4131\",\"37\",\"1\",\"Training\",\"Stims/Figures/128-J-10-3.bmp\",\"fashasha\",\"Left\",\"37\",\"5\",\"3\",\"6A\",\"C1\",\"C\",\"67\"
\"\",\"\",\"approach-retreat\",\"71\",\"535123\",\"0.0-71.0\",\"\",\"\",\"1-3\",\"4489\",\"38\",\"0\",\"Training\",\"Stims/Figures/7-C-20-4.bmp\",\"zaha:ha\",\"Up\",\"40\",\"5\",\"4\",\"6A\",\"C2\",\"C\",\"68\"
\"\",\"\",\"approach-retreat\",\"72\",\"540662\",\"0.0-72.0\",\"\",\"\",\"1-3\",\"4033\",\"40\",\"0\",\"Training\",\"Stims/Figures/57-C-30-1.bmp\",\"sa:haha\",\"Down\",\"38\",\"5\",\"5\",\"6A\",\"C2\",\"C\",\"69\"
\"\",\"\",\"approach-retreat\",\"73\",\"546307\",\"0.0-73.0\",\"\",\"\",\"1-3\",\"4136\",\"37\",\"1\",\"Training\",\"Stims/Figures/100-C-30-3.bmp\",\"zaha:za\",\"Right\",\"37\",\"5\",\"6\",\"6A\",\"C2\",\"C\",\"70\"
\"\",\"\",\"approach-retreat\",\"74\",\"551899\",\"0.0-74.0\",\"\",\"\",\"1-3\",\"4080\",\"38\",\"0\",\"Training\",\"Stims/Figures/128-C-30-3.bmp\",\"za:haha\",\"Up\",\"40\",\"5\",\"7\",\"6A\",\"C2\",\"C\",\"71\"
\"\",\"\",\"approach-retreat\",\"75\",\"557538\",\"0.0-75.0\",\"\",\"\",\"1-3\",\"4131\",\"37\",\"1\",\"Training\",\"Stims/Figures/93-J-0-1.bmp\",\"fasha:va\",\"Left\",\"37\",\"5\",\"8\",\"6A\",\"C1\",\"C\",\"72\"
\"\",\"\",\"approach-retreat\",\"76\",\"563493\",\"0.0-76.0\",\"\",\"\",\"1-3\",\"4439\",\"39\",\"0\",\"Training\",\"Stims/Figures/85-C-20-2.bmp\",\"sasaza\",\"Right\",\"37\",\"5\",\"9\",\"6A\",\"C2\",\"C\",\"73\"
\"\",\"\",\"approach-retreat\",\"77\",\"569036\",\"0.0-77.0\",\"\",\"\",\"1-3\",\"4038\",\"38\",\"1\",\"Training\",\"Stims/Figures/87-J-10-4.bmp\",\"va:sha:sha\",\"Up\",\"38\",\"5\",\"10\",\"6A\",\"C1\",\"C\",\"74\"
\"\",\"\",\"approach-retreat\",\"78\",\"574701\",\"0.0-78.0\",\"\",\"\",\"1-3\",\"4159\",\"40\",\"1\",\"Training\",\"Stims/Figures/57-J-0-1.bmp\",\"fafava\",\"Down\",\"40\",\"5\",\"11\",\"6A\",\"C1\",\"C\",\"75\"
\"\",\"\",\"approach-retreat\",\"79\",\"580355\",\"0.0-79.0\",\"\",\"\",\"1-3\",\"4146\",\"40\",\"1\",\"Training\",\"Stims/Figures/100-J-10-3.bmp\",\"vasha:va\",\"Down\",\"40\",\"5\",\"12\",\"6A\",\"C1\",\"C\",\"76\"
\"\",\"\",\"approach-retreat\",\"80\",\"586016\",\"0.0-80.0\",\"\",\"\",\"1-3\",\"4150\",\"39\",\"1\",\"Training\",\"Stims/Figures/139-C-20-2.bmp\",\"zahaha\",\"Left\",\"39\",\"5\",\"13\",\"6A\",\"C2\",\"C\",\"77\"
\"\",\"\",\"approach-retreat\",\"81\",\"591991\",\"0.0-81.0\",\"\",\"\",\"1-3\",\"4468\",\"38\",\"1\",\"Training\",\"Stims/Figures/85-J-0-2.bmp\",\"fafa:va\",\"Up\",\"38\",\"5\",\"14\",\"6A\",\"C1\",\"C\",\"78\"
\"\",\"\",\"approach-retreat\",\"82\",\"597682\",\"0.0-82.0\",\"\",\"\",\"1-3\",\"4179\",\"37\",\"1\",\"Training\",\"Stims/Figures/93-C-30-1.bmp\",\"sahaza\",\"Right\",\"37\",\"5\",\"15\",\"6A\",\"C2\",\"C\",\"79\"
\"\",\"\",\"approach-retreat\",\"83\",\"603432\",\"0.0-83.0\",\"\",\"\",\"1-3\",\"4239\",\"37\",\"1\",\"Training\",\"Stims/Figures/139-J-0-2.bmp\",\"vafava\",\"Left\",\"37\",\"5\",\"16\",\"6A\",\"C1\",\"C\",\"80\"
\"\",\"\",\"approach-retreat\",\"84\",\"609083\",\"0.0-84.0\",\"\",\"\",\"1-3\",\"4146\",\"39\",\"1\",\"Training\",\"Stims/Figures/100-J-10-3.bmp\",\"vasha:va\",\"Right\",\"39\",\"6\",\"1\",\"6A\",\"C1\",\"C\",\"81\"
\"\",\"\",\"approach-retreat\",\"85\",\"614802\",\"0.0-85.0\",\"\",\"\",\"1-3\",\"4210\",\"38\",\"0\",\"Training\",\"Stims/Figures/93-J-0-1.bmp\",\"fasha:va\",\"Down\",\"40\",\"6\",\"2\",\"6A\",\"C1\",\"C\",\"82\"
\"\",\"\",\"approach-retreat\",\"86\",\"620606\",\"0.0-86.0\",\"\",\"\",\"1-3\",\"4296\",\"39\",\"1\",\"Training\",\"Stims/Figures/7-J-10-4.bmp\",\"va:fa:sha\",\"Right\",\"39\",\"6\",\"3\",\"6A\",\"C1\",\"C\",\"83\"
\"\",\"\",\"approach-retreat\",\"87\",\"626192\",\"0.0-87.0\",\"\",\"\",\"1-3\",\"4081\",\"38\",\"0\",\"Training\",\"Stims/Figures/128-J-10-3.bmp\",\"fashasha\",\"Down\",\"40\",\"6\",\"4\",\"6A\",\"C1\",\"C\",\"84\"
\"\",\"\",\"approach-retreat\",\"88\",\"631933\",\"0.0-88.0\",\"\",\"\",\"1-3\",\"4233\",\"38\",\"0\",\"Training\",\"Stims/Figures/7-C-20-4.bmp\",\"zaha:ha\",\"Up\",\"40\",\"6\",\"5\",\"6A\",\"C2\",\"C\",\"85\"
\"\",\"\",\"approach-retreat\",\"89\",\"637608\",\"0.0-89.0\",\"\",\"\",\"1-3\",\"4170\",\"39\",\"0\",\"Training\",\"Stims/Figures/87-C-20-4.bmp\",\"sa:saha\",\"Right\",\"37\",\"6\",\"6\",\"6A\",\"C2\",\"C\",\"86\"
\"\",\"\",\"approach-retreat\",\"90\",\"643371\",\"0.0-90.0\",\"\",\"\",\"1-3\",\"4254\",\"40\",\"1\",\"Training\",\"Stims/Figures/93-C-30-1.bmp\",\"sahaza\",\"Up\",\"40\",\"6\",\"7\",\"6A\",\"C2\",\"C\",\"87\"
\"\",\"\",\"approach-retreat\",\"91\",\"649001\",\"0.0-91.0\",\"\",\"\",\"1-3\",\"4119\",\"37\",\"1\",\"Training\",\"Stims/Figures/57-C-30-1.bmp\",\"sa:haha\",\"Right\",\"37\",\"6\",\"8\",\"6A\",\"C2\",\"C\",\"88\"
\"\",\"\",\"approach-retreat\",\"92\",\"654644\",\"0.0-92.0\",\"\",\"\",\"1-3\",\"4135\",\"37\",\"1\",\"Training\",\"Stims/Figures/85-J-0-2.bmp\",\"fafa:va\",\"Left\",\"37\",\"6\",\"9\",\"6A\",\"C1\",\"C\",\"89\"
\"\",\"\",\"approach-retreat\",\"93\",\"660244\",\"0.0-93.0\",\"\",\"\",\"1-3\",\"4089\",\"39\",\"1\",\"Training\",\"Stims/Figures/128-C-30-3.bmp\",\"za:haha\",\"Left\",\"39\",\"6\",\"10\",\"6A\",\"C2\",\"C\",\"90\"
\"\",\"\",\"approach-retreat\",\"94\",\"665916\",\"0.0-94.0\",\"\",\"\",\"1-3\",\"4161\",\"39\",\"0\",\"Training\",\"Stims/Figures/87-J-10-4.bmp\",\"va:sha:sha\",\"Left\",\"37\",\"6\",\"11\",\"6A\",\"C1\",\"C\",\"91\"
\"\",\"\",\"approach-retreat\",\"95\",\"671586\",\"0.0-95.0\",\"\",\"\",\"1-3\",\"4162\",\"38\",\"1\",\"Training\",\"Stims/Figures/85-C-20-2.bmp\",\"sasaza\",\"Down\",\"38\",\"6\",\"12\",\"6A\",\"C2\",\"C\",\"92\"
\"\",\"\",\"approach-retreat\",\"96\",\"678263\",\"0.0-96.0\",\"\",\"\",\"1-3\",\"5167\",\"40\",\"1\",\"Training\",\"Stims/Figures/100-C-30-3.bmp\",\"zaha:za\",\"Up\",\"40\",\"6\",\"13\",\"6A\",\"C2\",\"C\",\"93\"
\"\",\"\",\"approach-retreat\",\"97\",\"684055\",\"0.0-97.0\",\"\",\"\",\"1-3\",\"4285\",\"40\",\"1\",\"Training\",\"Stims/Figures/57-J-0-1.bmp\",\"fafava\",\"Down\",\"40\",\"6\",\"14\",\"6A\",\"C1\",\"C\",\"94\"
\"\",\"\",\"approach-retreat\",\"98\",\"689601\",\"0.0-98.0\",\"\",\"\",\"1-3\",\"4034\",\"38\",\"1\",\"Training\",\"Stims/Figures/139-J-0-2.bmp\",\"vafava\",\"Up\",\"38\",\"6\",\"15\",\"6A\",\"C1\",\"C\",\"95\"
\"\",\"\",\"approach-retreat\",\"99\",\"695503\",\"0.0-99.0\",\"\",\"\",\"1-3\",\"4394\",\"39\",\"1\",\"Training\",\"Stims/Figures/139-C-20-2.bmp\",\"zahaha\",\"Left\",\"39\",\"6\",\"16\",\"6A\",\"C2\",\"C\",\"96\"
\"\",\"\",\"approach-retreat\",\"100\",\"702557\",\"0.0-100.0\",\"\",\"\",\"1-3\",\"5546\",\"39\",\"1\",\"Training\",\"Stims/Figures/7-J-10-4.bmp\",\"va:fa:sha\",\"Right\",\"39\",\"7\",\"1\",\"6A\",\"C1\",\"C\",\"97\"
\"\",\"\",\"approach-retreat\",\"101\",\"708223\",\"0.0-101.0\",\"\",\"\",\"1-3\",\"4155\",\"37\",\"1\",\"Training\",\"Stims/Figures/100-J-10-3.bmp\",\"vasha:va\",\"Left\",\"37\",\"7\",\"2\",\"6A\",\"C1\",\"C\",\"98\"
\"\",\"\",\"approach-retreat\",\"102\",\"713821\",\"0.0-102.0\",\"\",\"\",\"1-3\",\"4087\",\"40\",\"1\",\"Training\",\"Stims/Figures/87-C-20-4.bmp\",\"sa:saha\",\"Up\",\"40\",\"7\",\"3\",\"6A\",\"C2\",\"C\",\"99\"
\"\",\"\",\"approach-retreat\",\"103\",\"719443\",\"0.0-103.0\",\"\",\"\",\"1-3\",\"4114\",\"37\",\"1\",\"Training\",\"Stims/Figures/139-J-0-2.bmp\",\"vafava\",\"Left\",\"37\",\"7\",\"4\",\"6A\",\"C1\",\"C\",\"100\"
\"\",\"\",\"approach-retreat\",\"104\",\"725019\",\"0.0-104.0\",\"\",\"\",\"1-3\",\"4065\",\"40\",\"1\",\"Training\",\"Stims/Figures/128-C-30-3.bmp\",\"za:haha\",\"Up\",\"40\",\"7\",\"5\",\"6A\",\"C2\",\"C\",\"101\"
\"\",\"\",\"approach-retreat\",\"105\",\"730526\",\"0.0-105.0\",\"\",\"\",\"1-3\",\"3998\",\"37\",\"1\",\"Training\",\"Stims/Figures/85-C-20-2.bmp\",\"sasaza\",\"Right\",\"37\",\"7\",\"6\",\"6A\",\"C2\",\"C\",\"102\"
\"\",\"\",\"approach-retreat\",\"106\",\"736126\",\"0.0-106.0\",\"\",\"\",\"1-3\",\"4088\",\"38\",\"1\",\"Training\",\"Stims/Figures/7-C-20-4.bmp\",\"zaha:ha\",\"Down\",\"38\",\"7\",\"7\",\"6A\",\"C2\",\"C\",\"103\"
\"\",\"\",\"approach-retreat\",\"107\",\"741722\",\"0.0-107.0\",\"\",\"\",\"1-3\",\"4086\",\"38\",\"1\",\"Training\",\"Stims/Figures/100-C-30-3.bmp\",\"zaha:za\",\"Down\",\"38\",\"7\",\"8\",\"6A\",\"C2\",\"C\",\"104\"
\"\",\"\",\"approach-retreat\",\"108\",\"747251\",\"0.0-108.0\",\"\",\"\",\"1-3\",\"4024\",\"39\",\"1\",\"Training\",\"Stims/Figures/93-C-30-1.bmp\",\"sahaza\",\"Left\",\"39\",\"7\",\"9\",\"6A\",\"C2\",\"C\",\"105\"
\"\",\"\",\"approach-retreat\",\"109\",\"752757\",\"0.0-109.0\",\"\",\"\",\"1-3\",\"3997\",\"38\",\"1\",\"Training\",\"Stims/Figures/139-C-20-2.bmp\",\"zahaha\",\"Down\",\"38\",\"7\",\"10\",\"6A\",\"C2\",\"C\",\"106\"
\"\",\"\",\"approach-retreat\",\"110\",\"758346\",\"0.0-110.0\",\"\",\"\",\"1-3\",\"4084\",\"37\",\"1\",\"Training\",\"Stims/Figures/85-J-0-2.bmp\",\"fafa:va\",\"Left\",\"37\",\"7\",\"11\",\"6A\",\"C1\",\"C\",\"107\"
\"\",\"\",\"approach-retreat\",\"111\",\"764041\",\"0.0-111.0\",\"\",\"\",\"1-3\",\"4182\",\"39\",\"1\",\"Training\",\"Stims/Figures/57-J-0-1.bmp\",\"fafava\",\"Right\",\"39\",\"7\",\"12\",\"6A\",\"C1\",\"C\",\"108\"
\"\",\"\",\"approach-retreat\",\"112\",\"769680\",\"0.0-112.0\",\"\",\"\",\"1-3\",\"4126\",\"40\",\"1\",\"Training\",\"Stims/Figures/93-J-0-1.bmp\",\"fasha:va\",\"Down\",\"40\",\"7\",\"13\",\"6A\",\"C1\",\"C\",\"109\"
\"\",\"\",\"approach-retreat\",\"113\",\"775315\",\"0.0-113.0\",\"\",\"\",\"1-3\",\"4121\",\"40\",\"0\",\"Training\",\"Stims/Figures/87-J-10-4.bmp\",\"va:sha:sha\",\"Up\",\"38\",\"7\",\"14\",\"6A\",\"C1\",\"C\",\"110\"
\"\",\"\",\"approach-retreat\",\"114\",\"780924\",\"0.0-114.0\",\"\",\"\",\"1-3\",\"4100\",\"37\",\"0\",\"Training\",\"Stims/Figures/128-J-10-3.bmp\",\"fashasha\",\"Right\",\"39\",\"7\",\"15\",\"6A\",\"C1\",\"C\",\"111\"
\"\",\"\",\"approach-retreat\",\"115\",\"786474\",\"0.0-115.0\",\"\",\"\",\"1-3\",\"4043\",\"40\",\"1\",\"Training\",\"Stims/Figures/57-C-30-1.bmp\",\"sa:haha\",\"Up\",\"40\",\"7\",\"16\",\"6A\",\"C2\",\"C\",\"112\"
\"\",\"\",\"approach-retreat\",\"116\",\"792407\",\"0.0-116.0\",\"\",\"\",\"1-3\",\"4422\",\"40\",\"1\",\"Training\",\"Stims/Figures/128-J-10-3.bmp\",\"fashasha\",\"Down\",\"40\",\"8\",\"1\",\"6A\",\"C1\",\"C\",\"113\"
\"\",\"\",\"approach-retreat\",\"117\",\"798197\",\"0.0-117.0\",\"\",\"\",\"1-3\",\"4284\",\"37\",\"1\",\"Training\",\"Stims/Figures/87-J-10-4.bmp\",\"va:sha:sha\",\"Left\",\"37\",\"8\",\"2\",\"6A\",\"C1\",\"C\",\"114\"
\"\",\"\",\"approach-retreat\",\"118\",\"803745\",\"0.0-118.0\",\"\",\"\",\"1-3\",\"4042\",\"38\",\"1\",\"Training\",\"Stims/Figures/85-C-20-2.bmp\",\"sasaza\",\"Down\",\"38\",\"8\",\"3\",\"6A\",\"C2\",\"C\",\"115\"
\"\",\"\",\"approach-retreat\",\"119\",\"809582\",\"0.0-119.0\",\"\",\"\",\"1-3\",\"4326\",\"40\",\"1\",\"Training\",\"Stims/Figures/100-C-30-3.bmp\",\"zaha:za\",\"Up\",\"40\",\"8\",\"4\",\"6A\",\"C2\",\"C\",\"116\"
\"\",\"\",\"approach-retreat\",\"120\",\"815697\",\"0.0-120.0\",\"\",\"\",\"1-3\",\"4607\",\"37\",\"1\",\"Training\",\"Stims/Figures/93-C-30-1.bmp\",\"sahaza\",\"Right\",\"37\",\"8\",\"5\",\"6A\",\"C2\",\"C\",\"117\"
\"\",\"\",\"approach-retreat\",\"121\",\"821397\",\"0.0-121.0\",\"\",\"\",\"1-3\",\"4189\",\"40\",\"1\",\"Training\",\"Stims/Figures/87-C-20-4.bmp\",\"sa:saha\",\"Up\",\"40\",\"8\",\"6\",\"6A\",\"C2\",\"C\",\"118\"
\"\",\"\",\"approach-retreat\",\"122\",\"826980\",\"0.0-122.0\",\"\",\"\",\"1-3\",\"4072\",\"40\",\"1\",\"Training\",\"Stims/Figures/7-C-20-4.bmp\",\"zaha:ha\",\"Up\",\"40\",\"8\",\"7\",\"6A\",\"C2\",\"C\",\"119\"
\"\",\"\",\"approach-retreat\",\"123\",\"832603\",\"0.0-123.0\",\"\",\"\",\"1-3\",\"4110\",\"39\",\"1\",\"Training\",\"Stims/Figures/7-J-10-4.bmp\",\"va:fa:sha\",\"Right\",\"39\",\"8\",\"8\",\"6A\",\"C1\",\"C\",\"120\"
\"\",\"\",\"approach-retreat\",\"124\",\"838461\",\"0.0-124.0\",\"\",\"\",\"1-3\",\"4355\",\"37\",\"1\",\"Training\",\"Stims/Figures/85-J-0-2.bmp\",\"fafa:va\",\"Left\",\"37\",\"8\",\"9\",\"6A\",\"C1\",\"C\",\"121\"
\"\",\"\",\"approach-retreat\",\"125\",\"844365\",\"0.0-125.0\",\"\",\"\",\"1-3\",\"4396\",\"37\",\"1\",\"Training\",\"Stims/Figures/139-C-20-2.bmp\",\"zahaha\",\"Right\",\"37\",\"8\",\"10\",\"6A\",\"C2\",\"C\",\"122\"
\"\",\"\",\"approach-retreat\",\"126\",\"850030\",\"0.0-126.0\",\"\",\"\",\"1-3\",\"4157\",\"39\",\"1\",\"Training\",\"Stims/Figures/128-C-30-3.bmp\",\"za:haha\",\"Left\",\"39\",\"8\",\"11\",\"6A\",\"C2\",\"C\",\"123\"
\"\",\"\",\"approach-retreat\",\"127\",\"855660\",\"0.0-127.0\",\"\",\"\",\"1-3\",\"4124\",\"38\",\"1\",\"Training\",\"Stims/Figures/93-J-0-1.bmp\",\"fasha:va\",\"Up\",\"38\",\"8\",\"12\",\"6A\",\"C1\",\"C\",\"124\"
\"\",\"\",\"approach-retreat\",\"128\",\"861260\",\"0.0-128.0\",\"\",\"\",\"1-3\",\"4089\",\"40\",\"1\",\"Training\",\"Stims/Figures/57-J-0-1.bmp\",\"fafava\",\"Down\",\"40\",\"8\",\"13\",\"6A\",\"C1\",\"C\",\"125\"
\"\",\"\",\"approach-retreat\",\"129\",\"866965\",\"0.0-129.0\",\"\",\"\",\"1-3\",\"4194\",\"37\",\"1\",\"Training\",\"Stims/Figures/139-J-0-2.bmp\",\"vafava\",\"Left\",\"37\",\"8\",\"14\",\"6A\",\"C1\",\"C\",\"126\"
\"\",\"\",\"approach-retreat\",\"130\",\"874300\",\"0.0-130.0\",\"\",\"\",\"1-3\",\"5827\",\"40\",\"1\",\"Training\",\"Stims/Figures/100-J-10-3.bmp\",\"vasha:va\",\"Down\",\"40\",\"8\",\"15\",\"6A\",\"C1\",\"C\",\"127\"
\"\",\"\",\"approach-retreat\",\"131\",\"879904\",\"0.0-131.0\",\"\",\"\",\"1-3\",\"4095\",\"37\",\"1\",\"Training\",\"Stims/Figures/57-C-30-1.bmp\",\"sa:haha\",\"Right\",\"37\",\"8\",\"16\",\"6A\",\"C2\",\"C\",\"128\"
\"\",\"\",\"approach-retreat\",\"132\",\"885927\",\"0.0-132.0\",\"\",\"\",\"1-3\",\"4517\",\"37\",\"1\",\"Training\",\"Stims/Figures/139-J-0-2.bmp\",\"vafava\",\"Left\",\"37\",\"9\",\"1\",\"6A\",\"C1\",\"C\",\"129\"
\"\",\"\",\"approach-retreat\",\"133\",\"891922\",\"0.0-133.0\",\"\",\"\",\"1-3\",\"4484\",\"40\",\"1\",\"Training\",\"Stims/Figures/85-J-0-2.bmp\",\"fafa:va\",\"Down\",\"40\",\"9\",\"2\",\"6A\",\"C1\",\"C\",\"130\"
\"\",\"\",\"approach-retreat\",\"134\",\"897389\",\"0.0-134.0\",\"\",\"\",\"1-3\",\"3959\",\"37\",\"1\",\"Training\",\"Stims/Figures/139-C-20-2.bmp\",\"zahaha\",\"Right\",\"37\",\"9\",\"3\",\"6A\",\"C2\",\"C\",\"131\"
\"\",\"\",\"approach-retreat\",\"135\",\"904382\",\"0.0-135.0\",\"\",\"\",\"1-3\",\"5485\",\"37\",\"1\",\"Training\",\"Stims/Figures/85-C-20-2.bmp\",\"sasaza\",\"Right\",\"37\",\"9\",\"4\",\"6A\",\"C2\",\"C\",\"132\"
\"\",\"\",\"approach-retreat\",\"136\",\"909997\",\"0.0-136.0\",\"\",\"\",\"1-3\",\"4108\",\"39\",\"1\",\"Training\",\"Stims/Figures/100-C-30-3.bmp\",\"zaha:za\",\"Left\",\"39\",\"9\",\"5\",\"6A\",\"C2\",\"C\",\"133\"
\"\",\"\",\"approach-retreat\",\"137\",\"915625\",\"0.0-137.0\",\"\",\"\",\"1-3\",\"4118\",\"38\",\"1\",\"Training\",\"Stims/Figures/87-C-20-4.bmp\",\"sa:saha\",\"Down\",\"38\",\"9\",\"6\",\"6A\",\"C2\",\"C\",\"134\"
\"\",\"\",\"approach-retreat\",\"138\",\"921693\",\"0.0-138.0\",\"\",\"\",\"1-3\",\"4557\",\"38\",\"1\",\"Training\",\"Stims/Figures/100-J-10-3.bmp\",\"vasha:va\",\"Up\",\"38\",\"9\",\"7\",\"6A\",\"C1\",\"C\",\"135\"
\"\",\"\",\"approach-retreat\",\"139\",\"927374\",\"0.0-139.0\",\"\",\"\",\"1-3\",\"4175\",\"40\",\"1\",\"Training\",\"Stims/Figures/93-C-30-1.bmp\",\"sahaza\",\"Up\",\"40\",\"9\",\"8\",\"6A\",\"C2\",\"C\",\"136\"
\"\",\"\",\"approach-retreat\",\"140\",\"932929\",\"0.0-140.0\",\"\",\"\",\"1-3\",\"4052\",\"40\",\"1\",\"Training\",\"Stims/Figures/57-J-0-1.bmp\",\"fafava\",\"Down\",\"40\",\"9\",\"9\",\"6A\",\"C1\",\"C\",\"137\"
\"\",\"\",\"approach-retreat\",\"141\",\"938526\",\"0.0-141.0\",\"\",\"\",\"1-3\",\"4088\",\"40\",\"1\",\"Training\",\"Stims/Figures/57-C-30-1.bmp\",\"sa:haha\",\"Up\",\"40\",\"9\",\"10\",\"6A\",\"C2\",\"C\",\"138\"
\"\",\"\",\"approach-retreat\",\"142\",\"944250\",\"0.0-142.0\",\"\",\"\",\"1-3\",\"4216\",\"39\",\"1\",\"Training\",\"Stims/Figures/93-J-0-1.bmp\",\"fasha:va\",\"Right\",\"39\",\"9\",\"11\",\"6A\",\"C1\",\"C\",\"139\"
\"\",\"\",\"approach-retreat\",\"143\",\"951280\",\"0.0-143.0\",\"\",\"\",\"1-3\",\"5518\",\"37\",\"0\",\"Training\",\"Stims/Figures/128-J-10-3.bmp\",\"fashasha\",\"Right\",\"39\",\"9\",\"12\",\"6A\",\"C1\",\"C\",\"140\"
\"\",\"\",\"approach-retreat\",\"144\",\"957793\",\"0.0-144.0\",\"\",\"\",\"1-3\",\"5003\",\"39\",\"1\",\"Training\",\"Stims/Figures/128-C-30-3.bmp\",\"za:haha\",\"Left\",\"39\",\"9\",\"13\",\"6A\",\"C2\",\"C\",\"141\"
\"\",\"\",\"approach-retreat\",\"145\",\"964233\",\"0.0-145.0\",\"\",\"\",\"1-3\",\"4931\",\"40\",\"1\",\"Training\",\"Stims/Figures/7-C-20-4.bmp\",\"zaha:ha\",\"Up\",\"40\",\"9\",\"14\",\"6A\",\"C2\",\"C\",\"142\"
\"\",\"\",\"approach-retreat\",\"146\",\"970375\",\"0.0-146.0\",\"\",\"\",\"1-3\",\"4634\",\"40\",\"1\",\"Training\",\"Stims/Figures/7-J-10-4.bmp\",\"va:fa:sha\",\"Down\",\"40\",\"9\",\"15\",\"6A\",\"C1\",\"C\",\"143\"
\"\",\"\",\"approach-retreat\",\"147\",\"976075\",\"0.0-147.0\",\"\",\"\",\"1-3\",\"4191\",\"37\",\"1\",\"Training\",\"Stims/Figures/87-J-10-4.bmp\",\"va:sha:sha\",\"Left\",\"37\",\"9\",\"16\",\"6A\",\"C1\",\"C\",\"144\"
\"20293\",\"\",\"instructions\",\"148\",\"996369\",\"0.0-148.0\",\"[{\"\"page_index\"\":0,\"\"viewing_time\"\":20293}]\",\"\",\"\",\"\",\"\",\"\",\"\",\"\",\"\",\"\",\"\",\"\",\"\",\"\",\"\",\"\",\"\"
\"\",\"\",\"approach-retreat\",\"149\",\"1002173\",\"0.0-149.0\",\"\",\"\",\"1-3\",\"4296\",\"40\",\"1\",\"Testing\",\"Stims/Figures/87-C-20-4.bmp\",\"sa:saha\",\"Up\",\"40\",\"1\",\"1\",\"6A\",\"C2\",\"C\",\"1\"
\"\",\"\",\"approach-retreat\",\"150\",\"1007859\",\"0.0-150.0\",\"\",\"\",\"1-3\",\"4179\",\"39\",\"1\",\"Testing\",\"Stims/Figures/44-C-30-3.bmp\",\"za:sa:za\",\"Left\",\"39\",\"1\",\"2\",\"6A\",\"C2\",\"C\",\"2\"
\"\",\"\",\"approach-retreat\",\"151\",\"1013430\",\"0.0-151.0\",\"\",\"\",\"1-3\",\"4067\",\"37\",\"1\",\"Testing\",\"Stims/Figures/85-J-0-2.bmp\",\"fafa:va\",\"Left\",\"37\",\"1\",\"3\",\"6A\",\"C1\",\"C\",\"3\"
\"\",\"\",\"approach-retreat\",\"152\",\"1018993\",\"0.0-152.0\",\"\",\"\",\"1-3\",\"4057\",\"39\",\"1\",\"Testing\",\"Stims/Figures/7-J-10-4.bmp\",\"va:fa:sha\",\"Right\",\"39\",\"1\",\"4\",\"6A\",\"C1\",\"C\",\"4\"
\"\",\"\",\"approach-retreat\",\"153\",\"1024507\",\"0.0-153.0\",\"\",\"\",\"1-3\",\"4006\",\"39\",\"1\",\"Testing\",\"Stims/Figures/7-C-20-4.bmp\",\"zaha:ha\",\"Left\",\"39\",\"1\",\"5\",\"6A\",\"C2\",\"C\",\"5\"
\"\",\"\",\"approach-retreat\",\"154\",\"1030176\",\"0.0-154.0\",\"\",\"\",\"1-3\",\"4160\",\"40\",\"0\",\"Testing\",\"Stims/Figures/118-C-20-2.bmp\",\"zasaza\",\"Down\",\"38\",\"1\",\"6\",\"6A\",\"C2\",\"C\",\"6\"
\"\",\"\",\"approach-retreat\",\"155\",\"1035893\",\"0.0-155.0\",\"\",\"\",\"1-3\",\"4210\",\"40\",\"1\",\"Testing\",\"Stims/Figures/74-J-10-4.bmp\",\"va:fa:va\",\"Down\",\"40\",\"1\",\"7\",\"6A\",\"C1\",\"C\",\"7\"
\"\",\"\",\"approach-retreat\",\"156\",\"1041656\",\"0.0-156.0\",\"\",\"\",\"1-3\",\"4254\",\"37\",\"1\",\"Testing\",\"Stims/Figures/44-J-10-3.bmp\",\"fa:fava\",\"Left\",\"37\",\"1\",\"8\",\"6A\",\"C1\",\"C\",\"8\"
\"\",\"\",\"approach-retreat\",\"157\",\"1047483\",\"0.0-157.0\",\"\",\"\",\"1-3\",\"4319\",\"38\",\"1\",\"Testing\",\"Stims/Figures/27-J-0-1.bmp\",\"va:fava\",\"Up\",\"38\",\"1\",\"9\",\"6A\",\"C1\",\"C\",\"9\"
\"\",\"\",\"approach-retreat\",\"158\",\"1053013\",\"0.0-158.0\",\"\",\"\",\"1-3\",\"4025\",\"37\",\"1\",\"Testing\",\"Stims/Figures/87-J-10-4.bmp\",\"va:sha:sha\",\"Left\",\"37\",\"1\",\"10\",\"6A\",\"C1\",\"C\",\"10\"
\"\",\"\",\"approach-retreat\",\"159\",\"1058586\",\"0.0-159.0\",\"\",\"\",\"1-3\",\"4064\",\"40\",\"1\",\"Testing\",\"Stims/Figures/85-C-20-2.bmp\",\"sasaza\",\"Up\",\"40\",\"1\",\"11\",\"6A\",\"C2\",\"C\",\"11\"
\"\",\"\",\"approach-retreat\",\"160\",\"1064141\",\"0.0-160.0\",\"\",\"\",\"1-3\",\"4043\",\"40\",\"1\",\"Testing\",\"Stims/Figures/128-C-30-3.bmp\",\"za:haha\",\"Up\",\"40\",\"1\",\"12\",\"6A\",\"C2\",\"C\",\"12\"
\"\",\"\",\"approach-retreat\",\"161\",\"1069726\",\"0.0-161.0\",\"\",\"\",\"1-3\",\"4079\",\"39\",\"1\",\"Testing\",\"Stims/Figures/139-C-20-2.bmp\",\"zahaha\",\"Left\",\"39\",\"1\",\"13\",\"6A\",\"C2\",\"C\",\"13\"
\"\",\"\",\"approach-retreat\",\"162\",\"1075493\",\"0.0-162.0\",\"\",\"\",\"1-3\",\"4258\",\"38\",\"1\",\"Testing\",\"Stims/Figures/118-J-0-2.bmp\",\"fa:sha:sha\",\"Up\",\"38\",\"1\",\"14\",\"6A\",\"C1\",\"C\",\"14\"
\"\",\"\",\"approach-retreat\",\"163\",\"1081497\",\"0.0-163.0\",\"\",\"\",\"1-3\",\"4492\",\"39\",\"1\",\"Testing\",\"Stims/Figures/57-J-0-1.bmp\",\"fafava\",\"Right\",\"39\",\"1\",\"15\",\"6A\",\"C1\",\"C\",\"15\"
\"\",\"\",\"approach-retreat\",\"164\",\"1087095\",\"0.0-164.0\",\"\",\"\",\"1-3\",\"4091\",\"40\",\"1\",\"Testing\",\"Stims/Figures/100-J-10-3.bmp\",\"vasha:va\",\"Down\",\"40\",\"1\",\"16\",\"6A\",\"C1\",\"C\",\"16\"
\"\",\"\",\"approach-retreat\",\"165\",\"1093015\",\"0.0-165.0\",\"\",\"\",\"1-3\",\"4411\",\"37\",\"1\",\"Testing\",\"Stims/Figures/93-C-30-1.bmp\",\"sahaza\",\"Right\",\"37\",\"1\",\"17\",\"6A\",\"C2\",\"C\",\"17\"
\"\",\"\",\"approach-retreat\",\"166\",\"1098671\",\"0.0-166.0\",\"\",\"\",\"1-3\",\"4143\",\"40\",\"1\",\"Testing\",\"Stims/Figures/93-J-0-1.bmp\",\"fasha:va\",\"Down\",\"40\",\"1\",\"18\",\"6A\",\"C1\",\"C\",\"18\"
\"\",\"\",\"approach-retreat\",\"167\",\"1104385\",\"0.0-167.0\",\"\",\"\",\"1-3\",\"4197\",\"38\",\"1\",\"Testing\",\"Stims/Figures/128-J-10-3.bmp\",\"fashasha\",\"Up\",\"38\",\"1\",\"19\",\"6A\",\"C1\",\"C\",\"19\"
\"\",\"\",\"approach-retreat\",\"168\",\"1110937\",\"0.0-168.0\",\"\",\"\",\"1-3\",\"5044\",\"38\",\"1\",\"Testing\",\"Stims/Figures/27-C-30-1.bmp\",\"sasa:za\",\"Down\",\"38\",\"1\",\"20\",\"6A\",\"C2\",\"C\",\"20\"
\"\",\"\",\"approach-retreat\",\"169\",\"1116567\",\"0.0-169.0\",\"\",\"\",\"1-3\",\"4122\",\"37\",\"1\",\"Testing\",\"Stims/Figures/100-C-30-3.bmp\",\"zaha:za\",\"Right\",\"37\",\"1\",\"21\",\"6A\",\"C2\",\"C\",\"21\"
\"\",\"\",\"approach-retreat\",\"170\",\"1122024\",\"0.0-170.0\",\"\",\"\",\"1-3\",\"3948\",\"37\",\"1\",\"Testing\",\"Stims/Figures/74-C-20-4.bmp\",\"sasaha\",\"Right\",\"37\",\"1\",\"22\",\"6A\",\"C2\",\"C\",\"22\"
\"\",\"\",\"approach-retreat\",\"171\",\"1128057\",\"0.0-171.0\",\"\",\"\",\"1-3\",\"4521\",\"38\",\"1\",\"Testing\",\"Stims/Figures/57-C-30-1.bmp\",\"sa:haha\",\"Down\",\"38\",\"1\",\"23\",\"6A\",\"C2\",\"C\",\"23\"
\"\",\"\",\"approach-retreat\",\"172\",\"1134136\",\"0.0-172.0\",\"\",\"\",\"1-3\",\"4569\",\"39\",\"1\",\"Testing\",\"Stims/Figures/139-J-0-2.bmp\",\"vafava\",\"Right\",\"39\",\"1\",\"24\",\"6A\",\"C1\",\"C\",\"24\"
\"\",\"\",\"approach-retreat\",\"173\",\"1139864\",\"0.0-173.0\",\"\",\"\",\"1-3\",\"4221\",\"40\",\"1\",\"Testing\",\"Stims/Figures/57-J-0-1.bmp\",\"fafava\",\"Down\",\"40\",\"2\",\"1\",\"6A\",\"C1\",\"C\",\"25\"
\"\",\"\",\"approach-retreat\",\"174\",\"1145423\",\"0.0-174.0\",\"\",\"\",\"1-3\",\"4052\",\"39\",\"1\",\"Testing\",\"Stims/Figures/74-C-20-4.bmp\",\"sasaha\",\"Left\",\"39\",\"2\",\"2\",\"6A\",\"C2\",\"C\",\"26\"
\"\",\"\",\"approach-retreat\",\"175\",\"1151074\",\"0.0-175.0\",\"\",\"\",\"1-3\",\"4143\",\"39\",\"1\",\"Testing\",\"Stims/Figures/139-C-20-2.bmp\",\"zahaha\",\"Left\",\"39\",\"2\",\"3\",\"6A\",\"C2\",\"C\",\"27\"
\"\",\"\",\"approach-retreat\",\"176\",\"1156666\",\"0.0-176.0\",\"\",\"\",\"1-3\",\"4085\",\"37\",\"0\",\"Testing\",\"Stims/Figures/7-J-10-4.bmp\",\"va:fa:sha\",\"Right\",\"39\",\"2\",\"4\",\"6A\",\"C1\",\"C\",\"28\"
\"\",\"\",\"approach-retreat\",\"177\",\"1162413\",\"0.0-177.0\",\"\",\"\",\"1-3\",\"4242\",\"40\",\"1\",\"Testing\",\"Stims/Figures/27-J-0-1.bmp\",\"va:fava\",\"Down\",\"40\",\"2\",\"5\",\"6A\",\"C1\",\"C\",\"29\"
\"\",\"\",\"approach-retreat\",\"178\",\"1167958\",\"0.0-178.0\",\"\",\"\",\"1-3\",\"4038\",\"40\",\"1\",\"Testing\",\"Stims/Figures/118-C-20-2.bmp\",\"zasaza\",\"Up\",\"40\",\"2\",\"6\",\"6A\",\"C2\",\"C\",\"30\"
\"\",\"\",\"approach-retreat\",\"179\",\"1173540\",\"0.0-179.0\",\"\",\"\",\"1-3\",\"4072\",\"39\",\"1\",\"Testing\",\"Stims/Figures/128-C-30-3.bmp\",\"za:haha\",\"Left\",\"39\",\"2\",\"7\",\"6A\",\"C2\",\"C\",\"31\"
\"\",\"\",\"approach-retreat\",\"180\",\"1179082\",\"0.0-180.0\",\"\",\"\",\"1-3\",\"4034\",\"39\",\"1\",\"Testing\",\"Stims/Figures/93-C-30-1.bmp\",\"sahaza\",\"Left\",\"39\",\"2\",\"8\",\"6A\",\"C2\",\"C\",\"32\"
\"\",\"\",\"approach-retreat\",\"181\",\"1184841\",\"0.0-181.0\",\"\",\"\",\"1-3\",\"4252\",\"40\",\"1\",\"Testing\",\"Stims/Figures/118-J-0-2.bmp\",\"fa:sha:sha\",\"Down\",\"40\",\"2\",\"9\",\"6A\",\"C1\",\"C\",\"33\"
\"\",\"\",\"approach-retreat\",\"182\",\"1191078\",\"0.0-182.0\",\"\",\"\",\"1-3\",\"4729\",\"39\",\"1\",\"Testing\",\"Stims/Figures/85-J-0-2.bmp\",\"fafa:va\",\"Right\",\"39\",\"2\",\"10\",\"6A\",\"C1\",\"C\",\"34\"
\"\",\"\",\"approach-retreat\",\"183\",\"1196910\",\"0.0-183.0\",\"\",\"\",\"1-3\",\"4324\",\"40\",\"1\",\"Testing\",\"Stims/Figures/100-J-10-3.bmp\",\"vasha:va\",\"Down\",\"40\",\"2\",\"11\",\"6A\",\"C1\",\"C\",\"35\"
\"\",\"\",\"approach-retreat\",\"184\",\"1202496\",\"0.0-184.0\",\"\",\"\",\"1-3\",\"4077\",\"37\",\"0\",\"Testing\",\"Stims/Figures/87-J-10-4.bmp\",\"va:sha:sha\",\"Right\",\"39\",\"2\",\"12\",\"6A\",\"C1\",\"C\",\"36\"
\"\",\"\",\"approach-retreat\",\"185\",\"1208394\",\"0.0-185.0\",\"\",\"\",\"1-3\",\"4390\",\"38\",\"1\",\"Testing\",\"Stims/Figures/139-J-0-2.bmp\",\"vafava\",\"Up\",\"38\",\"2\",\"13\",\"6A\",\"C1\",\"C\",\"37\"
\"\",\"\",\"approach-retreat\",\"186\",\"1214084\",\"0.0-186.0\",\"\",\"\",\"1-3\",\"4181\",\"39\",\"1\",\"Testing\",\"Stims/Figures/87-C-20-4.bmp\",\"sa:saha\",\"Left\",\"39\",\"2\",\"14\",\"6A\",\"C2\",\"C\",\"38\"
\"\",\"\",\"approach-retreat\",\"187\",\"1219699\",\"0.0-187.0\",\"\",\"\",\"1-3\",\"4107\",\"38\",\"1\",\"Testing\",\"Stims/Figures/100-C-30-3.bmp\",\"zaha:za\",\"Down\",\"38\",\"2\",\"15\",\"6A\",\"C2\",\"C\",\"39\"
\"\",\"\",\"approach-retreat\",\"188\",\"1225304\",\"0.0-188.0\",\"\",\"\",\"1-3\",\"4099\",\"39\",\"1\",\"Testing\",\"Stims/Figures/7-C-20-4.bmp\",\"zaha:ha\",\"Left\",\"39\",\"2\",\"16\",\"6A\",\"C2\",\"C\",\"40\"
\"\",\"\",\"approach-retreat\",\"189\",\"1231115\",\"0.0-189.0\",\"\",\"\",\"1-3\",\"4302\",\"37\",\"1\",\"Testing\",\"Stims/Figures/44-C-30-3.bmp\",\"za:sa:za\",\"Right\",\"37\",\"2\",\"17\",\"6A\",\"C2\",\"C\",\"41\"
\"\",\"\",\"approach-retreat\",\"190\",\"1236902\",\"0.0-190.0\",\"\",\"\",\"1-3\",\"4280\",\"37\",\"1\",\"Testing\",\"Stims/Figures/27-C-30-1.bmp\",\"sasa:za\",\"Right\",\"37\",\"2\",\"18\",\"6A\",\"C2\",\"C\",\"42\"
\"\",\"\",\"approach-retreat\",\"191\",\"1242917\",\"0.0-191.0\",\"\",\"\",\"1-3\",\"4508\",\"40\",\"0\",\"Testing\",\"Stims/Figures/74-J-10-4.bmp\",\"va:fa:va\",\"Up\",\"38\",\"2\",\"19\",\"6A\",\"C1\",\"C\",\"43\"
\"\",\"\",\"approach-retreat\",\"192\",\"1248604\",\"0.0-192.0\",\"\",\"\",\"1-3\",\"4180\",\"38\",\"1\",\"Testing\",\"Stims/Figures/44-J-10-3.bmp\",\"fa:fava\",\"Up\",\"38\",\"2\",\"20\",\"6A\",\"C1\",\"C\",\"44\"
\"\",\"\",\"approach-retreat\",\"193\",\"1254738\",\"0.0-193.0\",\"\",\"\",\"1-3\",\"4627\",\"40\",\"1\",\"Testing\",\"Stims/Figures/93-J-0-1.bmp\",\"fasha:va\",\"Down\",\"40\",\"2\",\"21\",\"6A\",\"C1\",\"C\",\"45\"
\"\",\"\",\"approach-retreat\",\"194\",\"1260653\",\"0.0-194.0\",\"\",\"\",\"1-3\",\"4409\",\"37\",\"1\",\"Testing\",\"Stims/Figures/57-C-30-1.bmp\",\"sa:haha\",\"Right\",\"37\",\"2\",\"22\",\"6A\",\"C2\",\"C\",\"46\"
\"\",\"\",\"approach-retreat\",\"195\",\"1266300\",\"0.0-195.0\",\"\",\"\",\"1-3\",\"4139\",\"40\",\"1\",\"Testing\",\"Stims/Figures/85-C-20-2.bmp\",\"sasaza\",\"Up\",\"40\",\"2\",\"23\",\"6A\",\"C2\",\"C\",\"47\"
\"\",\"\",\"approach-retreat\",\"196\",\"1272037\",\"0.0-196.0\",\"\",\"\",\"1-3\",\"4232\",\"38\",\"1\",\"Testing\",\"Stims/Figures/128-J-10-3.bmp\",\"fashasha\",\"Up\",\"38\",\"2\",\"24\",\"6A\",\"C1\",\"C\",\"48\"
\"\",\"\",\"approach-retreat\",\"197\",\"1278108\",\"0.0-197.0\",\"\",\"\",\"1-3\",\"4564\",\"39\",\"1\",\"Testing\",\"Stims/Figures/27-J-0-1.bmp\",\"va:fava\",\"Right\",\"39\",\"3\",\"1\",\"6A\",\"C1\",\"C\",\"49\"
\"\",\"\",\"approach-retreat\",\"198\",\"1283770\",\"0.0-198.0\",\"\",\"\",\"1-3\",\"4153\",\"38\",\"1\",\"Testing\",\"Stims/Figures/74-C-20-4.bmp\",\"sasaha\",\"Down\",\"38\",\"3\",\"2\",\"6A\",\"C2\",\"C\",\"50\"
\"\",\"\",\"approach-retreat\",\"199\",\"1289935\",\"0.0-199.0\",\"\",\"\",\"1-3\",\"4652\",\"39\",\"1\",\"Testing\",\"Stims/Figures/74-J-10-4.bmp\",\"va:fa:va\",\"Right\",\"39\",\"3\",\"3\",\"6A\",\"C1\",\"C\",\"51\"
\"\",\"\",\"approach-retreat\",\"200\",\"1295727\",\"0.0-200.0\",\"\",\"\",\"1-3\",\"4286\",\"37\",\"1\",\"Testing\",\"Stims/Figures/100-C-30-3.bmp\",\"zaha:za\",\"Right\",\"37\",\"3\",\"4\",\"6A\",\"C2\",\"C\",\"52\"
\"\",\"\",\"approach-retreat\",\"201\",\"1301414\",\"0.0-201.0\",\"\",\"\",\"1-3\",\"4174\",\"40\",\"1\",\"Testing\",\"Stims/Figures/139-C-20-2.bmp\",\"zahaha\",\"Up\",\"40\",\"3\",\"5\",\"6A\",\"C2\",\"C\",\"53\"
\"\",\"\",\"approach-retreat\",\"202\",\"1307078\",\"0.0-202.0\",\"\",\"\",\"1-3\",\"4156\",\"40\",\"1\",\"Testing\",\"Stims/Figures/85-J-0-2.bmp\",\"fafa:va\",\"Down\",\"40\",\"3\",\"6\",\"6A\",\"C1\",\"C\",\"54\"
\"\",\"\",\"approach-retreat\",\"203\",\"1312695\",\"0.0-203.0\",\"\",\"\",\"1-3\",\"4109\",\"40\",\"1\",\"Testing\",\"Stims/Figures/128-J-10-3.bmp\",\"fashasha\",\"Down\",\"40\",\"3\",\"7\",\"6A\",\"C1\",\"C\",\"55\"
\"\",\"\",\"approach-retreat\",\"204\",\"1318759\",\"0.0-204.0\",\"\",\"\",\"1-3\",\"4553\",\"38\",\"1\",\"Testing\",\"Stims/Figures/44-J-10-3.bmp\",\"fa:fava\",\"Up\",\"38\",\"3\",\"8\",\"6A\",\"C1\",\"C\",\"56\"
\"\",\"\",\"approach-retreat\",\"205\",\"1324353\",\"0.0-205.0\",\"\",\"\",\"1-3\",\"4085\",\"39\",\"1\",\"Testing\",\"Stims/Figures/27-C-30-1.bmp\",\"sasa:za\",\"Left\",\"39\",\"3\",\"9\",\"6A\",\"C2\",\"C\",\"57\"
\"\",\"\",\"approach-retreat\",\"206\",\"1330171\",\"0.0-206.0\",\"\",\"\",\"1-3\",\"4311\",\"37\",\"1\",\"Testing\",\"Stims/Figures/128-C-30-3.bmp\",\"za:haha\",\"Right\",\"37\",\"3\",\"10\",\"6A\",\"C2\",\"C\",\"58\"
\"\",\"\",\"approach-retreat\",\"207\",\"1335998\",\"0.0-207.0\",\"\",\"\",\"1-3\",\"4319\",\"40\",\"1\",\"Testing\",\"Stims/Figures/93-J-0-1.bmp\",\"fasha:va\",\"Down\",\"40\",\"3\",\"11\",\"6A\",\"C1\",\"C\",\"59\"
\"\",\"\",\"approach-retreat\",\"208\",\"1342188\",\"0.0-208.0\",\"\",\"\",\"1-3\",\"4682\",\"38\",\"1\",\"Testing\",\"Stims/Figures/118-J-0-2.bmp\",\"fa:sha:sha\",\"Up\",\"38\",\"3\",\"12\",\"6A\",\"C1\",\"C\",\"60\"
\"\",\"\",\"approach-retreat\",\"209\",\"1348209\",\"0.0-209.0\",\"\",\"\",\"1-3\",\"4514\",\"38\",\"1\",\"Testing\",\"Stims/Figures/139-J-0-2.bmp\",\"vafava\",\"Up\",\"38\",\"3\",\"13\",\"6A\",\"C1\",\"C\",\"61\"
\"\",\"\",\"approach-retreat\",\"210\",\"1353988\",\"0.0-210.0\",\"\",\"\",\"1-3\",\"4270\",\"39\",\"1\",\"Testing\",\"Stims/Figures/87-C-20-4.bmp\",\"sa:saha\",\"Left\",\"39\",\"3\",\"14\",\"6A\",\"C2\",\"C\",\"62\"
\"\",\"\",\"approach-retreat\",\"211\",\"1359906\",\"0.0-211.0\",\"\",\"\",\"1-3\",\"4410\",\"37\",\"1\",\"Testing\",\"Stims/Figures/100-J-10-3.bmp\",\"vasha:va\",\"Left\",\"37\",\"3\",\"15\",\"6A\",\"C1\",\"C\",\"63\"
\"\",\"\",\"approach-retreat\",\"212\",\"1365563\",\"0.0-212.0\",\"\",\"\",\"1-3\",\"4150\",\"39\",\"1\",\"Testing\",\"Stims/Figures/7-C-20-4.bmp\",\"zaha:ha\",\"Left\",\"39\",\"3\",\"16\",\"6A\",\"C2\",\"C\",\"64\"
\"\",\"\",\"approach-retreat\",\"213\",\"1371195\",\"0.0-213.0\",\"\",\"\",\"1-3\",\"4122\",\"38\",\"1\",\"Testing\",\"Stims/Figures/93-C-30-1.bmp\",\"sahaza\",\"Down\",\"38\",\"3\",\"17\",\"6A\",\"C2\",\"C\",\"65\"
\"\",\"\",\"approach-retreat\",\"214\",\"1376827\",\"0.0-214.0\",\"\",\"\",\"1-3\",\"4121\",\"37\",\"1\",\"Testing\",\"Stims/Figures/44-C-30-3.bmp\",\"za:sa:za\",\"Right\",\"37\",\"3\",\"18\",\"6A\",\"C2\",\"C\",\"66\"
\"\",\"\",\"approach-retreat\",\"215\",\"1382459\",\"0.0-215.0\",\"\",\"\",\"1-3\",\"4122\",\"38\",\"1\",\"Testing\",\"Stims/Figures/85-C-20-2.bmp\",\"sasaza\",\"Down\",\"38\",\"3\",\"19\",\"6A\",\"C2\",\"C\",\"67\"
\"\",\"\",\"approach-retreat\",\"216\",\"1388200\",\"0.0-216.0\",\"\",\"\",\"1-3\",\"4234\",\"37\",\"1\",\"Testing\",\"Stims/Figures/57-C-30-1.bmp\",\"sa:haha\",\"Right\",\"37\",\"3\",\"20\",\"6A\",\"C2\",\"C\",\"68\"
\"\",\"\",\"approach-retreat\",\"217\",\"1394205\",\"0.0-217.0\",\"\",\"\",\"1-3\",\"4496\",\"37\",\"1\",\"Testing\",\"Stims/Figures/7-J-10-4.bmp\",\"va:fa:sha\",\"Left\",\"37\",\"3\",\"21\",\"6A\",\"C1\",\"C\",\"69\"
\"\",\"\",\"approach-retreat\",\"218\",\"1400712\",\"0.0-218.0\",\"\",\"\",\"1-3\",\"5000\",\"37\",\"1\",\"Testing\",\"Stims/Figures/87-J-10-4.bmp\",\"va:sha:sha\",\"Left\",\"37\",\"3\",\"22\",\"6A\",\"C1\",\"C\",\"70\"
\"\",\"\",\"approach-retreat\",\"219\",\"1406485\",\"0.0-219.0\",\"\",\"\",\"1-3\",\"4263\",\"38\",\"0\",\"Testing\",\"Stims/Figures/118-C-20-2.bmp\",\"zasaza\",\"Up\",\"40\",\"3\",\"23\",\"6A\",\"C2\",\"C\",\"71\"
\"\",\"\",\"approach-retreat\",\"220\",\"1412610\",\"0.0-220.0\",\"\",\"\",\"1-3\",\"4619\",\"38\",\"1\",\"Testing\",\"Stims/Figures/57-J-0-1.bmp\",\"fafava\",\"Up\",\"38\",\"3\",\"24\",\"6A\",\"C1\",\"C\",\"72\"
\"\",\"\",\"approach-retreat\",\"221\",\"1418646\",\"0.0-221.0\",\"\",\"\",\"1-3\",\"4528\",\"38\",\"1\",\"Testing\",\"Stims/Figures/7-C-20-4.bmp\",\"zaha:ha\",\"Down\",\"38\",\"4\",\"1\",\"6A\",\"C2\",\"C\",\"73\"
\"\",\"\",\"approach-retreat\",\"222\",\"1424382\",\"0.0-222.0\",\"\",\"\",\"1-3\",\"4227\",\"39\",\"1\",\"Testing\",\"Stims/Figures/57-C-30-1.bmp\",\"sa:haha\",\"Left\",\"39\",\"4\",\"2\",\"6A\",\"C2\",\"C\",\"74\"
\"\",\"\",\"approach-retreat\",\"223\",\"1430508\",\"0.0-223.0\",\"\",\"\",\"1-3\",\"4617\",\"37\",\"1\",\"Testing\",\"Stims/Figures/27-C-30-1.bmp\",\"sasa:za\",\"Right\",\"37\",\"4\",\"3\",\"6A\",\"C2\",\"C\",\"75\"
\"\",\"\",\"approach-retreat\",\"224\",\"1436377\",\"0.0-224.0\",\"\",\"\",\"1-3\",\"4362\",\"38\",\"1\",\"Testing\",\"Stims/Figures/118-J-0-2.bmp\",\"fa:sha:sha\",\"Up\",\"38\",\"4\",\"4\",\"6A\",\"C1\",\"C\",\"76\"
\"\",\"\",\"approach-retreat\",\"225\",\"1442666\",\"0.0-225.0\",\"\",\"\",\"1-3\",\"4782\",\"38\",\"1\",\"Testing\",\"Stims/Figures/44-J-10-3.bmp\",\"fa:fava\",\"Up\",\"38\",\"4\",\"5\",\"6A\",\"C1\",\"C\",\"77\"
\"\",\"\",\"approach-retreat\",\"226\",\"1448776\",\"0.0-226.0\",\"\",\"\",\"1-3\",\"4600\",\"38\",\"1\",\"Testing\",\"Stims/Figures/87-J-10-4.bmp\",\"va:sha:sha\",\"Up\",\"38\",\"4\",\"6\",\"6A\",\"C1\",\"C\",\"78\"
\"\",\"\",\"approach-retreat\",\"227\",\"1457040\",\"0.0-227.0\",\"\",\"\",\"1-3\",\"6758\",\"38\",\"1\",\"Testing\",\"Stims/Figures/7-J-10-4.bmp\",\"va:fa:sha\",\"Up\",\"38\",\"4\",\"7\",\"6A\",\"C1\",\"C\",\"79\"
\"\",\"\",\"approach-retreat\",\"228\",\"1462836\",\"0.0-228.0\",\"\",\"\",\"1-3\",\"4287\",\"40\",\"1\",\"Testing\",\"Stims/Figures/139-J-0-2.bmp\",\"vafava\",\"Down\",\"40\",\"4\",\"8\",\"6A\",\"C1\",\"C\",\"80\"
\"\",\"\",\"approach-retreat\",\"229\",\"1468677\",\"0.0-229.0\",\"\",\"\",\"1-3\",\"4332\",\"39\",\"1\",\"Testing\",\"Stims/Figures/27-J-0-1.bmp\",\"va:fava\",\"Right\",\"39\",\"4\",\"9\",\"6A\",\"C1\",\"C\",\"81\"
\"\",\"\",\"approach-retreat\",\"230\",\"1474587\",\"0.0-230.0\",\"\",\"\",\"1-3\",\"4403\",\"38\",\"1\",\"Testing\",\"Stims/Figures/74-C-20-4.bmp\",\"sasaha\",\"Down\",\"38\",\"4\",\"10\",\"6A\",\"C2\",\"C\",\"82\"
\"\",\"\",\"approach-retreat\",\"231\",\"1480195\",\"0.0-231.0\",\"\",\"\",\"1-3\",\"4099\",\"39\",\"1\",\"Testing\",\"Stims/Figures/44-C-30-3.bmp\",\"za:sa:za\",\"Left\",\"39\",\"4\",\"11\",\"6A\",\"C2\",\"C\",\"83\"
\"\",\"\",\"approach-retreat\",\"232\",\"1485954\",\"0.0-232.0\",\"\",\"\",\"1-3\",\"4250\",\"37\",\"1\",\"Testing\",\"Stims/Figures/139-C-20-2.bmp\",\"zahaha\",\"Right\",\"37\",\"4\",\"12\",\"6A\",\"C2\",\"C\",\"84\"
\"\",\"\",\"approach-retreat\",\"233\",\"1491646\",\"0.0-233.0\",\"\",\"\",\"1-3\",\"4184\",\"37\",\"1\",\"Testing\",\"Stims/Figures/87-C-20-4.bmp\",\"sa:saha\",\"Right\",\"37\",\"4\",\"13\",\"6A\",\"C2\",\"C\",\"85\"
\"\",\"\",\"approach-retreat\",\"234\",\"1497383\",\"0.0-234.0\",\"\",\"\",\"1-3\",\"4229\",\"39\",\"1\",\"Testing\",\"Stims/Figures/85-C-20-2.bmp\",\"sasaza\",\"Left\",\"39\",\"4\",\"14\",\"6A\",\"C2\",\"C\",\"86\"
\"\",\"\",\"approach-retreat\",\"235\",\"1503090\",\"0.0-235.0\",\"\",\"\",\"1-3\",\"4199\",\"38\",\"1\",\"Testing\",\"Stims/Figures/93-J-0-1.bmp\",\"fasha:va\",\"Up\",\"38\",\"4\",\"15\",\"6A\",\"C1\",\"C\",\"87\"
\"\",\"\",\"approach-retreat\",\"236\",\"1508711\",\"0.0-236.0\",\"\",\"\",\"1-3\",\"4113\",\"40\",\"1\",\"Testing\",\"Stims/Figures/57-J-0-1.bmp\",\"fafava\",\"Down\",\"40\",\"4\",\"16\",\"6A\",\"C1\",\"C\",\"88\"
\"\",\"\",\"approach-retreat\",\"237\",\"1514341\",\"0.0-237.0\",\"\",\"\",\"1-3\",\"4124\",\"40\",\"1\",\"Testing\",\"Stims/Figures/85-J-0-2.bmp\",\"fafa:va\",\"Down\",\"40\",\"4\",\"17\",\"6A\",\"C1\",\"C\",\"89\"
\"\",\"\",\"approach-retreat\",\"238\",\"1520759\",\"0.0-238.0\",\"\",\"\",\"1-3\",\"4912\",\"39\",\"1\",\"Testing\",\"Stims/Figures/128-C-30-3.bmp\",\"za:haha\",\"Left\",\"39\",\"4\",\"18\",\"6A\",\"C2\",\"C\",\"90\"
\"\",\"\",\"approach-retreat\",\"239\",\"1527063\",\"0.0-239.0\",\"\",\"\",\"1-3\",\"4800\",\"37\",\"1\",\"Testing\",\"Stims/Figures/118-C-20-2.bmp\",\"zasaza\",\"Right\",\"37\",\"4\",\"19\",\"6A\",\"C2\",\"C\",\"91\"
\"\",\"\",\"approach-retreat\",\"240\",\"1532607\",\"0.0-240.0\",\"\",\"\",\"1-3\",\"4034\",\"40\",\"1\",\"Testing\",\"Stims/Figures/100-C-30-3.bmp\",\"zaha:za\",\"Up\",\"40\",\"4\",\"20\",\"6A\",\"C2\",\"C\",\"92\"
\"\",\"\",\"approach-retreat\",\"241\",\"1538224\",\"0.0-241.0\",\"\",\"\",\"1-3\",\"4113\",\"37\",\"1\",\"Testing\",\"Stims/Figures/128-J-10-3.bmp\",\"fashasha\",\"Left\",\"37\",\"4\",\"21\",\"6A\",\"C1\",\"C\",\"93\"
\"\",\"\",\"approach-retreat\",\"242\",\"1544302\",\"0.0-242.0\",\"\",\"\",\"1-3\",\"4572\",\"39\",\"1\",\"Testing\",\"Stims/Figures/100-J-10-3.bmp\",\"vasha:va\",\"Right\",\"39\",\"4\",\"22\",\"6A\",\"C1\",\"C\",\"94\"
\"\",\"\",\"approach-retreat\",\"243\",\"1550241\",\"0.0-243.0\",\"\",\"\",\"1-3\",\"4432\",\"38\",\"1\",\"Testing\",\"Stims/Figures/93-C-30-1.bmp\",\"sahaza\",\"Down\",\"38\",\"4\",\"23\",\"6A\",\"C2\",\"C\",\"95\"
\"\",\"\",\"approach-retreat\",\"244\",\"1555966\",\"0.0-244.0\",\"\",\"\",\"1-3\",\"4217\",\"37\",\"1\",\"Testing\",\"Stims/Figures/74-J-10-4.bmp\",\"va:fa:va\",\"Left\",\"37\",\"4\",\"24\",\"6A\",\"C1\",\"C\",\"96\"
\"30920\",\"\",\"survey-text\",\"245\",\"1586892\",\"0.0-245.0\",\"\",\"{\"\"Q0\"\":\"\"PS170053\"\"}\",\"\",\"\",\"\",\"\",\"\",\"\",\"\",\"\",\"\",\"\",\"\",\"\",\"\",\"\",\"\"
