\"rt\",\"key_press\",\"trial_type\",\"trial_index\",\"time_elapsed\",\"internal_node_id\",\"view_history\",\"responses\",\"Id\",\"Rt\",\"ResKeyCode\",\"ResCorr\",\"TrialType2\",\"Image\",\"Label\",\"Location\",\"CorrectResponse\",\"Block\",\"BlockTrial\",\"Condition\",\"LabelType\",\"Subcondition\",\"trialNum\"
\"60234\",\"32\",\"text\",\"0\",\"60241\",\"0.0-0.0-0.0\",\"\",\"\",\"\",\"\",\"\",\"\",\"\",\"\",\"\",\"\",\"\",\"\",\"\",\"\",\"\",\"\",\"\"
\"202851\",\"\",\"instructions\",\"1\",\"263094\",\"0.0-1.0\",\"[{\"\"page_index\"\":0,\"\"viewing_time\"\":202850}]\",\"\",\"\",\"\",\"\",\"\",\"\",\"\",\"\",\"\",\"\",\"\",\"\",\"\",\"\",\"\",\"\"
\"72373\",\"\",\"survey-multi-choice\",\"2\",\"335495\",\"0.0-2.0\",\"\",\"{\"\"Q0\"\":\"\"Da\"\",\"\"Q1\"\":\"\"Da\"\",\"\"Q2\"\":\"\"Da\"\",\"\"Q3\"\":\"\"Da\"\",\"\"Q4\"\":\"\"Da\"\",\"\"Q5\"\":\"\"Da\"\"}\",\"\",\"\",\"\",\"\",\"\",\"\",\"\",\"\",\"\",\"\",\"\",\"\",\"\",\"\",\"\"
\"\",\"\",\"bio\",\"3\",\"346389\",\"0.0-3.0\",\"\",\"{\"\"age\"\":\"\"33\"\",\"\"gender\"\":\"\"f\"\",\"\"specify\"\":\"\"\"\"}\",\"\",\"\",\"\",\"\",\"\",\"\",\"\",\"\",\"\",\"\",\"\",\"\",\"\",\"\",\"\"
\"\",\"\",\"approach-retreat\",\"4\",\"364839\",\"0.0-4.0\",\"\",\"\",\"1-4\",\"16932\",\"37\",\"0\",\"Training\",\"Stims/Figures/44-C-30-3.bmp\",\"zaha:za\",\"Right\",\"39\",\"1\",\"1\",\"9\",\"C2\",\"J\",\"1\"
\"\",\"\",\"approach-retreat\",\"5\",\"390100\",\"0.0-5.0\",\"\",\"\",\"1-4\",\"23746\",\"39\",\"1\",\"Training\",\"Stims/Figures/128-J-10-3.bmp\",\"tapata\",\"Left\",\"39\",\"1\",\"2\",\"9\",\"P\",\"J\",\"2\"
\"\",\"\",\"approach-retreat\",\"6\",\"404510\",\"0.0-6.0\",\"\",\"\",\"1-4\",\"12896\",\"38\",\"1\",\"Training\",\"Stims/Figures/85-J-0-2.bmp\",\"pa:kata\",\"Down\",\"38\",\"1\",\"3\",\"9\",\"P\",\"J\",\"3\"
\"\",\"\",\"approach-retreat\",\"7\",\"413268\",\"0.0-7.0\",\"\",\"\",\"1-4\",\"7245\",\"39\",\"0\",\"Training\",\"Stims/Figures/94-C-20-2.bmp\",\"ta:pa:ta\",\"Left\",\"37\",\"1\",\"4\",\"9\",\"P\",\"J\",\"4\"
\"\",\"\",\"approach-retreat\",\"8\",\"420461\",\"0.0-8.0\",\"\",\"\",\"1-4\",\"5680\",\"37\",\"0\",\"Training\",\"Stims/Figures/27-C-30-1.bmp\",\"pa:ka:ka\",\"Right\",\"39\",\"1\",\"5\",\"9\",\"P\",\"J\",\"5\"
\"\",\"\",\"approach-retreat\",\"9\",\"428350\",\"0.0-9.0\",\"\",\"\",\"1-4\",\"6376\",\"38\",\"0\",\"Training\",\"Stims/Figures/7-J-10-4.bmp\",\"vafa:va\",\"Up\",\"40\",\"1\",\"6\",\"9\",\"C1\",\"J\",\"6\"
\"\",\"\",\"approach-retreat\",\"10\",\"435453\",\"0.0-10.0\",\"\",\"\",\"1-4\",\"5590\",\"37\",\"1\",\"Training\",\"Stims/Figures/44-J-10-3.bmp\",\"saha:ha\",\"Right\",\"37\",\"1\",\"7\",\"9\",\"C2\",\"J\",\"7\"
\"\",\"\",\"approach-retreat\",\"11\",\"442259\",\"0.0-11.0\",\"\",\"\",\"1-4\",\"5292\",\"38\",\"0\",\"Training\",\"Stims/Figures/86-C-30-1.bmp\",\"fa:shasha\",\"Down\",\"40\",\"1\",\"8\",\"9\",\"C1\",\"J\",\"8\"
\"\",\"\",\"approach-retreat\",\"12\",\"449183\",\"0.0-12.0\",\"\",\"\",\"1-4\",\"5410\",\"38\",\"1\",\"Training\",\"Stims/Figures/94-J-0-2.bmp\",\"saha:za\",\"Down\",\"38\",\"1\",\"9\",\"9\",\"C2\",\"J\",\"9\"
\"\",\"\",\"approach-retreat\",\"13\",\"454918\",\"0.0-13.0\",\"\",\"\",\"1-4\",\"4221\",\"39\",\"1\",\"Training\",\"Stims/Figures/128-C-30-3.bmp\",\"malala\",\"Right\",\"39\",\"1\",\"10\",\"9\",\"S\",\"J\",\"10\"
\"\",\"\",\"approach-retreat\",\"14\",\"462132\",\"0.0-14.0\",\"\",\"\",\"1-4\",\"5697\",\"40\",\"1\",\"Training\",\"Stims/Figures/27-J-0-1.bmp\",\"fafa:sha\",\"Up\",\"40\",\"1\",\"11\",\"9\",\"C1\",\"J\",\"11\"
\"\",\"\",\"approach-retreat\",\"15\",\"468173\",\"0.0-15.0\",\"\",\"\",\"1-4\",\"4529\",\"37\",\"1\",\"Training\",\"Stims/Figures/85-C-20-2.bmp\",\"papa:ta\",\"Left\",\"37\",\"1\",\"12\",\"9\",\"P\",\"J\",\"12\"
\"\",\"\",\"approach-retreat\",\"16\",\"476270\",\"0.0-16.0\",\"\",\"\",\"1-4\",\"6584\",\"39\",\"1\",\"Training\",\"Stims/Figures/86-J-0-1.bmp\",\"zahaha\",\"Left\",\"39\",\"1\",\"13\",\"9\",\"C2\",\"J\",\"13\"
\"\",\"\",\"approach-retreat\",\"17\",\"482897\",\"0.0-17.0\",\"\",\"\",\"1-4\",\"5113\",\"40\",\"1\",\"Training\",\"Stims/Figures/7-C-20-4.bmp\",\"mala:la\",\"Down\",\"40\",\"1\",\"14\",\"9\",\"S\",\"J\",\"14\"
\"\",\"\",\"approach-retreat\",\"18\",\"490539\",\"0.0-18.0\",\"\",\"\",\"1-4\",\"6130\",\"38\",\"0\",\"Training\",\"Stims/Figures/102-J-10-4.bmp\",\"fasha:sha\",\"Up\",\"40\",\"1\",\"15\",\"9\",\"C1\",\"J\",\"15\"
\"\",\"\",\"approach-retreat\",\"19\",\"497943\",\"0.0-19.0\",\"\",\"\",\"1-4\",\"5892\",\"40\",\"0\",\"Training\",\"Stims/Figures/102-C-20-4.bmp\",\"namala\",\"Up\",\"38\",\"1\",\"16\",\"9\",\"S\",\"J\",\"16\"
\"\",\"\",\"approach-retreat\",\"20\",\"505098\",\"0.0-20.0\",\"\",\"\",\"1-4\",\"5643\",\"38\",\"0\",\"Training\",\"Stims/Figures/102-C-20-4.bmp\",\"namala\",\"Down\",\"40\",\"2\",\"1\",\"9\",\"S\",\"J\",\"17\"
\"\",\"\",\"approach-retreat\",\"21\",\"512144\",\"0.0-21.0\",\"\",\"\",\"1-4\",\"5534\",\"40\",\"1\",\"Training\",\"Stims/Figures/85-C-20-2.bmp\",\"papa:ta\",\"Down\",\"40\",\"2\",\"2\",\"9\",\"P\",\"J\",\"18\"
\"\",\"\",\"approach-retreat\",\"22\",\"518356\",\"0.0-22.0\",\"\",\"\",\"1-4\",\"4705\",\"40\",\"1\",\"Training\",\"Stims/Figures/27-J-0-1.bmp\",\"fafa:sha\",\"Up\",\"40\",\"2\",\"3\",\"9\",\"C1\",\"J\",\"19\"
\"\",\"\",\"approach-retreat\",\"23\",\"524625\",\"0.0-23.0\",\"\",\"\",\"1-4\",\"4755\",\"40\",\"0\",\"Training\",\"Stims/Figures/27-C-30-1.bmp\",\"pa:ka:ka\",\"Up\",\"38\",\"2\",\"4\",\"9\",\"P\",\"J\",\"20\"
\"\",\"\",\"approach-retreat\",\"24\",\"531469\",\"0.0-24.0\",\"\",\"\",\"1-4\",\"5331\",\"37\",\"1\",\"Training\",\"Stims/Figures/44-C-30-3.bmp\",\"zaha:za\",\"Left\",\"37\",\"2\",\"5\",\"9\",\"C2\",\"J\",\"21\"
\"\",\"\",\"approach-retreat\",\"25\",\"537802\",\"0.0-25.0\",\"\",\"\",\"1-4\",\"4820\",\"37\",\"1\",\"Training\",\"Stims/Figures/128-J-10-3.bmp\",\"tapata\",\"Right\",\"37\",\"2\",\"6\",\"9\",\"P\",\"J\",\"22\"
\"\",\"\",\"approach-retreat\",\"26\",\"548482\",\"0.0-26.0\",\"\",\"\",\"1-4\",\"9166\",\"39\",\"1\",\"Training\",\"Stims/Figures/7-J-10-4.bmp\",\"vafa:va\",\"Left\",\"39\",\"2\",\"7\",\"9\",\"C1\",\"J\",\"23\"
\"\",\"\",\"approach-retreat\",\"27\",\"556397\",\"0.0-27.0\",\"\",\"\",\"1-4\",\"6403\",\"38\",\"1\",\"Training\",\"Stims/Figures/94-J-0-2.bmp\",\"saha:za\",\"Down\",\"38\",\"2\",\"8\",\"9\",\"C2\",\"J\",\"24\"
\"\",\"\",\"approach-retreat\",\"28\",\"562842\",\"0.0-28.0\",\"\",\"\",\"1-4\",\"4932\",\"38\",\"0\",\"Training\",\"Stims/Figures/7-C-20-4.bmp\",\"mala:la\",\"Down\",\"40\",\"2\",\"9\",\"9\",\"S\",\"J\",\"25\"
\"\",\"\",\"approach-retreat\",\"29\",\"574630\",\"0.0-29.0\",\"\",\"\",\"1-4\",\"10276\",\"39\",\"1\",\"Training\",\"Stims/Figures/128-C-30-3.bmp\",\"malala\",\"Right\",\"39\",\"2\",\"10\",\"9\",\"S\",\"J\",\"26\"
\"\",\"\",\"approach-retreat\",\"30\",\"582019\",\"0.0-30.0\",\"\",\"\",\"1-4\",\"5876\",\"40\",\"1\",\"Training\",\"Stims/Figures/86-J-0-1.bmp\",\"zahaha\",\"Up\",\"40\",\"2\",\"11\",\"9\",\"C2\",\"J\",\"27\"
\"\",\"\",\"approach-retreat\",\"31\",\"590037\",\"0.0-31.0\",\"\",\"\",\"1-4\",\"6505\",\"37\",\"0\",\"Training\",\"Stims/Figures/94-C-20-2.bmp\",\"ta:pa:ta\",\"Right\",\"39\",\"2\",\"12\",\"9\",\"P\",\"J\",\"28\"
\"\",\"\",\"approach-retreat\",\"32\",\"596546\",\"0.0-32.0\",\"\",\"\",\"1-4\",\"4995\",\"39\",\"1\",\"Training\",\"Stims/Figures/44-J-10-3.bmp\",\"saha:ha\",\"Left\",\"39\",\"2\",\"13\",\"9\",\"C2\",\"J\",\"29\"
\"\",\"\",\"approach-retreat\",\"33\",\"603622\",\"0.0-33.0\",\"\",\"\",\"1-4\",\"5563\",\"37\",\"0\",\"Training\",\"Stims/Figures/86-C-30-1.bmp\",\"fa:shasha\",\"Right\",\"39\",\"2\",\"14\",\"9\",\"C1\",\"J\",\"30\"
\"\",\"\",\"approach-retreat\",\"34\",\"610224\",\"0.0-34.0\",\"\",\"\",\"1-4\",\"5089\",\"39\",\"1\",\"Training\",\"Stims/Figures/85-J-0-2.bmp\",\"pa:kata\",\"Left\",\"39\",\"2\",\"15\",\"9\",\"P\",\"J\",\"31\"
\"\",\"\",\"approach-retreat\",\"35\",\"617500\",\"0.0-35.0\",\"\",\"\",\"1-4\",\"5762\",\"40\",\"1\",\"Training\",\"Stims/Figures/102-J-10-4.bmp\",\"fasha:sha\",\"Up\",\"40\",\"2\",\"16\",\"9\",\"C1\",\"J\",\"32\"
\"\",\"\",\"approach-retreat\",\"36\",\"624421\",\"0.0-36.0\",\"\",\"\",\"1-4\",\"5408\",\"37\",\"1\",\"Training\",\"Stims/Figures/94-J-0-2.bmp\",\"saha:za\",\"Right\",\"37\",\"3\",\"1\",\"9\",\"C2\",\"J\",\"33\"
\"\",\"\",\"approach-retreat\",\"37\",\"630903\",\"0.0-37.0\",\"\",\"\",\"1-4\",\"4969\",\"39\",\"1\",\"Training\",\"Stims/Figures/85-J-0-2.bmp\",\"pa:kata\",\"Left\",\"39\",\"3\",\"2\",\"9\",\"P\",\"J\",\"34\"
\"\",\"\",\"approach-retreat\",\"38\",\"638328\",\"0.0-38.0\",\"\",\"\",\"1-4\",\"5909\",\"38\",\"0\",\"Training\",\"Stims/Figures/94-C-20-2.bmp\",\"ta:pa:ta\",\"Down\",\"40\",\"3\",\"3\",\"9\",\"P\",\"J\",\"35\"
\"\",\"\",\"approach-retreat\",\"39\",\"644873\",\"0.0-39.0\",\"\",\"\",\"1-4\",\"5031\",\"37\",\"0\",\"Training\",\"Stims/Figures/102-C-20-4.bmp\",\"namala\",\"Right\",\"39\",\"3\",\"4\",\"9\",\"S\",\"J\",\"36\"
\"\",\"\",\"approach-retreat\",\"40\",\"651902\",\"0.0-40.0\",\"\",\"\",\"1-4\",\"5523\",\"38\",\"1\",\"Training\",\"Stims/Figures/7-C-20-4.bmp\",\"mala:la\",\"Up\",\"38\",\"3\",\"5\",\"9\",\"S\",\"J\",\"37\"
\"\",\"\",\"approach-retreat\",\"41\",\"658259\",\"0.0-41.0\",\"\",\"\",\"1-4\",\"4844\",\"39\",\"1\",\"Training\",\"Stims/Figures/44-J-10-3.bmp\",\"saha:ha\",\"Left\",\"39\",\"3\",\"6\",\"9\",\"C2\",\"J\",\"38\"
\"\",\"\",\"approach-retreat\",\"42\",\"664813\",\"0.0-42.0\",\"\",\"\",\"1-4\",\"5042\",\"37\",\"1\",\"Training\",\"Stims/Figures/7-J-10-4.bmp\",\"vafa:va\",\"Right\",\"37\",\"3\",\"7\",\"9\",\"C1\",\"J\",\"39\"
\"\",\"\",\"approach-retreat\",\"43\",\"672024\",\"0.0-43.0\",\"\",\"\",\"1-4\",\"5698\",\"38\",\"0\",\"Training\",\"Stims/Figures/85-C-20-2.bmp\",\"papa:ta\",\"Down\",\"40\",\"3\",\"8\",\"9\",\"P\",\"J\",\"40\"
\"\",\"\",\"approach-retreat\",\"44\",\"679511\",\"0.0-44.0\",\"\",\"\",\"1-4\",\"5968\",\"38\",\"0\",\"Training\",\"Stims/Figures/102-J-10-4.bmp\",\"fasha:sha\",\"Up\",\"40\",\"3\",\"9\",\"9\",\"C1\",\"J\",\"41\"
\"\",\"\",\"approach-retreat\",\"45\",\"687637\",\"0.0-45.0\",\"\",\"\",\"1-4\",\"6614\",\"39\",\"1\",\"Training\",\"Stims/Figures/27-C-30-1.bmp\",\"pa:ka:ka\",\"Right\",\"39\",\"3\",\"10\",\"9\",\"P\",\"J\",\"42\"
\"\",\"\",\"approach-retreat\",\"46\",\"694620\",\"0.0-46.0\",\"\",\"\",\"1-4\",\"5470\",\"40\",\"1\",\"Training\",\"Stims/Figures/44-C-30-3.bmp\",\"zaha:za\",\"Down\",\"40\",\"3\",\"11\",\"9\",\"C2\",\"J\",\"43\"
\"\",\"\",\"approach-retreat\",\"47\",\"701425\",\"0.0-47.0\",\"\",\"\",\"1-4\",\"5292\",\"38\",\"0\",\"Training\",\"Stims/Figures/86-C-30-1.bmp\",\"fa:shasha\",\"Down\",\"40\",\"3\",\"12\",\"9\",\"C1\",\"J\",\"44\"
\"\",\"\",\"approach-retreat\",\"48\",\"708590\",\"0.0-48.0\",\"\",\"\",\"1-4\",\"5653\",\"37\",\"0\",\"Training\",\"Stims/Figures/27-J-0-1.bmp\",\"fafa:sha\",\"Left\",\"39\",\"3\",\"13\",\"9\",\"C1\",\"J\",\"45\"
\"\",\"\",\"approach-retreat\",\"49\",\"714872\",\"0.0-49.0\",\"\",\"\",\"1-4\",\"4771\",\"39\",\"1\",\"Training\",\"Stims/Figures/128-J-10-3.bmp\",\"tapata\",\"Left\",\"39\",\"3\",\"14\",\"9\",\"P\",\"J\",\"46\"
\"\",\"\",\"approach-retreat\",\"50\",\"724116\",\"0.0-50.0\",\"\",\"\",\"1-4\",\"7731\",\"40\",\"1\",\"Training\",\"Stims/Figures/86-J-0-1.bmp\",\"zahaha\",\"Up\",\"40\",\"3\",\"15\",\"9\",\"C2\",\"J\",\"47\"
\"\",\"\",\"approach-retreat\",\"51\",\"730312\",\"0.0-51.0\",\"\",\"\",\"1-4\",\"4683\",\"40\",\"0\",\"Training\",\"Stims/Figures/128-C-30-3.bmp\",\"malala\",\"Up\",\"38\",\"3\",\"16\",\"9\",\"S\",\"J\",\"48\"
\"\",\"\",\"approach-retreat\",\"52\",\"736629\",\"0.0-52.0\",\"\",\"\",\"1-4\",\"4805\",\"40\",\"1\",\"Training\",\"Stims/Figures/85-J-0-2.bmp\",\"pa:kata\",\"Up\",\"40\",\"4\",\"1\",\"9\",\"P\",\"J\",\"49\"
\"\",\"\",\"approach-retreat\",\"53\",\"743088\",\"0.0-53.0\",\"\",\"\",\"1-4\",\"4953\",\"37\",\"0\",\"Training\",\"Stims/Figures/94-C-20-2.bmp\",\"ta:pa:ta\",\"Right\",\"39\",\"4\",\"2\",\"9\",\"P\",\"J\",\"50\"
\"\",\"\",\"approach-retreat\",\"54\",\"751303\",\"0.0-54.0\",\"\",\"\",\"1-4\",\"6703\",\"37\",\"0\",\"Training\",\"Stims/Figures/128-C-30-3.bmp\",\"malala\",\"Right\",\"39\",\"4\",\"3\",\"9\",\"S\",\"J\",\"51\"
\"\",\"\",\"approach-retreat\",\"55\",\"758416\",\"0.0-55.0\",\"\",\"\",\"1-4\",\"5601\",\"38\",\"1\",\"Training\",\"Stims/Figures/7-C-20-4.bmp\",\"mala:la\",\"Up\",\"38\",\"4\",\"4\",\"9\",\"S\",\"J\",\"52\"
\"\",\"\",\"approach-retreat\",\"56\",\"766051\",\"0.0-56.0\",\"\",\"\",\"1-4\",\"6122\",\"37\",\"0\",\"Training\",\"Stims/Figures/94-J-0-2.bmp\",\"saha:za\",\"Left\",\"39\",\"4\",\"5\",\"9\",\"C2\",\"J\",\"53\"
\"\",\"\",\"approach-retreat\",\"57\",\"773362\",\"0.0-57.0\",\"\",\"\",\"1-4\",\"5798\",\"38\",\"1\",\"Training\",\"Stims/Figures/27-C-30-1.bmp\",\"pa:ka:ka\",\"Up\",\"38\",\"4\",\"6\",\"9\",\"P\",\"J\",\"54\"
\"\",\"\",\"approach-retreat\",\"58\",\"780866\",\"0.0-58.0\",\"\",\"\",\"1-4\",\"5998\",\"37\",\"1\",\"Training\",\"Stims/Figures/86-J-0-1.bmp\",\"zahaha\",\"Right\",\"37\",\"4\",\"7\",\"9\",\"C2\",\"J\",\"55\"
\"\",\"\",\"approach-retreat\",\"59\",\"788163\",\"0.0-59.0\",\"\",\"\",\"1-4\",\"5784\",\"38\",\"1\",\"Training\",\"Stims/Figures/27-J-0-1.bmp\",\"fafa:sha\",\"Down\",\"38\",\"4\",\"8\",\"9\",\"C1\",\"J\",\"56\"
\"\",\"\",\"approach-retreat\",\"60\",\"798920\",\"0.0-60.0\",\"\",\"\",\"1-4\",\"9243\",\"37\",\"0\",\"Training\",\"Stims/Figures/44-J-10-3.bmp\",\"saha:ha\",\"Left\",\"39\",\"4\",\"9\",\"9\",\"C2\",\"J\",\"57\"
\"\",\"\",\"approach-retreat\",\"61\",\"806664\",\"0.0-61.0\",\"\",\"\",\"1-4\",\"6231\",\"39\",\"0\",\"Training\",\"Stims/Figures/44-C-30-3.bmp\",\"zaha:za\",\"Left\",\"37\",\"4\",\"10\",\"9\",\"C2\",\"J\",\"58\"
\"\",\"\",\"approach-retreat\",\"62\",\"813691\",\"0.0-62.0\",\"\",\"\",\"1-4\",\"5515\",\"38\",\"0\",\"Training\",\"Stims/Figures/102-C-20-4.bmp\",\"namala\",\"Down\",\"40\",\"4\",\"11\",\"9\",\"S\",\"J\",\"59\"
\"\",\"\",\"approach-retreat\",\"63\",\"820622\",\"0.0-63.0\",\"\",\"\",\"1-4\",\"5418\",\"40\",\"1\",\"Training\",\"Stims/Figures/128-J-10-3.bmp\",\"tapata\",\"Up\",\"40\",\"4\",\"12\",\"9\",\"P\",\"J\",\"60\"
\"\",\"\",\"approach-retreat\",\"64\",\"828046\",\"0.0-64.0\",\"\",\"\",\"1-4\",\"5911\",\"37\",\"0\",\"Training\",\"Stims/Figures/102-J-10-4.bmp\",\"fasha:sha\",\"Left\",\"39\",\"4\",\"13\",\"9\",\"C1\",\"J\",\"61\"
\"\",\"\",\"approach-retreat\",\"65\",\"836219\",\"0.0-65.0\",\"\",\"\",\"1-4\",\"6661\",\"39\",\"1\",\"Training\",\"Stims/Figures/85-C-20-2.bmp\",\"papa:ta\",\"Right\",\"39\",\"4\",\"14\",\"9\",\"P\",\"J\",\"62\"
\"\",\"\",\"approach-retreat\",\"66\",\"844552\",\"0.0-66.0\",\"\",\"\",\"1-4\",\"6821\",\"40\",\"0\",\"Training\",\"Stims/Figures/7-J-10-4.bmp\",\"vafa:va\",\"Down\",\"38\",\"4\",\"15\",\"9\",\"C1\",\"J\",\"63\"
\"\",\"\",\"approach-retreat\",\"67\",\"851738\",\"0.0-67.0\",\"\",\"\",\"1-4\",\"5674\",\"38\",\"0\",\"Training\",\"Stims/Figures/86-C-30-1.bmp\",\"fa:shasha\",\"Down\",\"40\",\"4\",\"16\",\"9\",\"C1\",\"J\",\"64\"
\"\",\"\",\"approach-retreat\",\"68\",\"858935\",\"0.0-68.0\",\"\",\"\",\"1-4\",\"5683\",\"38\",\"0\",\"Training\",\"Stims/Figures/7-C-20-4.bmp\",\"mala:la\",\"Down\",\"40\",\"5\",\"1\",\"9\",\"S\",\"J\",\"65\"
\"\",\"\",\"approach-retreat\",\"69\",\"867248\",\"0.0-69.0\",\"\",\"\",\"1-4\",\"6801\",\"37\",\"0\",\"Training\",\"Stims/Figures/102-C-20-4.bmp\",\"namala\",\"Right\",\"39\",\"5\",\"2\",\"9\",\"S\",\"J\",\"66\"
\"\",\"\",\"approach-retreat\",\"70\",\"874276\",\"0.0-70.0\",\"\",\"\",\"1-4\",\"5516\",\"40\",\"1\",\"Training\",\"Stims/Figures/44-J-10-3.bmp\",\"saha:ha\",\"Up\",\"40\",\"5\",\"3\",\"9\",\"C2\",\"J\",\"67\"
\"\",\"\",\"approach-retreat\",\"71\",\"880441\",\"0.0-71.0\",\"\",\"\",\"1-4\",\"4652\",\"40\",\"1\",\"Training\",\"Stims/Figures/85-J-0-2.bmp\",\"pa:kata\",\"Up\",\"40\",\"5\",\"4\",\"9\",\"P\",\"J\",\"68\"
\"\",\"\",\"approach-retreat\",\"72\",\"886883\",\"0.0-72.0\",\"\",\"\",\"1-4\",\"4930\",\"39\",\"0\",\"Training\",\"Stims/Figures/85-C-20-2.bmp\",\"papa:ta\",\"Left\",\"37\",\"5\",\"5\",\"9\",\"P\",\"J\",\"69\"
\"\",\"\",\"approach-retreat\",\"73\",\"893433\",\"0.0-73.0\",\"\",\"\",\"1-4\",\"5038\",\"39\",\"0\",\"Training\",\"Stims/Figures/44-C-30-3.bmp\",\"zaha:za\",\"Left\",\"37\",\"5\",\"6\",\"9\",\"C2\",\"J\",\"70\"
\"\",\"\",\"approach-retreat\",\"74\",\"899939\",\"0.0-74.0\",\"\",\"\",\"1-4\",\"5000\",\"38\",\"0\",\"Training\",\"Stims/Figures/86-C-30-1.bmp\",\"fa:shasha\",\"Down\",\"40\",\"5\",\"7\",\"9\",\"C1\",\"J\",\"71\"
\"\",\"\",\"approach-retreat\",\"75\",\"906324\",\"0.0-75.0\",\"\",\"\",\"1-4\",\"4873\",\"38\",\"1\",\"Training\",\"Stims/Figures/86-J-0-1.bmp\",\"zahaha\",\"Down\",\"38\",\"5\",\"8\",\"9\",\"C2\",\"J\",\"72\"
\"\",\"\",\"approach-retreat\",\"76\",\"912855\",\"0.0-76.0\",\"\",\"\",\"1-4\",\"5025\",\"39\",\"1\",\"Training\",\"Stims/Figures/94-J-0-2.bmp\",\"saha:za\",\"Left\",\"39\",\"5\",\"9\",\"9\",\"C2\",\"J\",\"73\"
\"\",\"\",\"approach-retreat\",\"77\",\"919406\",\"0.0-77.0\",\"\",\"\",\"1-4\",\"5038\",\"37\",\"1\",\"Training\",\"Stims/Figures/128-J-10-3.bmp\",\"tapata\",\"Right\",\"37\",\"5\",\"10\",\"9\",\"P\",\"J\",\"74\"
\"\",\"\",\"approach-retreat\",\"78\",\"925967\",\"0.0-78.0\",\"\",\"\",\"1-4\",\"5047\",\"37\",\"1\",\"Training\",\"Stims/Figures/102-J-10-4.bmp\",\"fasha:sha\",\"Right\",\"37\",\"5\",\"11\",\"9\",\"C1\",\"J\",\"75\"
\"\",\"\",\"approach-retreat\",\"79\",\"932669\",\"0.0-79.0\",\"\",\"\",\"1-4\",\"5190\",\"40\",\"1\",\"Training\",\"Stims/Figures/27-J-0-1.bmp\",\"fafa:sha\",\"Up\",\"40\",\"5\",\"12\",\"9\",\"C1\",\"J\",\"76\"
\"\",\"\",\"approach-retreat\",\"80\",\"939225\",\"0.0-80.0\",\"\",\"\",\"1-4\",\"5042\",\"38\",\"0\",\"Training\",\"Stims/Figures/94-C-20-2.bmp\",\"ta:pa:ta\",\"Down\",\"40\",\"5\",\"13\",\"9\",\"P\",\"J\",\"77\"
\"\",\"\",\"approach-retreat\",\"81\",\"945759\",\"0.0-81.0\",\"\",\"\",\"1-4\",\"5021\",\"37\",\"0\",\"Training\",\"Stims/Figures/128-C-30-3.bmp\",\"malala\",\"Right\",\"39\",\"5\",\"14\",\"9\",\"S\",\"J\",\"78\"
\"\",\"\",\"approach-retreat\",\"82\",\"952684\",\"0.0-82.0\",\"\",\"\",\"1-4\",\"5408\",\"40\",\"0\",\"Training\",\"Stims/Figures/27-C-30-1.bmp\",\"pa:ka:ka\",\"Up\",\"38\",\"5\",\"15\",\"9\",\"P\",\"J\",\"79\"
\"\",\"\",\"approach-retreat\",\"83\",\"960120\",\"0.0-83.0\",\"\",\"\",\"1-4\",\"5924\",\"39\",\"1\",\"Training\",\"Stims/Figures/7-J-10-4.bmp\",\"vafa:va\",\"Left\",\"39\",\"5\",\"16\",\"9\",\"C1\",\"J\",\"80\"
\"\",\"\",\"approach-retreat\",\"84\",\"967855\",\"0.0-84.0\",\"\",\"\",\"1-4\",\"6222\",\"40\",\"0\",\"Training\",\"Stims/Figures/44-J-10-3.bmp\",\"saha:ha\",\"Down\",\"38\",\"6\",\"1\",\"9\",\"C2\",\"J\",\"81\"
\"\",\"\",\"approach-retreat\",\"85\",\"974698\",\"0.0-85.0\",\"\",\"\",\"1-4\",\"5330\",\"38\",\"0\",\"Training\",\"Stims/Figures/44-C-30-3.bmp\",\"zaha:za\",\"Down\",\"40\",\"6\",\"2\",\"9\",\"C2\",\"J\",\"82\"
\"\",\"\",\"approach-retreat\",\"86\",\"980897\",\"0.0-86.0\",\"\",\"\",\"1-4\",\"4687\",\"39\",\"0\",\"Training\",\"Stims/Figures/94-C-20-2.bmp\",\"ta:pa:ta\",\"Left\",\"37\",\"6\",\"3\",\"9\",\"P\",\"J\",\"83\"
\"\",\"\",\"approach-retreat\",\"87\",\"987062\",\"0.0-87.0\",\"\",\"\",\"1-4\",\"4653\",\"37\",\"1\",\"Training\",\"Stims/Figures/94-J-0-2.bmp\",\"saha:za\",\"Right\",\"37\",\"6\",\"4\",\"9\",\"C2\",\"J\",\"84\"
\"\",\"\",\"approach-retreat\",\"88\",\"994866\",\"0.0-88.0\",\"\",\"\",\"1-4\",\"6292\",\"37\",\"0\",\"Training\",\"Stims/Figures/27-J-0-1.bmp\",\"fafa:sha\",\"Left\",\"39\",\"6\",\"5\",\"9\",\"C1\",\"J\",\"85\"
\"\",\"\",\"approach-retreat\",\"89\",\"1000720\",\"0.0-89.0\",\"\",\"\",\"1-4\",\"4342\",\"37\",\"0\",\"Training\",\"Stims/Figures/102-C-20-4.bmp\",\"namala\",\"Right\",\"39\",\"6\",\"6\",\"9\",\"S\",\"J\",\"86\"
\"\",\"\",\"approach-retreat\",\"90\",\"1006912\",\"0.0-90.0\",\"\",\"\",\"1-4\",\"4678\",\"37\",\"1\",\"Training\",\"Stims/Figures/86-C-30-1.bmp\",\"fa:shasha\",\"Left\",\"37\",\"6\",\"7\",\"9\",\"C1\",\"J\",\"87\"
\"\",\"\",\"approach-retreat\",\"91\",\"1014763\",\"0.0-91.0\",\"\",\"\",\"1-4\",\"6336\",\"40\",\"1\",\"Training\",\"Stims/Figures/85-C-20-2.bmp\",\"papa:ta\",\"Down\",\"40\",\"6\",\"8\",\"9\",\"P\",\"J\",\"88\"
\"\",\"\",\"approach-retreat\",\"92\",\"1022464\",\"0.0-92.0\",\"\",\"\",\"1-4\",\"6188\",\"37\",\"1\",\"Training\",\"Stims/Figures/7-C-20-4.bmp\",\"mala:la\",\"Left\",\"37\",\"6\",\"9\",\"9\",\"S\",\"J\",\"89\"
\"\",\"\",\"approach-retreat\",\"93\",\"1029180\",\"0.0-93.0\",\"\",\"\",\"1-4\",\"5204\",\"37\",\"1\",\"Training\",\"Stims/Figures/128-J-10-3.bmp\",\"tapata\",\"Right\",\"37\",\"6\",\"10\",\"9\",\"P\",\"J\",\"90\"
\"\",\"\",\"approach-retreat\",\"94\",\"1036079\",\"0.0-94.0\",\"\",\"\",\"1-4\",\"5381\",\"40\",\"1\",\"Training\",\"Stims/Figures/86-J-0-1.bmp\",\"zahaha\",\"Up\",\"40\",\"6\",\"11\",\"9\",\"C2\",\"J\",\"91\"
\"\",\"\",\"approach-retreat\",\"95\",\"1045564\",\"0.0-95.0\",\"\",\"\",\"1-4\",\"7972\",\"37\",\"1\",\"Training\",\"Stims/Figures/7-J-10-4.bmp\",\"vafa:va\",\"Right\",\"37\",\"6\",\"12\",\"9\",\"C1\",\"J\",\"92\"
\"\",\"\",\"approach-retreat\",\"96\",\"1052765\",\"0.0-96.0\",\"\",\"\",\"1-4\",\"5688\",\"38\",\"0\",\"Training\",\"Stims/Figures/85-J-0-2.bmp\",\"pa:kata\",\"Up\",\"40\",\"6\",\"13\",\"9\",\"P\",\"J\",\"93\"
\"\",\"\",\"approach-retreat\",\"97\",\"1060151\",\"0.0-97.0\",\"\",\"\",\"1-4\",\"5874\",\"38\",\"1\",\"Training\",\"Stims/Figures/128-C-30-3.bmp\",\"malala\",\"Up\",\"38\",\"6\",\"14\",\"9\",\"S\",\"J\",\"94\"
\"\",\"\",\"approach-retreat\",\"98\",\"1067921\",\"0.0-98.0\",\"\",\"\",\"1-4\",\"6256\",\"40\",\"1\",\"Training\",\"Stims/Figures/27-C-30-1.bmp\",\"pa:ka:ka\",\"Down\",\"40\",\"6\",\"15\",\"9\",\"P\",\"J\",\"95\"
\"\",\"\",\"approach-retreat\",\"99\",\"1074807\",\"0.0-99.0\",\"\",\"\",\"1-4\",\"5373\",\"38\",\"0\",\"Training\",\"Stims/Figures/102-J-10-4.bmp\",\"fasha:sha\",\"Up\",\"40\",\"6\",\"16\",\"9\",\"C1\",\"J\",\"96\"
\"\",\"\",\"approach-retreat\",\"100\",\"1081566\",\"0.0-100.0\",\"\",\"\",\"1-4\",\"5247\",\"40\",\"0\",\"Training\",\"Stims/Figures/86-J-0-1.bmp\",\"zahaha\",\"Down\",\"38\",\"7\",\"1\",\"9\",\"C2\",\"J\",\"97\"
\"\",\"\",\"approach-retreat\",\"101\",\"1088620\",\"0.0-101.0\",\"\",\"\",\"1-4\",\"5540\",\"37\",\"1\",\"Training\",\"Stims/Figures/94-C-20-2.bmp\",\"ta:pa:ta\",\"Left\",\"37\",\"7\",\"2\",\"9\",\"P\",\"J\",\"98\"
\"\",\"\",\"approach-retreat\",\"102\",\"1095596\",\"0.0-102.0\",\"\",\"\",\"1-4\",\"5464\",\"38\",\"0\",\"Training\",\"Stims/Figures/85-J-0-2.bmp\",\"pa:kata\",\"Up\",\"40\",\"7\",\"3\",\"9\",\"P\",\"J\",\"99\"
\"\",\"\",\"approach-retreat\",\"103\",\"1103829\",\"0.0-103.0\",\"\",\"\",\"1-4\",\"6721\",\"38\",\"1\",\"Training\",\"Stims/Figures/86-C-30-1.bmp\",\"fa:shasha\",\"Up\",\"38\",\"7\",\"4\",\"9\",\"C1\",\"J\",\"100\"
\"\",\"\",\"approach-retreat\",\"104\",\"1110721\",\"0.0-104.0\",\"\",\"\",\"1-4\",\"5380\",\"37\",\"1\",\"Training\",\"Stims/Figures/102-C-20-4.bmp\",\"namala\",\"Left\",\"37\",\"7\",\"5\",\"9\",\"S\",\"J\",\"101\"
\"\",\"\",\"approach-retreat\",\"105\",\"1117121\",\"0.0-105.0\",\"\",\"\",\"1-4\",\"4886\",\"37\",\"1\",\"Training\",\"Stims/Figures/94-J-0-2.bmp\",\"saha:za\",\"Right\",\"37\",\"7\",\"6\",\"9\",\"C2\",\"J\",\"102\"
\"\",\"\",\"approach-retreat\",\"106\",\"1124242\",\"0.0-106.0\",\"\",\"\",\"1-4\",\"5609\",\"39\",\"0\",\"Training\",\"Stims/Figures/44-J-10-3.bmp\",\"saha:ha\",\"Right\",\"37\",\"7\",\"7\",\"9\",\"C2\",\"J\",\"103\"
\"\",\"\",\"approach-retreat\",\"107\",\"1130779\",\"0.0-107.0\",\"\",\"\",\"1-4\",\"5025\",\"38\",\"1\",\"Training\",\"Stims/Figures/27-J-0-1.bmp\",\"fafa:sha\",\"Down\",\"38\",\"7\",\"8\",\"9\",\"C1\",\"J\",\"104\"
\"\",\"\",\"approach-retreat\",\"108\",\"1137051\",\"0.0-108.0\",\"\",\"\",\"1-4\",\"4760\",\"37\",\"1\",\"Training\",\"Stims/Figures/128-J-10-3.bmp\",\"tapata\",\"Right\",\"37\",\"7\",\"9\",\"9\",\"P\",\"J\",\"105\"
\"\",\"\",\"approach-retreat\",\"109\",\"1143224\",\"0.0-109.0\",\"\",\"\",\"1-4\",\"4660\",\"39\",\"1\",\"Training\",\"Stims/Figures/7-C-20-4.bmp\",\"mala:la\",\"Right\",\"39\",\"7\",\"10\",\"9\",\"S\",\"J\",\"106\"
\"\",\"\",\"approach-retreat\",\"110\",\"1152074\",\"0.0-110.0\",\"\",\"\",\"1-4\",\"7344\",\"38\",\"1\",\"Training\",\"Stims/Figures/128-C-30-3.bmp\",\"malala\",\"Up\",\"38\",\"7\",\"11\",\"9\",\"S\",\"J\",\"107\"
\"\",\"\",\"approach-retreat\",\"111\",\"1158675\",\"0.0-111.0\",\"\",\"\",\"1-4\",\"5089\",\"37\",\"1\",\"Training\",\"Stims/Figures/27-C-30-1.bmp\",\"pa:ka:ka\",\"Left\",\"37\",\"7\",\"12\",\"9\",\"P\",\"J\",\"108\"
\"\",\"\",\"approach-retreat\",\"112\",\"1165491\",\"0.0-112.0\",\"\",\"\",\"1-4\",\"5303\",\"40\",\"1\",\"Training\",\"Stims/Figures/85-C-20-2.bmp\",\"papa:ta\",\"Down\",\"40\",\"7\",\"13\",\"9\",\"P\",\"J\",\"109\"
\"\",\"\",\"approach-retreat\",\"113\",\"1171892\",\"0.0-113.0\",\"\",\"\",\"1-4\",\"4889\",\"39\",\"0\",\"Training\",\"Stims/Figures/44-C-30-3.bmp\",\"zaha:za\",\"Left\",\"37\",\"7\",\"14\",\"9\",\"C2\",\"J\",\"110\"
\"\",\"\",\"approach-retreat\",\"114\",\"1178793\",\"0.0-114.0\",\"\",\"\",\"1-4\",\"5390\",\"38\",\"0\",\"Training\",\"Stims/Figures/7-J-10-4.bmp\",\"vafa:va\",\"Up\",\"40\",\"7\",\"15\",\"9\",\"C1\",\"J\",\"111\"
\"\",\"\",\"approach-retreat\",\"115\",\"1185775\",\"0.0-115.0\",\"\",\"\",\"1-4\",\"5469\",\"40\",\"0\",\"Training\",\"Stims/Figures/102-J-10-4.bmp\",\"fasha:sha\",\"Down\",\"38\",\"7\",\"16\",\"9\",\"C1\",\"J\",\"112\"
\"\",\"\",\"approach-retreat\",\"116\",\"1192378\",\"0.0-116.0\",\"\",\"\",\"1-4\",\"5091\",\"39\",\"0\",\"Training\",\"Stims/Figures/102-C-20-4.bmp\",\"namala\",\"Left\",\"37\",\"8\",\"1\",\"9\",\"S\",\"J\",\"113\"
\"\",\"\",\"approach-retreat\",\"117\",\"1198661\",\"0.0-117.0\",\"\",\"\",\"1-4\",\"4771\",\"38\",\"1\",\"Training\",\"Stims/Figures/7-C-20-4.bmp\",\"mala:la\",\"Up\",\"38\",\"8\",\"2\",\"9\",\"S\",\"J\",\"114\"
\"\",\"\",\"approach-retreat\",\"118\",\"1205069\",\"0.0-118.0\",\"\",\"\",\"1-4\",\"4895\",\"37\",\"1\",\"Training\",\"Stims/Figures/128-J-10-3.bmp\",\"tapata\",\"Right\",\"37\",\"8\",\"3\",\"9\",\"P\",\"J\",\"115\"
\"\",\"\",\"approach-retreat\",\"119\",\"1211433\",\"0.0-119.0\",\"\",\"\",\"1-4\",\"4851\",\"40\",\"0\",\"Training\",\"Stims/Figures/27-C-30-1.bmp\",\"pa:ka:ka\",\"Up\",\"38\",\"8\",\"4\",\"9\",\"P\",\"J\",\"116\"
\"\",\"\",\"approach-retreat\",\"120\",\"1219273\",\"0.0-120.0\",\"\",\"\",\"1-4\",\"6326\",\"37\",\"1\",\"Training\",\"Stims/Figures/86-C-30-1.bmp\",\"fa:shasha\",\"Left\",\"37\",\"8\",\"5\",\"9\",\"C1\",\"J\",\"117\"
\"\",\"\",\"approach-retreat\",\"121\",\"1226536\",\"0.0-121.0\",\"\",\"\",\"1-4\",\"5751\",\"39\",\"0\",\"Training\",\"Stims/Figures/94-J-0-2.bmp\",\"saha:za\",\"Right\",\"37\",\"8\",\"6\",\"9\",\"C2\",\"J\",\"118\"
\"\",\"\",\"approach-retreat\",\"122\",\"1232758\",\"0.0-122.0\",\"\",\"\",\"1-4\",\"4710\",\"40\",\"0\",\"Training\",\"Stims/Figures/102-J-10-4.bmp\",\"fasha:sha\",\"Down\",\"38\",\"8\",\"7\",\"9\",\"C1\",\"J\",\"119\"
\"\",\"\",\"approach-retreat\",\"123\",\"1239209\",\"0.0-123.0\",\"\",\"\",\"1-4\",\"4938\",\"39\",\"1\",\"Training\",\"Stims/Figures/27-J-0-1.bmp\",\"fafa:sha\",\"Left\",\"39\",\"8\",\"8\",\"9\",\"C1\",\"J\",\"120\"
\"\",\"\",\"approach-retreat\",\"124\",\"1245813\",\"0.0-124.0\",\"\",\"\",\"1-4\",\"5091\",\"39\",\"0\",\"Training\",\"Stims/Figures/94-C-20-2.bmp\",\"ta:pa:ta\",\"Left\",\"37\",\"8\",\"9\",\"9\",\"P\",\"J\",\"121\"
\"\",\"\",\"approach-retreat\",\"125\",\"1252165\",\"0.0-125.0\",\"\",\"\",\"1-4\",\"4840\",\"39\",\"0\",\"Training\",\"Stims/Figures/85-J-0-2.bmp\",\"pa:kata\",\"Right\",\"37\",\"8\",\"10\",\"9\",\"P\",\"J\",\"122\"
\"\",\"\",\"approach-retreat\",\"126\",\"1258772\",\"0.0-126.0\",\"\",\"\",\"1-4\",\"5101\",\"40\",\"1\",\"Training\",\"Stims/Figures/128-C-30-3.bmp\",\"malala\",\"Down\",\"40\",\"8\",\"11\",\"9\",\"S\",\"J\",\"123\"
\"\",\"\",\"approach-retreat\",\"127\",\"1265840\",\"0.0-127.0\",\"\",\"\",\"1-4\",\"5555\",\"38\",\"1\",\"Training\",\"Stims/Figures/85-C-20-2.bmp\",\"papa:ta\",\"Up\",\"38\",\"8\",\"12\",\"9\",\"P\",\"J\",\"124\"
\"\",\"\",\"approach-retreat\",\"128\",\"1272562\",\"0.0-128.0\",\"\",\"\",\"1-4\",\"5210\",\"38\",\"0\",\"Training\",\"Stims/Figures/86-J-0-1.bmp\",\"zahaha\",\"Up\",\"40\",\"8\",\"13\",\"9\",\"C2\",\"J\",\"125\"
\"\",\"\",\"approach-retreat\",\"129\",\"1279742\",\"0.0-129.0\",\"\",\"\",\"1-4\",\"5668\",\"40\",\"1\",\"Training\",\"Stims/Figures/44-C-30-3.bmp\",\"zaha:za\",\"Down\",\"40\",\"8\",\"14\",\"9\",\"C2\",\"J\",\"126\"
\"\",\"\",\"approach-retreat\",\"130\",\"1287007\",\"0.0-130.0\",\"\",\"\",\"1-4\",\"5752\",\"40\",\"0\",\"Training\",\"Stims/Figures/7-J-10-4.bmp\",\"vafa:va\",\"Down\",\"38\",\"8\",\"15\",\"9\",\"C1\",\"J\",\"127\"
\"\",\"\",\"approach-retreat\",\"131\",\"1293488\",\"0.0-131.0\",\"\",\"\",\"1-4\",\"4969\",\"39\",\"0\",\"Training\",\"Stims/Figures/44-J-10-3.bmp\",\"saha:ha\",\"Right\",\"37\",\"8\",\"16\",\"9\",\"C2\",\"J\",\"128\"
\"\",\"\",\"approach-retreat\",\"132\",\"1299985\",\"0.0-132.0\",\"\",\"\",\"1-4\",\"4985\",\"39\",\"0\",\"Training\",\"Stims/Figures/94-C-20-2.bmp\",\"ta:pa:ta\",\"Left\",\"37\",\"9\",\"1\",\"9\",\"P\",\"J\",\"129\"
\"\",\"\",\"approach-retreat\",\"133\",\"1307490\",\"0.0-133.0\",\"\",\"\",\"1-4\",\"5993\",\"40\",\"1\",\"Training\",\"Stims/Figures/44-J-10-3.bmp\",\"saha:ha\",\"Up\",\"40\",\"9\",\"2\",\"9\",\"C2\",\"J\",\"130\"
\"\",\"\",\"approach-retreat\",\"134\",\"1313837\",\"0.0-134.0\",\"\",\"\",\"1-4\",\"4834\",\"40\",\"1\",\"Training\",\"Stims/Figures/27-C-30-1.bmp\",\"pa:ka:ka\",\"Down\",\"40\",\"9\",\"3\",\"9\",\"P\",\"J\",\"131\"
\"\",\"\",\"approach-retreat\",\"135\",\"1320247\",\"0.0-135.0\",\"\",\"\",\"1-4\",\"4897\",\"37\",\"0\",\"Training\",\"Stims/Figures/85-J-0-2.bmp\",\"pa:kata\",\"Left\",\"39\",\"9\",\"4\",\"9\",\"P\",\"J\",\"132\"
\"\",\"\",\"approach-retreat\",\"136\",\"1328113\",\"0.0-136.0\",\"\",\"\",\"1-4\",\"6360\",\"40\",\"0\",\"Training\",\"Stims/Figures/102-J-10-4.bmp\",\"fasha:sha\",\"Down\",\"38\",\"9\",\"5\",\"9\",\"C1\",\"J\",\"133\"
\"\",\"\",\"approach-retreat\",\"137\",\"1335291\",\"0.0-137.0\",\"\",\"\",\"1-4\",\"5665\",\"38\",\"1\",\"Training\",\"Stims/Figures/86-J-0-1.bmp\",\"zahaha\",\"Down\",\"38\",\"9\",\"6\",\"9\",\"C2\",\"J\",\"134\"
\"\",\"\",\"approach-retreat\",\"138\",\"1342161\",\"0.0-138.0\",\"\",\"\",\"1-4\",\"5357\",\"40\",\"0\",\"Training\",\"Stims/Figures/44-C-30-3.bmp\",\"zaha:za\",\"Up\",\"38\",\"9\",\"7\",\"9\",\"C2\",\"J\",\"135\"
\"\",\"\",\"approach-retreat\",\"139\",\"1349082\",\"0.0-139.0\",\"\",\"\",\"1-4\",\"5409\",\"39\",\"0\",\"Training\",\"Stims/Figures/102-C-20-4.bmp\",\"namala\",\"Left\",\"37\",\"9\",\"8\",\"9\",\"S\",\"J\",\"136\"
\"\",\"\",\"approach-retreat\",\"140\",\"1356041\",\"0.0-140.0\",\"\",\"\",\"1-4\",\"5447\",\"40\",\"0\",\"Training\",\"Stims/Figures/128-C-30-3.bmp\",\"malala\",\"Up\",\"38\",\"9\",\"9\",\"9\",\"S\",\"J\",\"137\"
\"\",\"\",\"approach-retreat\",\"141\",\"1362476\",\"0.0-141.0\",\"\",\"\",\"1-4\",\"4920\",\"39\",\"0\",\"Training\",\"Stims/Figures/85-C-20-2.bmp\",\"papa:ta\",\"Left\",\"37\",\"9\",\"10\",\"9\",\"P\",\"J\",\"138\"
\"\",\"\",\"approach-retreat\",\"142\",\"1368935\",\"0.0-142.0\",\"\",\"\",\"1-4\",\"4954\",\"40\",\"1\",\"Training\",\"Stims/Figures/27-J-0-1.bmp\",\"fafa:sha\",\"Up\",\"40\",\"9\",\"11\",\"9\",\"C1\",\"J\",\"139\"
\"\",\"\",\"approach-retreat\",\"143\",\"1375702\",\"0.0-143.0\",\"\",\"\",\"1-4\",\"5254\",\"40\",\"1\",\"Training\",\"Stims/Figures/7-C-20-4.bmp\",\"mala:la\",\"Down\",\"40\",\"9\",\"12\",\"9\",\"S\",\"J\",\"140\"
\"\",\"\",\"approach-retreat\",\"144\",\"1383544\",\"0.0-144.0\",\"\",\"\",\"1-4\",\"6329\",\"37\",\"0\",\"Training\",\"Stims/Figures/86-C-30-1.bmp\",\"fa:shasha\",\"Right\",\"39\",\"9\",\"13\",\"9\",\"C1\",\"J\",\"141\"
\"\",\"\",\"approach-retreat\",\"145\",\"1390128\",\"0.0-145.0\",\"\",\"\",\"1-4\",\"5071\",\"37\",\"1\",\"Training\",\"Stims/Figures/7-J-10-4.bmp\",\"vafa:va\",\"Right\",\"37\",\"9\",\"14\",\"9\",\"C1\",\"J\",\"142\"
\"\",\"\",\"approach-retreat\",\"146\",\"1396354\",\"0.0-146.0\",\"\",\"\",\"1-4\",\"4714\",\"37\",\"1\",\"Training\",\"Stims/Figures/128-J-10-3.bmp\",\"tapata\",\"Right\",\"37\",\"9\",\"15\",\"9\",\"P\",\"J\",\"143\"
\"\",\"\",\"approach-retreat\",\"147\",\"1402425\",\"0.0-147.0\",\"\",\"\",\"1-4\",\"4559\",\"37\",\"1\",\"Training\",\"Stims/Figures/94-J-0-2.bmp\",\"saha:za\",\"Right\",\"37\",\"9\",\"16\",\"9\",\"C2\",\"J\",\"144\"
\"16362\",\"\",\"instructions\",\"148\",\"1418787\",\"0.0-148.0\",\"[{\"\"page_index\"\":0,\"\"viewing_time\"\":16361}]\",\"\",\"\",\"\",\"\",\"\",\"\",\"\",\"\",\"\",\"\",\"\",\"\",\"\",\"\",\"\",\"\"
\"\",\"\",\"approach-retreat\",\"149\",\"1425808\",\"0.0-149.0\",\"\",\"\",\"1-4\",\"5511\",\"37\",\"1\",\"Testing\",\"Stims/Figures/144-C-30-3.bmp\",\"tapaka\",\"Left\",\"37\",\"1\",\"1\",\"9\",\"P\",\"J\",\"1\"
\"\",\"\",\"approach-retreat\",\"150\",\"1433177\",\"0.0-150.0\",\"\",\"\",\"1-4\",\"5859\",\"39\",\"1\",\"Testing\",\"Stims/Figures/27-C-30-1.bmp\",\"pa:ka:ka\",\"Right\",\"39\",\"1\",\"2\",\"9\",\"P\",\"J\",\"2\"
\"\",\"\",\"approach-retreat\",\"151\",\"1439413\",\"0.0-151.0\",\"\",\"\",\"1-4\",\"4726\",\"40\",\"0\",\"Testing\",\"Stims/Figures/94-C-20-2.bmp\",\"ta:pa:ta\",\"Up\",\"38\",\"1\",\"3\",\"9\",\"P\",\"J\",\"3\"
\"\",\"\",\"approach-retreat\",\"152\",\"1445672\",\"0.0-152.0\",\"\",\"\",\"1-4\",\"4750\",\"40\",\"1\",\"Testing\",\"Stims/Figures/85-C-20-2.bmp\",\"papa:ta\",\"Down\",\"40\",\"1\",\"4\",\"9\",\"P\",\"J\",\"4\"
\"\",\"\",\"approach-retreat\",\"153\",\"1451412\",\"0.0-153.0\",\"\",\"\",\"1-4\",\"4230\",\"40\",\"1\",\"Testing\",\"Stims/Figures/139-J-0-2.bmp\",\"ma:lana\",\"Up\",\"40\",\"1\",\"5\",\"9\",\"S\",\"J\",\"5\"
\"\",\"\",\"approach-retreat\",\"154\",\"1457726\",\"0.0-154.0\",\"\",\"\",\"1-4\",\"4805\",\"38\",\"0\",\"Testing\",\"Stims/Figures/139-C-20-2.bmp\",\"zasa:za\",\"Down\",\"40\",\"1\",\"6\",\"9\",\"C2\",\"J\",\"6\"
\"\",\"\",\"approach-retreat\",\"155\",\"1463848\",\"0.0-155.0\",\"\",\"\",\"1-4\",\"4607\",\"39\",\"0\",\"Testing\",\"Stims/Figures/128-J-10-3.bmp\",\"tapata\",\"Right\",\"37\",\"1\",\"7\",\"9\",\"P\",\"J\",\"7\"
\"\",\"\",\"approach-retreat\",\"156\",\"1469946\",\"0.0-156.0\",\"\",\"\",\"1-4\",\"4589\",\"37\",\"0\",\"Testing\",\"Stims/Figures/19-C-20-4.bmp\",\"nala:la\",\"Right\",\"39\",\"1\",\"8\",\"9\",\"S\",\"J\",\"8\"
\"\",\"\",\"approach-retreat\",\"157\",\"1475848\",\"0.0-157.0\",\"\",\"\",\"1-4\",\"4393\",\"39\",\"1\",\"Testing\",\"Stims/Figures/27-J-0-1.bmp\",\"fafa:sha\",\"Left\",\"39\",\"1\",\"9\",\"9\",\"C1\",\"J\",\"9\"
\"\",\"\",\"approach-retreat\",\"158\",\"1481729\",\"0.0-158.0\",\"\",\"\",\"1-4\",\"4371\",\"40\",\"0\",\"Testing\",\"Stims/Figures/7-C-20-4.bmp\",\"mala:la\",\"Up\",\"38\",\"1\",\"10\",\"9\",\"S\",\"J\",\"10\"
\"\",\"\",\"approach-retreat\",\"159\",\"1488058\",\"0.0-159.0\",\"\",\"\",\"1-4\",\"4814\",\"37\",\"1\",\"Testing\",\"Stims/Figures/57-J-0-1.bmp\",\"ta:pata\",\"Right\",\"37\",\"1\",\"11\",\"9\",\"P\",\"J\",\"11\"
\"\",\"\",\"approach-retreat\",\"160\",\"1494062\",\"0.0-160.0\",\"\",\"\",\"1-4\",\"4494\",\"40\",\"1\",\"Testing\",\"Stims/Figures/102-J-10-4.bmp\",\"fasha:sha\",\"Up\",\"40\",\"1\",\"12\",\"9\",\"C1\",\"J\",\"12\"
\"\",\"\",\"approach-retreat\",\"161\",\"1499994\",\"0.0-161.0\",\"\",\"\",\"1-4\",\"4422\",\"39\",\"0\",\"Testing\",\"Stims/Figures/19-J-10-4.bmp\",\"vafasha\",\"Right\",\"37\",\"1\",\"13\",\"9\",\"C1\",\"J\",\"13\"
\"\",\"\",\"approach-retreat\",\"162\",\"1505978\",\"0.0-162.0\",\"\",\"\",\"1-4\",\"4473\",\"40\",\"1\",\"Testing\",\"Stims/Figures/128-C-30-3.bmp\",\"malala\",\"Down\",\"40\",\"1\",\"14\",\"9\",\"S\",\"J\",\"14\"
\"\",\"\",\"approach-retreat\",\"163\",\"1512176\",\"0.0-163.0\",\"\",\"\",\"1-4\",\"4689\",\"39\",\"0\",\"Testing\",\"Stims/Figures/7-J-10-4.bmp\",\"vafa:va\",\"Right\",\"37\",\"1\",\"15\",\"9\",\"C1\",\"J\",\"15\"
\"\",\"\",\"approach-retreat\",\"164\",\"1518241\",\"0.0-164.0\",\"\",\"\",\"1-4\",\"4552\",\"40\",\"0\",\"Testing\",\"Stims/Figures/94-J-0-2.bmp\",\"saha:za\",\"Down\",\"38\",\"1\",\"16\",\"9\",\"C2\",\"J\",\"16\"
\"\",\"\",\"approach-retreat\",\"165\",\"1524244\",\"0.0-165.0\",\"\",\"\",\"1-4\",\"4490\",\"40\",\"1\",\"Testing\",\"Stims/Figures/144-J-10-3.bmp\",\"fafa:va\",\"Up\",\"40\",\"1\",\"17\",\"9\",\"C1\",\"J\",\"17\"
\"\",\"\",\"approach-retreat\",\"166\",\"1530148\",\"0.0-166.0\",\"\",\"\",\"1-4\",\"4395\",\"40\",\"0\",\"Testing\",\"Stims/Figures/44-J-10-3.bmp\",\"saha:ha\",\"Down\",\"38\",\"1\",\"18\",\"9\",\"C2\",\"J\",\"18\"
\"\",\"\",\"approach-retreat\",\"167\",\"1536050\",\"0.0-167.0\",\"\",\"\",\"1-4\",\"4383\",\"39\",\"0\",\"Testing\",\"Stims/Figures/86-C-30-1.bmp\",\"fa:shasha\",\"Left\",\"37\",\"1\",\"19\",\"9\",\"C1\",\"J\",\"19\"
\"\",\"\",\"approach-retreat\",\"168\",\"1541881\",\"0.0-168.0\",\"\",\"\",\"1-4\",\"4320\",\"40\",\"1\",\"Testing\",\"Stims/Figures/57-C-30-1.bmp\",\"sa:saha\",\"Down\",\"40\",\"1\",\"20\",\"9\",\"C2\",\"J\",\"20\"
\"\",\"\",\"approach-retreat\",\"169\",\"1547909\",\"0.0-169.0\",\"\",\"\",\"1-4\",\"4518\",\"39\",\"0\",\"Testing\",\"Stims/Figures/44-C-30-3.bmp\",\"zaha:za\",\"Left\",\"37\",\"1\",\"21\",\"9\",\"C2\",\"J\",\"21\"
\"\",\"\",\"approach-retreat\",\"170\",\"1553927\",\"0.0-170.0\",\"\",\"\",\"1-4\",\"4457\",\"37\",\"0\",\"Testing\",\"Stims/Figures/85-J-0-2.bmp\",\"pa:kata\",\"Left\",\"39\",\"1\",\"22\",\"9\",\"P\",\"J\",\"22\"
\"\",\"\",\"approach-retreat\",\"171\",\"1560074\",\"0.0-171.0\",\"\",\"\",\"1-4\",\"4637\",\"39\",\"0\",\"Testing\",\"Stims/Figures/102-C-20-4.bmp\",\"namala\",\"Left\",\"37\",\"1\",\"23\",\"9\",\"S\",\"J\",\"23\"
\"\",\"\",\"approach-retreat\",\"172\",\"1566109\",\"0.0-172.0\",\"\",\"\",\"1-4\",\"4525\",\"40\",\"1\",\"Testing\",\"Stims/Figures/86-J-0-1.bmp\",\"zahaha\",\"Up\",\"40\",\"1\",\"24\",\"9\",\"C2\",\"J\",\"24\"
\"\",\"\",\"approach-retreat\",\"173\",\"1573204\",\"0.0-173.0\",\"\",\"\",\"1-4\",\"5587\",\"40\",\"0\",\"Testing\",\"Stims/Figures/94-J-0-2.bmp\",\"saha:za\",\"Down\",\"38\",\"2\",\"1\",\"9\",\"C2\",\"J\",\"25\"
\"\",\"\",\"approach-retreat\",\"174\",\"1579366\",\"0.0-174.0\",\"\",\"\",\"1-4\",\"4653\",\"37\",\"1\",\"Testing\",\"Stims/Figures/85-J-0-2.bmp\",\"pa:kata\",\"Right\",\"37\",\"2\",\"2\",\"9\",\"P\",\"J\",\"26\"
\"\",\"\",\"approach-retreat\",\"175\",\"1585310\",\"0.0-175.0\",\"\",\"\",\"1-4\",\"4434\",\"40\",\"0\",\"Testing\",\"Stims/Figures/86-J-0-1.bmp\",\"zahaha\",\"Down\",\"38\",\"2\",\"3\",\"9\",\"C2\",\"J\",\"27\"
\"\",\"\",\"approach-retreat\",\"176\",\"1591339\",\"0.0-176.0\",\"\",\"\",\"1-4\",\"4520\",\"40\",\"1\",\"Testing\",\"Stims/Figures/57-C-30-1.bmp\",\"sa:saha\",\"Down\",\"40\",\"2\",\"4\",\"9\",\"C2\",\"J\",\"28\"
\"\",\"\",\"approach-retreat\",\"177\",\"1597677\",\"0.0-177.0\",\"\",\"\",\"1-4\",\"4826\",\"40\",\"0\",\"Testing\",\"Stims/Figures/86-C-30-1.bmp\",\"fa:shasha\",\"Up\",\"38\",\"2\",\"5\",\"9\",\"C1\",\"J\",\"29\"
\"\",\"\",\"approach-retreat\",\"178\",\"1603643\",\"0.0-178.0\",\"\",\"\",\"1-4\",\"4457\",\"40\",\"0\",\"Testing\",\"Stims/Figures/85-C-20-2.bmp\",\"papa:ta\",\"Up\",\"38\",\"2\",\"6\",\"9\",\"P\",\"J\",\"30\"
\"\",\"\",\"approach-retreat\",\"179\",\"1609671\",\"0.0-179.0\",\"\",\"\",\"1-4\",\"4519\",\"40\",\"0\",\"Testing\",\"Stims/Figures/102-C-20-4.bmp\",\"namala\",\"Up\",\"38\",\"2\",\"7\",\"9\",\"S\",\"J\",\"31\"
\"\",\"\",\"approach-retreat\",\"180\",\"1615646\",\"0.0-180.0\",\"\",\"\",\"1-4\",\"4466\",\"40\",\"1\",\"Testing\",\"Stims/Figures/7-J-10-4.bmp\",\"vafa:va\",\"Up\",\"40\",\"2\",\"8\",\"9\",\"C1\",\"J\",\"32\"
\"\",\"\",\"approach-retreat\",\"181\",\"1621772\",\"0.0-181.0\",\"\",\"\",\"1-4\",\"4616\",\"38\",\"0\",\"Testing\",\"Stims/Figures/144-J-10-3.bmp\",\"fafa:va\",\"Up\",\"40\",\"2\",\"9\",\"9\",\"C1\",\"J\",\"33\"
\"\",\"\",\"approach-retreat\",\"182\",\"1627951\",\"0.0-182.0\",\"\",\"\",\"1-4\",\"4668\",\"37\",\"0\",\"Testing\",\"Stims/Figures/94-C-20-2.bmp\",\"ta:pa:ta\",\"Right\",\"39\",\"2\",\"10\",\"9\",\"P\",\"J\",\"34\"
\"\",\"\",\"approach-retreat\",\"183\",\"1634662\",\"0.0-183.0\",\"\",\"\",\"1-4\",\"5202\",\"39\",\"1\",\"Testing\",\"Stims/Figures/139-J-0-2.bmp\",\"ma:lana\",\"Left\",\"39\",\"2\",\"11\",\"9\",\"S\",\"J\",\"35\"
\"\",\"\",\"approach-retreat\",\"184\",\"1640934\",\"0.0-184.0\",\"\",\"\",\"1-4\",\"4762\",\"38\",\"1\",\"Testing\",\"Stims/Figures/128-J-10-3.bmp\",\"tapata\",\"Down\",\"38\",\"2\",\"12\",\"9\",\"P\",\"J\",\"36\"
\"\",\"\",\"approach-retreat\",\"185\",\"1647099\",\"0.0-185.0\",\"\",\"\",\"1-4\",\"4656\",\"37\",\"0\",\"Testing\",\"Stims/Figures/27-J-0-1.bmp\",\"fafa:sha\",\"Left\",\"39\",\"2\",\"13\",\"9\",\"C1\",\"J\",\"37\"
\"\",\"\",\"approach-retreat\",\"186\",\"1653240\",\"0.0-186.0\",\"\",\"\",\"1-4\",\"4630\",\"39\",\"1\",\"Testing\",\"Stims/Figures/144-C-30-3.bmp\",\"tapaka\",\"Right\",\"39\",\"2\",\"14\",\"9\",\"P\",\"J\",\"38\"
\"\",\"\",\"approach-retreat\",\"187\",\"1659228\",\"0.0-187.0\",\"\",\"\",\"1-4\",\"4479\",\"38\",\"1\",\"Testing\",\"Stims/Figures/44-J-10-3.bmp\",\"saha:ha\",\"Down\",\"38\",\"2\",\"15\",\"9\",\"C2\",\"J\",\"39\"
\"\",\"\",\"approach-retreat\",\"188\",\"1665365\",\"0.0-188.0\",\"\",\"\",\"1-4\",\"4627\",\"37\",\"0\",\"Testing\",\"Stims/Figures/27-C-30-1.bmp\",\"pa:ka:ka\",\"Right\",\"39\",\"2\",\"16\",\"9\",\"P\",\"J\",\"40\"
\"\",\"\",\"approach-retreat\",\"189\",\"1671530\",\"0.0-189.0\",\"\",\"\",\"1-4\",\"4655\",\"37\",\"0\",\"Testing\",\"Stims/Figures/44-C-30-3.bmp\",\"zaha:za\",\"Right\",\"39\",\"2\",\"17\",\"9\",\"C2\",\"J\",\"41\"
\"\",\"\",\"approach-retreat\",\"190\",\"1677633\",\"0.0-190.0\",\"\",\"\",\"1-4\",\"4594\",\"39\",\"1\",\"Testing\",\"Stims/Figures/102-J-10-4.bmp\",\"fasha:sha\",\"Left\",\"39\",\"2\",\"18\",\"9\",\"C1\",\"J\",\"42\"
\"\",\"\",\"approach-retreat\",\"191\",\"1683792\",\"0.0-191.0\",\"\",\"\",\"1-4\",\"4650\",\"40\",\"1\",\"Testing\",\"Stims/Figures/19-J-10-4.bmp\",\"vafasha\",\"Up\",\"40\",\"2\",\"19\",\"9\",\"C1\",\"J\",\"43\"
\"\",\"\",\"approach-retreat\",\"192\",\"1689831\",\"0.0-192.0\",\"\",\"\",\"1-4\",\"4528\",\"39\",\"0\",\"Testing\",\"Stims/Figures/128-C-30-3.bmp\",\"malala\",\"Left\",\"37\",\"2\",\"20\",\"9\",\"S\",\"J\",\"44\"
\"\",\"\",\"approach-retreat\",\"193\",\"1695931\",\"0.0-193.0\",\"\",\"\",\"1-4\",\"4589\",\"37\",\"0\",\"Testing\",\"Stims/Figures/139-C-20-2.bmp\",\"zasa:za\",\"Right\",\"39\",\"2\",\"21\",\"9\",\"C2\",\"J\",\"45\"
\"\",\"\",\"approach-retreat\",\"194\",\"1702042\",\"0.0-194.0\",\"\",\"\",\"1-4\",\"4600\",\"39\",\"0\",\"Testing\",\"Stims/Figures/19-C-20-4.bmp\",\"nala:la\",\"Left\",\"37\",\"2\",\"22\",\"9\",\"S\",\"J\",\"46\"
\"\",\"\",\"approach-retreat\",\"195\",\"1708151\",\"0.0-195.0\",\"\",\"\",\"1-4\",\"4599\",\"40\",\"1\",\"Testing\",\"Stims/Figures/7-C-20-4.bmp\",\"mala:la\",\"Down\",\"40\",\"2\",\"23\",\"9\",\"S\",\"J\",\"47\"
\"\",\"\",\"approach-retreat\",\"196\",\"1714185\",\"0.0-196.0\",\"\",\"\",\"1-4\",\"4524\",\"39\",\"1\",\"Testing\",\"Stims/Figures/57-J-0-1.bmp\",\"ta:pata\",\"Left\",\"39\",\"2\",\"24\",\"9\",\"P\",\"J\",\"48\"
\"\",\"\",\"approach-retreat\",\"197\",\"1720167\",\"0.0-197.0\",\"\",\"\",\"1-4\",\"4472\",\"40\",\"1\",\"Testing\",\"Stims/Figures/85-C-20-2.bmp\",\"papa:ta\",\"Down\",\"40\",\"3\",\"1\",\"9\",\"P\",\"J\",\"49\"
\"\",\"\",\"approach-retreat\",\"198\",\"1726502\",\"0.0-198.0\",\"\",\"\",\"1-4\",\"4831\",\"37\",\"1\",\"Testing\",\"Stims/Figures/44-J-10-3.bmp\",\"saha:ha\",\"Right\",\"37\",\"3\",\"2\",\"9\",\"C2\",\"J\",\"50\"
\"\",\"\",\"approach-retreat\",\"199\",\"1732673\",\"0.0-199.0\",\"\",\"\",\"1-4\",\"4660\",\"40\",\"0\",\"Testing\",\"Stims/Figures/128-C-30-3.bmp\",\"malala\",\"Up\",\"38\",\"3\",\"3\",\"9\",\"S\",\"J\",\"51\"
\"\",\"\",\"approach-retreat\",\"200\",\"1739276\",\"0.0-200.0\",\"\",\"\",\"1-4\",\"5092\",\"39\",\"1\",\"Testing\",\"Stims/Figures/102-J-10-4.bmp\",\"fasha:sha\",\"Left\",\"39\",\"3\",\"4\",\"9\",\"C1\",\"J\",\"52\"
\"\",\"\",\"approach-retreat\",\"201\",\"1745354\",\"0.0-201.0\",\"\",\"\",\"1-4\",\"4568\",\"39\",\"0\",\"Testing\",\"Stims/Figures/19-C-20-4.bmp\",\"nala:la\",\"Left\",\"37\",\"3\",\"5\",\"9\",\"S\",\"J\",\"53\"
\"\",\"\",\"approach-retreat\",\"202\",\"1752795\",\"0.0-202.0\",\"\",\"\",\"1-4\",\"5930\",\"37\",\"0\",\"Testing\",\"Stims/Figures/27-C-30-1.bmp\",\"pa:ka:ka\",\"Right\",\"39\",\"3\",\"6\",\"9\",\"P\",\"J\",\"54\"
\"\",\"\",\"approach-retreat\",\"203\",\"1759684\",\"0.0-203.0\",\"\",\"\",\"1-4\",\"5379\",\"40\",\"1\",\"Testing\",\"Stims/Figures/86-J-0-1.bmp\",\"zahaha\",\"Up\",\"40\",\"3\",\"7\",\"9\",\"C2\",\"J\",\"55\"
\"\",\"\",\"approach-retreat\",\"204\",\"1767134\",\"0.0-204.0\",\"\",\"\",\"1-4\",\"5941\",\"40\",\"0\",\"Testing\",\"Stims/Figures/44-C-30-3.bmp\",\"zaha:za\",\"Up\",\"38\",\"3\",\"8\",\"9\",\"C2\",\"J\",\"56\"
\"\",\"\",\"approach-retreat\",\"205\",\"1773679\",\"0.0-205.0\",\"\",\"\",\"1-4\",\"5036\",\"39\",\"0\",\"Testing\",\"Stims/Figures/86-C-30-1.bmp\",\"fa:shasha\",\"Left\",\"37\",\"3\",\"9\",\"9\",\"C1\",\"J\",\"57\"
\"\",\"\",\"approach-retreat\",\"206\",\"1779829\",\"0.0-206.0\",\"\",\"\",\"1-4\",\"4640\",\"39\",\"1\",\"Testing\",\"Stims/Figures/94-C-20-2.bmp\",\"ta:pa:ta\",\"Right\",\"39\",\"3\",\"10\",\"9\",\"P\",\"J\",\"58\"
\"\",\"\",\"approach-retreat\",\"207\",\"1786022\",\"0.0-207.0\",\"\",\"\",\"1-4\",\"4683\",\"40\",\"0\",\"Testing\",\"Stims/Figures/94-J-0-2.bmp\",\"saha:za\",\"Down\",\"38\",\"3\",\"11\",\"9\",\"C2\",\"J\",\"59\"
\"\",\"\",\"approach-retreat\",\"208\",\"1792498\",\"0.0-208.0\",\"\",\"\",\"1-4\",\"4965\",\"39\",\"1\",\"Testing\",\"Stims/Figures/102-C-20-4.bmp\",\"namala\",\"Right\",\"39\",\"3\",\"12\",\"9\",\"S\",\"J\",\"60\"
\"\",\"\",\"approach-retreat\",\"209\",\"1799056\",\"0.0-209.0\",\"\",\"\",\"1-4\",\"5048\",\"40\",\"1\",\"Testing\",\"Stims/Figures/128-J-10-3.bmp\",\"tapata\",\"Up\",\"40\",\"3\",\"13\",\"9\",\"P\",\"J\",\"61\"
\"\",\"\",\"approach-retreat\",\"210\",\"1805477\",\"0.0-210.0\",\"\",\"\",\"1-4\",\"4910\",\"39\",\"1\",\"Testing\",\"Stims/Figures/139-C-20-2.bmp\",\"zasa:za\",\"Right\",\"39\",\"3\",\"14\",\"9\",\"C2\",\"J\",\"62\"
\"\",\"\",\"approach-retreat\",\"211\",\"1814596\",\"0.0-211.0\",\"\",\"\",\"1-4\",\"7608\",\"40\",\"0\",\"Testing\",\"Stims/Figures/57-J-0-1.bmp\",\"ta:pata\",\"Down\",\"38\",\"3\",\"15\",\"9\",\"P\",\"J\",\"63\"
\"\",\"\",\"approach-retreat\",\"212\",\"1821067\",\"0.0-212.0\",\"\",\"\",\"1-4\",\"4962\",\"39\",\"0\",\"Testing\",\"Stims/Figures/144-C-30-3.bmp\",\"tapaka\",\"Left\",\"37\",\"3\",\"16\",\"9\",\"P\",\"J\",\"64\"
\"\",\"\",\"approach-retreat\",\"213\",\"1828528\",\"0.0-213.0\",\"\",\"\",\"1-4\",\"5952\",\"38\",\"0\",\"Testing\",\"Stims/Figures/7-J-10-4.bmp\",\"vafa:va\",\"Up\",\"40\",\"3\",\"17\",\"9\",\"C1\",\"J\",\"65\"
\"\",\"\",\"approach-retreat\",\"214\",\"1839064\",\"0.0-214.0\",\"\",\"\",\"1-4\",\"9027\",\"38\",\"1\",\"Testing\",\"Stims/Figures/85-J-0-2.bmp\",\"pa:kata\",\"Down\",\"38\",\"3\",\"18\",\"9\",\"P\",\"J\",\"66\"
\"\",\"\",\"approach-retreat\",\"215\",\"1845775\",\"0.0-215.0\",\"\",\"\",\"1-4\",\"5201\",\"38\",\"1\",\"Testing\",\"Stims/Figures/139-J-0-2.bmp\",\"ma:lana\",\"Down\",\"38\",\"3\",\"19\",\"9\",\"S\",\"J\",\"67\"
\"\",\"\",\"approach-retreat\",\"216\",\"1852417\",\"0.0-216.0\",\"\",\"\",\"1-4\",\"5131\",\"39\",\"1\",\"Testing\",\"Stims/Figures/19-J-10-4.bmp\",\"vafasha\",\"Left\",\"39\",\"3\",\"20\",\"9\",\"C1\",\"J\",\"68\"
\"\",\"\",\"approach-retreat\",\"217\",\"1858776\",\"0.0-217.0\",\"\",\"\",\"1-4\",\"4850\",\"39\",\"1\",\"Testing\",\"Stims/Figures/57-C-30-1.bmp\",\"sa:saha\",\"Right\",\"39\",\"3\",\"21\",\"9\",\"C2\",\"J\",\"69\"
\"\",\"\",\"approach-retreat\",\"218\",\"1865019\",\"0.0-218.0\",\"\",\"\",\"1-4\",\"4732\",\"38\",\"0\",\"Testing\",\"Stims/Figures/27-J-0-1.bmp\",\"fafa:sha\",\"Up\",\"40\",\"3\",\"22\",\"9\",\"C1\",\"J\",\"70\"
\"\",\"\",\"approach-retreat\",\"219\",\"1871840\",\"0.0-219.0\",\"\",\"\",\"1-4\",\"5312\",\"40\",\"0\",\"Testing\",\"Stims/Figures/144-J-10-3.bmp\",\"fafa:va\",\"Down\",\"38\",\"3\",\"23\",\"9\",\"C1\",\"J\",\"71\"
\"\",\"\",\"approach-retreat\",\"220\",\"1878260\",\"0.0-220.0\",\"\",\"\",\"1-4\",\"4909\",\"39\",\"0\",\"Testing\",\"Stims/Figures/7-C-20-4.bmp\",\"mala:la\",\"Left\",\"37\",\"3\",\"24\",\"9\",\"S\",\"J\",\"72\"
\"\",\"\",\"approach-retreat\",\"221\",\"1884958\",\"0.0-221.0\",\"\",\"\",\"1-4\",\"5187\",\"37\",\"0\",\"Testing\",\"Stims/Figures/19-J-10-4.bmp\",\"vafasha\",\"Left\",\"39\",\"4\",\"1\",\"9\",\"C1\",\"J\",\"73\"
\"\",\"\",\"approach-retreat\",\"222\",\"1891569\",\"0.0-222.0\",\"\",\"\",\"1-4\",\"5102\",\"39\",\"0\",\"Testing\",\"Stims/Figures/102-J-10-4.bmp\",\"fasha:sha\",\"Right\",\"37\",\"4\",\"2\",\"9\",\"C1\",\"J\",\"74\"
\"\",\"\",\"approach-retreat\",\"223\",\"1899005\",\"0.0-223.0\",\"\",\"\",\"1-4\",\"5926\",\"39\",\"1\",\"Testing\",\"Stims/Figures/44-C-30-3.bmp\",\"zaha:za\",\"Right\",\"39\",\"4\",\"3\",\"9\",\"C2\",\"J\",\"75\"
\"\",\"\",\"approach-retreat\",\"224\",\"1905010\",\"0.0-224.0\",\"\",\"\",\"1-4\",\"4494\",\"40\",\"1\",\"Testing\",\"Stims/Figures/27-C-30-1.bmp\",\"pa:ka:ka\",\"Down\",\"40\",\"4\",\"4\",\"9\",\"P\",\"J\",\"76\"
\"\",\"\",\"approach-retreat\",\"225\",\"1911056\",\"0.0-225.0\",\"\",\"\",\"1-4\",\"4536\",\"40\",\"0\",\"Testing\",\"Stims/Figures/85-C-20-2.bmp\",\"papa:ta\",\"Up\",\"38\",\"4\",\"5\",\"9\",\"P\",\"J\",\"77\"
\"\",\"\",\"approach-retreat\",\"226\",\"1917290\",\"0.0-226.0\",\"\",\"\",\"1-4\",\"4724\",\"38\",\"1\",\"Testing\",\"Stims/Figures/128-J-10-3.bmp\",\"tapata\",\"Down\",\"38\",\"4\",\"6\",\"9\",\"P\",\"J\",\"78\"
\"\",\"\",\"approach-retreat\",\"227\",\"1923340\",\"0.0-227.0\",\"\",\"\",\"1-4\",\"4541\",\"40\",\"1\",\"Testing\",\"Stims/Figures/44-J-10-3.bmp\",\"saha:ha\",\"Up\",\"40\",\"4\",\"7\",\"9\",\"C2\",\"J\",\"79\"
\"\",\"\",\"approach-retreat\",\"228\",\"1929395\",\"0.0-228.0\",\"\",\"\",\"1-4\",\"4545\",\"40\",\"0\",\"Testing\",\"Stims/Figures/139-C-20-2.bmp\",\"zasa:za\",\"Up\",\"38\",\"4\",\"8\",\"9\",\"C2\",\"J\",\"80\"
\"\",\"\",\"approach-retreat\",\"229\",\"1935500\",\"0.0-229.0\",\"\",\"\",\"1-4\",\"4596\",\"40\",\"0\",\"Testing\",\"Stims/Figures/102-C-20-4.bmp\",\"namala\",\"Up\",\"38\",\"4\",\"9\",\"9\",\"S\",\"J\",\"81\"
\"\",\"\",\"approach-retreat\",\"230\",\"1942217\",\"0.0-230.0\",\"\",\"\",\"1-4\",\"5207\",\"40\",\"0\",\"Testing\",\"Stims/Figures/27-J-0-1.bmp\",\"fafa:sha\",\"Down\",\"38\",\"4\",\"10\",\"9\",\"C1\",\"J\",\"82\"
\"\",\"\",\"approach-retreat\",\"231\",\"1948377\",\"0.0-231.0\",\"\",\"\",\"1-4\",\"4650\",\"39\",\"1\",\"Testing\",\"Stims/Figures/144-J-10-3.bmp\",\"fafa:va\",\"Left\",\"39\",\"4\",\"11\",\"9\",\"C1\",\"J\",\"83\"
\"\",\"\",\"approach-retreat\",\"232\",\"1954420\",\"0.0-232.0\",\"\",\"\",\"1-4\",\"4534\",\"39\",\"0\",\"Testing\",\"Stims/Figures/128-C-30-3.bmp\",\"malala\",\"Left\",\"37\",\"4\",\"12\",\"9\",\"S\",\"J\",\"84\"
\"\",\"\",\"approach-retreat\",\"233\",\"1960563\",\"0.0-233.0\",\"\",\"\",\"1-4\",\"4631\",\"39\",\"1\",\"Testing\",\"Stims/Figures/19-C-20-4.bmp\",\"nala:la\",\"Right\",\"39\",\"4\",\"13\",\"9\",\"S\",\"J\",\"85\"
\"\",\"\",\"approach-retreat\",\"234\",\"1969166\",\"0.0-234.0\",\"\",\"\",\"1-4\",\"7092\",\"39\",\"1\",\"Testing\",\"Stims/Figures/86-J-0-1.bmp\",\"zahaha\",\"Left\",\"39\",\"4\",\"14\",\"9\",\"C2\",\"J\",\"86\"
\"\",\"\",\"approach-retreat\",\"235\",\"1983688\",\"0.0-235.0\",\"\",\"\",\"1-4\",\"13011\",\"40\",\"0\",\"Testing\",\"Stims/Figures/7-C-20-4.bmp\",\"mala:la\",\"Up\",\"38\",\"4\",\"15\",\"9\",\"S\",\"J\",\"87\"
\"\",\"\",\"approach-retreat\",\"236\",\"1989746\",\"0.0-236.0\",\"\",\"\",\"1-4\",\"4548\",\"39\",\"1\",\"Testing\",\"Stims/Figures/57-C-30-1.bmp\",\"sa:saha\",\"Right\",\"39\",\"4\",\"16\",\"9\",\"C2\",\"J\",\"88\"
\"\",\"\",\"approach-retreat\",\"237\",\"1999557\",\"0.0-237.0\",\"\",\"\",\"1-4\",\"8301\",\"39\",\"0\",\"Testing\",\"Stims/Figures/85-J-0-2.bmp\",\"pa:kata\",\"Right\",\"37\",\"4\",\"17\",\"9\",\"P\",\"J\",\"89\"
\"\",\"\",\"approach-retreat\",\"238\",\"2006738\",\"0.0-238.0\",\"\",\"\",\"1-4\",\"5672\",\"39\",\"0\",\"Testing\",\"Stims/Figures/57-J-0-1.bmp\",\"ta:pata\",\"Right\",\"37\",\"4\",\"18\",\"9\",\"P\",\"J\",\"90\"
\"\",\"\",\"approach-retreat\",\"239\",\"2013523\",\"0.0-239.0\",\"\",\"\",\"1-4\",\"5272\",\"40\",\"0\",\"Testing\",\"Stims/Figures/139-J-0-2.bmp\",\"ma:lana\",\"Down\",\"38\",\"4\",\"19\",\"9\",\"S\",\"J\",\"91\"
\"\",\"\",\"approach-retreat\",\"240\",\"2019826\",\"0.0-240.0\",\"\",\"\",\"1-4\",\"4794\",\"37\",\"0\",\"Testing\",\"Stims/Figures/7-J-10-4.bmp\",\"vafa:va\",\"Left\",\"39\",\"4\",\"20\",\"9\",\"C1\",\"J\",\"92\"
\"\",\"\",\"approach-retreat\",\"241\",\"2026942\",\"0.0-241.0\",\"\",\"\",\"1-4\",\"5605\",\"38\",\"1\",\"Testing\",\"Stims/Figures/94-J-0-2.bmp\",\"saha:za\",\"Down\",\"38\",\"4\",\"21\",\"9\",\"C2\",\"J\",\"93\"
\"\",\"\",\"approach-retreat\",\"242\",\"2033250\",\"0.0-242.0\",\"\",\"\",\"1-4\",\"4799\",\"39\",\"0\",\"Testing\",\"Stims/Figures/94-C-20-2.bmp\",\"ta:pa:ta\",\"Left\",\"37\",\"4\",\"22\",\"9\",\"P\",\"J\",\"94\"
\"\",\"\",\"approach-retreat\",\"243\",\"2040594\",\"0.0-243.0\",\"\",\"\",\"1-4\",\"5834\",\"40\",\"1\",\"Testing\",\"Stims/Figures/144-C-30-3.bmp\",\"tapaka\",\"Down\",\"40\",\"4\",\"23\",\"9\",\"P\",\"J\",\"95\"
\"\",\"\",\"approach-retreat\",\"244\",\"2048038\",\"0.0-244.0\",\"\",\"\",\"1-4\",\"5934\",\"38\",\"1\",\"Testing\",\"Stims/Figures/86-C-30-1.bmp\",\"fa:shasha\",\"Up\",\"38\",\"4\",\"24\",\"9\",\"C1\",\"J\",\"96\"
\"15261\",\"\",\"survey-text\",\"245\",\"2063310\",\"0.0-245.0\",\"\",\"{\"\"Q0\"\":\"\"\"\"}\",\"\",\"\",\"\",\"\",\"\",\"\",\"\",\"\",\"\",\"\",\"\",\"\",\"\",\"\",\"\"
