"rt","key_press","trial_type","trial_index","time_elapsed","internal_node_id","view_history","responses","Id","Rt","ResKeyCode","ResCorr","TrialType2","Image","Label","Location","CorrectResponse","Block","BlockTrial","Condition","LabelType","Subcondition","trialNum"
"54386","32","text","0","54392","0.0-0.0-0.0","","","","","","","","","","","","","","","","",""
"20286","","instructions","1","74681","0.0-1.0","[{""page_index"":0,""viewing_time"":20285}]","","","","","","","","","","","","","","","",""
"14769","","survey-multi-choice","2","89496","0.0-2.0","","{""Q0"":""Da"",""Q1"":""Da"",""Q2"":""Da"",""Q3"":""Da"",""Q4"":""Da"",""Q5"":""Da""}","","","","","","","","","","","","","","",""
"","","bio","3","96826","0.0-3.0","","{""age"":""20"",""gender"":""f"",""specify"":""""}","","","","","","","","","","","","","","",""
"","","approach-retreat","4","111008","0.0-4.0","","","1-3","12657","37","0","Training","Stims/Figures/85-C-20-2.bmp","fa:shasha","Left","39","1","1","6B","C1","C","1"
"","","approach-retreat","5","136685","0.0-5.0","","","1-3","24166","39","1","Training","Stims/Figures/7-J-10-4.bmp","za:haza","Right","39","1","2","6B","C2","C","2"
"","","approach-retreat","6","148399","0.0-6.0","","","1-3","10205","38","1","Training","Stims/Figures/111-C-30-3.bmp","va:sha:sha","Down","38","1","3","6B","C1","C","3"
"","","approach-retreat","7","156495","0.0-7.0","","","1-3","6582","40","1","Training","Stims/Figures/111-J-10-3.bmp","za:sa:ha","Down","40","1","4","6B","C2","C","4"
"","","approach-retreat","8","166845","0.0-8.0","","","1-3","8840","39","1","Training","Stims/Figures/74-C-20-4.bmp","vashasha","Left","39","1","5","6B","C1","C","5"
"","","approach-retreat","9","179670","0.0-9.0","","","1-3","11312","39","1","Training","Stims/Figures/85-J-0-2.bmp","zaha:za","Right","39","1","6","6B","C2","C","6"
"","","approach-retreat","10","186927","0.0-10.0","","","1-3","5746","40","1","Training","Stims/Figures/57-J-0-1.bmp","zaha:ha","Down","40","1","7","6B","C2","C","7"
"","","approach-retreat","11","193483","0.0-11.0","","","1-3","5035","40","1","Training","Stims/Figures/7-C-20-4.bmp","va:fa:sha","Up","40","1","8","6B","C1","C","8"
"","","approach-retreat","12","199435","0.0-12.0","","","1-3","4443","37","1","Training","Stims/Figures/139-J-0-2.bmp","saha:ha","Left","37","1","9","6B","C2","C","9"
"","","approach-retreat","13","207549","0.0-13.0","","","1-3","6605","40","1","Training","Stims/Figures/139-C-20-2.bmp","vasha:sha","Up","40","1","10","6B","C1","C","10"
"","","approach-retreat","14","214045","0.0-14.0","","","1-3","4986","39","1","Training","Stims/Figures/27-J-0-1.bmp","saha:za","Right","39","1","11","6B","C2","C","11"
"","","approach-retreat","15","221683","0.0-15.0","","","1-3","6127","40","1","Training","Stims/Figures/27-C-30-1.bmp","fafava","Up","40","1","12","6B","C1","C","12"
"","","approach-retreat","16","235091","0.0-16.0","","","1-3","11896","37","1","Training","Stims/Figures/144-J-10-3.bmp","za:haha","Left","37","1","13","6B","C2","C","13"
"","","approach-retreat","17","242490","0.0-17.0","","","1-3","5887","37","1","Training","Stims/Figures/57-C-30-1.bmp","vafa:sha","Right","37","1","14","6B","C1","C","14"
"","","approach-retreat","18","252195","0.0-18.0","","","1-3","8195","40","1","Training","Stims/Figures/74-J-10-4.bmp","sa:sa:za","Down","40","1","15","6B","C2","C","15"
"","","approach-retreat","19","261508","0.0-19.0","","","1-3","7801","38","0","Training","Stims/Figures/144-C-30-3.bmp","va:fava","Up","40","1","16","6B","C1","C","16"
"","","approach-retreat","20","270577","0.0-20.0","","","1-3","7557","40","0","Training","Stims/Figures/144-C-30-3.bmp","va:fava","Down","38","2","1","6B","C1","C","17"
"","","approach-retreat","21","278359","0.0-21.0","","","1-3","6271","38","1","Training","Stims/Figures/139-C-20-2.bmp","vasha:sha","Down","38","2","2","6B","C1","C","18"
"","","approach-retreat","22","284503","0.0-22.0","","","1-3","4638","37","1","Training","Stims/Figures/7-C-20-4.bmp","va:fa:sha","Right","37","2","3","6B","C1","C","19"
"","","approach-retreat","23","290490","0.0-23.0","","","1-3","4472","38","1","Training","Stims/Figures/85-J-0-2.bmp","zaha:za","Up","38","2","4","6B","C2","C","20"
"","","approach-retreat","24","315651","0.0-24.0","","","1-3","23647","37","1","Training","Stims/Figures/74-J-10-4.bmp","sa:sa:za","Left","37","2","5","6B","C2","C","21"
"","","approach-retreat","25","324254","0.0-25.0","","","1-3","7092","38","1","Training","Stims/Figures/85-C-20-2.bmp","fa:shasha","Down","38","2","6","6B","C1","C","22"
"","","approach-retreat","26","331374","0.0-26.0","","","1-3","5610","38","1","Training","Stims/Figures/57-J-0-1.bmp","zaha:ha","Up","38","2","7","6B","C2","C","23"
"","","approach-retreat","27","337821","0.0-27.0","","","1-3","4934","39","1","Training","Stims/Figures/7-J-10-4.bmp","za:haza","Right","39","2","8","6B","C2","C","24"
"","","approach-retreat","28","344878","0.0-28.0","","","1-3","5541","39","1","Training","Stims/Figures/111-C-30-3.bmp","va:sha:sha","Left","39","2","9","6B","C1","C","25"
"","","approach-retreat","29","351743","0.0-29.0","","","1-3","5351","40","1","Training","Stims/Figures/27-J-0-1.bmp","saha:za","Down","40","2","10","6B","C2","C","26"
"","","approach-retreat","30","357738","0.0-30.0","","","1-3","4480","38","1","Training","Stims/Figures/139-J-0-2.bmp","saha:ha","Up","38","2","11","6B","C2","C","27"
"","","approach-retreat","31","364153","0.0-31.0","","","1-3","4900","39","1","Training","Stims/Figures/57-C-30-1.bmp","vafa:sha","Left","39","2","12","6B","C1","C","28"
"","","approach-retreat","32","372637","0.0-32.0","","","1-3","6973","39","1","Training","Stims/Figures/27-C-30-1.bmp","fafava","Left","39","2","13","6B","C1","C","29"
"","","approach-retreat","33","379396","0.0-33.0","","","1-3","5246","40","1","Training","Stims/Figures/74-C-20-4.bmp","vashasha","Up","40","2","14","6B","C1","C","30"
"","","approach-retreat","34","385759","0.0-34.0","","","1-3","4852","39","1","Training","Stims/Figures/144-J-10-3.bmp","za:haha","Right","39","2","15","6B","C2","C","31"
"","","approach-retreat","35","393665","0.0-35.0","","","1-3","6397","39","1","Training","Stims/Figures/111-J-10-3.bmp","za:sa:ha","Right","39","2","16","6B","C2","C","32"
"","","approach-retreat","36","400141","0.0-36.0","","","1-3","4966","39","1","Training","Stims/Figures/7-C-20-4.bmp","va:fa:sha","Left","39","3","1","6B","C1","C","33"
"","","approach-retreat","37","408549","0.0-37.0","","","1-3","6898","38","1","Training","Stims/Figures/144-C-30-3.bmp","va:fava","Down","38","3","2","6B","C1","C","34"
"","","approach-retreat","38","415435","0.0-38.0","","","1-3","5357","38","1","Training","Stims/Figures/74-J-10-4.bmp","sa:sa:za","Up","38","3","3","6B","C2","C","35"
"","","approach-retreat","39","421416","0.0-39.0","","","1-3","4468","38","1","Training","Stims/Figures/7-J-10-4.bmp","za:haza","Up","38","3","4","6B","C2","C","36"
"","","approach-retreat","40","427575","0.0-40.0","","","1-3","4647","39","1","Training","Stims/Figures/85-J-0-2.bmp","zaha:za","Right","39","3","5","6B","C2","C","37"
"","","approach-retreat","41","434084","0.0-41.0","","","1-3","4992","38","1","Training","Stims/Figures/111-C-30-3.bmp","va:sha:sha","Down","38","3","6","6B","C1","C","38"
"","","approach-retreat","42","440136","0.0-42.0","","","1-3","4540","39","1","Training","Stims/Figures/57-C-30-1.bmp","vafa:sha","Left","39","3","7","6B","C1","C","39"
"","","approach-retreat","43","445965","0.0-43.0","","","1-3","4321","39","1","Training","Stims/Figures/139-J-0-2.bmp","saha:ha","Right","39","3","8","6B","C2","C","40"
"","","approach-retreat","44","451762","0.0-44.0","","","1-3","4285","38","1","Training","Stims/Figures/57-J-0-1.bmp","zaha:ha","Up","38","3","9","6B","C2","C","41"
"","","approach-retreat","45","457269","0.0-45.0","","","1-3","3995","37","1","Training","Stims/Figures/111-J-10-3.bmp","za:sa:ha","Left","37","3","10","6B","C2","C","42"
"","","approach-retreat","46","462908","0.0-46.0","","","1-3","4128","40","1","Training","Stims/Figures/85-C-20-2.bmp","fa:shasha","Up","40","3","11","6B","C1","C","43"
"","","approach-retreat","47","468329","0.0-47.0","","","1-3","3907","39","1","Training","Stims/Figures/27-J-0-1.bmp","saha:za","Right","39","3","12","6B","C2","C","44"
"","","approach-retreat","48","473742","0.0-48.0","","","1-3","3901","39","1","Training","Stims/Figures/144-J-10-3.bmp","za:haha","Right","39","3","13","6B","C2","C","45"
"","","approach-retreat","49","479624","0.0-49.0","","","1-3","4371","38","1","Training","Stims/Figures/139-C-20-2.bmp","vasha:sha","Down","38","3","14","6B","C1","C","46"
"","","approach-retreat","50","485541","0.0-50.0","","","1-3","4405","38","1","Training","Stims/Figures/74-C-20-4.bmp","vashasha","Down","38","3","15","6B","C1","C","47"
"","","approach-retreat","51","491832","0.0-51.0","","","1-3","4781","39","1","Training","Stims/Figures/27-C-30-1.bmp","fafava","Left","39","3","16","6B","C1","C","48"
"","","approach-retreat","52","499059","0.0-52.0","","","1-3","5714","39","1","Training","Stims/Figures/7-C-20-4.bmp","va:fa:sha","Left","39","4","1","6B","C1","C","49"
"","","approach-retreat","53","504770","0.0-53.0","","","1-3","4200","38","1","Training","Stims/Figures/27-C-30-1.bmp","fafava","Down","38","4","2","6B","C1","C","50"
"","","approach-retreat","54","513055","0.0-54.0","","","1-3","6773","38","1","Training","Stims/Figures/139-C-20-2.bmp","vasha:sha","Down","38","4","3","6B","C1","C","51"
"","","approach-retreat","55","519234","0.0-55.0","","","1-3","4665","37","1","Training","Stims/Figures/144-C-30-3.bmp","va:fava","Right","37","4","4","6B","C1","C","52"
"","","approach-retreat","56","525293","0.0-56.0","","","1-3","4552","39","1","Training","Stims/Figures/144-J-10-3.bmp","za:haha","Right","39","4","5","6B","C2","C","53"
"","","approach-retreat","57","530762","0.0-57.0","","","1-3","3958","37","1","Training","Stims/Figures/111-C-30-3.bmp","va:sha:sha","Right","37","4","6","6B","C1","C","54"
"","","approach-retreat","58","536545","0.0-58.0","","","1-3","4271","38","1","Training","Stims/Figures/139-J-0-2.bmp","saha:ha","Up","38","4","7","6B","C2","C","55"
"","","approach-retreat","59","542005","0.0-59.0","","","1-3","3950","39","1","Training","Stims/Figures/74-J-10-4.bmp","sa:sa:za","Right","39","4","8","6B","C2","C","56"
"","","approach-retreat","60","547614","0.0-60.0","","","1-3","4095","40","1","Training","Stims/Figures/85-C-20-2.bmp","fa:shasha","Up","40","4","9","6B","C1","C","57"
"","","approach-retreat","61","553216","0.0-61.0","","","1-3","4088","40","1","Training","Stims/Figures/111-J-10-3.bmp","za:sa:ha","Down","40","4","10","6B","C2","C","58"
"","","approach-retreat","62","558806","0.0-62.0","","","1-3","4078","37","1","Training","Stims/Figures/27-J-0-1.bmp","saha:za","Left","37","4","11","6B","C2","C","59"
"","","approach-retreat","63","565939","0.0-63.0","","","1-3","5623","38","1","Training","Stims/Figures/7-J-10-4.bmp","za:haza","Up","38","4","12","6B","C2","C","60"
"","","approach-retreat","64","571397","0.0-64.0","","","1-3","3943","37","1","Training","Stims/Figures/85-J-0-2.bmp","zaha:za","Left","37","4","13","6B","C2","C","61"
"","","approach-retreat","65","576915","0.0-65.0","","","1-3","4007","39","1","Training","Stims/Figures/57-C-30-1.bmp","vafa:sha","Left","39","4","14","6B","C1","C","62"
"","","approach-retreat","66","583209","0.0-66.0","","","1-3","4784","38","0","Training","Stims/Figures/74-C-20-4.bmp","vashasha","Up","40","4","15","6B","C1","C","63"
"","","approach-retreat","67","588919","0.0-67.0","","","1-3","4199","40","1","Training","Stims/Figures/57-J-0-1.bmp","zaha:ha","Down","40","4","16","6B","C2","C","64"
"","","approach-retreat","68","594983","0.0-68.0","","","1-3","4554","38","1","Training","Stims/Figures/144-J-10-3.bmp","za:haha","Up","38","5","1","6B","C2","C","65"
"","","approach-retreat","69","601126","0.0-69.0","","","1-3","4630","39","1","Training","Stims/Figures/139-C-20-2.bmp","vasha:sha","Left","39","5","2","6B","C1","C","66"
"","","approach-retreat","70","607906","0.0-70.0","","","1-3","5267","40","1","Training","Stims/Figures/7-J-10-4.bmp","za:haza","Down","40","5","3","6B","C2","C","67"
"","","approach-retreat","71","613446","0.0-71.0","","","1-3","4029","39","1","Training","Stims/Figures/144-C-30-3.bmp","va:fava","Left","39","5","4","6B","C1","C","68"
"","","approach-retreat","72","619113","0.0-72.0","","","1-3","4155","38","1","Training","Stims/Figures/57-C-30-1.bmp","vafa:sha","Down","38","5","5","6B","C1","C","69"
"","","approach-retreat","73","624674","0.0-73.0","","","1-3","4049","37","1","Training","Stims/Figures/111-C-30-3.bmp","va:sha:sha","Right","37","5","6","6B","C1","C","70"
"","","approach-retreat","74","630123","0.0-74.0","","","1-3","3939","39","1","Training","Stims/Figures/57-J-0-1.bmp","zaha:ha","Right","39","5","7","6B","C2","C","71"
"","","approach-retreat","75","635641","0.0-75.0","","","1-3","4007","37","1","Training","Stims/Figures/85-J-0-2.bmp","zaha:za","Left","37","5","8","6B","C2","C","72"
"","","approach-retreat","76","641267","0.0-76.0","","","1-3","4113","38","0","Training","Stims/Figures/27-C-30-1.bmp","fafava","Up","40","5","9","6B","C1","C","73"
"","","approach-retreat","77","647495","0.0-77.0","","","1-3","4716","40","1","Training","Stims/Figures/85-C-20-2.bmp","fa:shasha","Up","40","5","10","6B","C1","C","74"
"","","approach-retreat","78","653121","0.0-78.0","","","1-3","4114","37","1","Training","Stims/Figures/139-J-0-2.bmp","saha:ha","Left","37","5","11","6B","C2","C","75"
"","","approach-retreat","79","658947","0.0-79.0","","","1-3","4312","38","1","Training","Stims/Figures/7-C-20-4.bmp","va:fa:sha","Down","38","5","12","6B","C1","C","76"
"","","approach-retreat","80","667648","0.0-80.0","","","1-3","7181","40","1","Training","Stims/Figures/111-J-10-3.bmp","za:sa:ha","Down","40","5","13","6B","C2","C","77"
"","","approach-retreat","81","674172","0.0-81.0","","","1-3","5012","39","1","Training","Stims/Figures/27-J-0-1.bmp","saha:za","Right","39","5","14","6B","C2","C","78"
"","","approach-retreat","82","680227","0.0-82.0","","","1-3","4529","38","1","Training","Stims/Figures/74-J-10-4.bmp","sa:sa:za","Up","38","5","15","6B","C2","C","79"
"","","approach-retreat","83","686083","0.0-83.0","","","1-3","4344","37","1","Training","Stims/Figures/74-C-20-4.bmp","vashasha","Right","37","5","16","6B","C1","C","80"
"","","approach-retreat","84","691807","0.0-84.0","","","1-3","4212","37","1","Training","Stims/Figures/144-J-10-3.bmp","za:haha","Left","37","6","1","6B","C2","C","81"
"","","approach-retreat","85","697436","0.0-85.0","","","1-3","4116","40","1","Training","Stims/Figures/85-C-20-2.bmp","fa:shasha","Up","40","6","2","6B","C1","C","82"
"","","approach-retreat","86","703026","0.0-86.0","","","1-3","4080","40","1","Training","Stims/Figures/111-J-10-3.bmp","za:sa:ha","Down","40","6","3","6B","C2","C","83"
"","","approach-retreat","87","711110","0.0-87.0","","","1-3","6573","37","1","Training","Stims/Figures/111-C-30-3.bmp","va:sha:sha","Right","37","6","4","6B","C1","C","84"
"","","approach-retreat","88","716891","0.0-88.0","","","1-3","4269","39","1","Training","Stims/Figures/144-C-30-3.bmp","va:fava","Left","39","6","5","6B","C1","C","85"
"","","approach-retreat","89","722510","0.0-89.0","","","1-3","4108","39","1","Training","Stims/Figures/85-J-0-2.bmp","zaha:za","Right","39","6","6","6B","C2","C","86"
"","","approach-retreat","90","728093","0.0-90.0","","","1-3","4072","39","1","Training","Stims/Figures/57-J-0-1.bmp","zaha:ha","Right","39","6","7","6B","C2","C","87"
"","","approach-retreat","91","735497","0.0-91.0","","","1-3","5895","38","1","Training","Stims/Figures/74-J-10-4.bmp","sa:sa:za","Up","38","6","8","6B","C2","C","88"
"","","approach-retreat","92","741548","0.0-92.0","","","1-3","4533","39","1","Training","Stims/Figures/27-C-30-1.bmp","fafava","Left","39","6","9","6B","C1","C","89"
"","","approach-retreat","93","747530","0.0-93.0","","","1-3","4471","38","1","Training","Stims/Figures/139-J-0-2.bmp","saha:ha","Up","38","6","10","6B","C2","C","90"
"","","approach-retreat","94","753415","0.0-94.0","","","1-3","4371","38","1","Training","Stims/Figures/7-C-20-4.bmp","va:fa:sha","Down","38","6","11","6B","C1","C","91"
"","","approach-retreat","95","759265","0.0-95.0","","","1-3","4341","39","1","Training","Stims/Figures/57-C-30-1.bmp","vafa:sha","Left","39","6","12","6B","C1","C","92"
"","","approach-retreat","96","765261","0.0-96.0","","","1-3","4487","40","1","Training","Stims/Figures/7-J-10-4.bmp","za:haza","Down","40","6","13","6B","C2","C","93"
"","","approach-retreat","97","770809","0.0-97.0","","","1-3","4037","37","1","Training","Stims/Figures/74-C-20-4.bmp","vashasha","Right","37","6","14","6B","C1","C","94"
"","","approach-retreat","98","776875","0.0-98.0","","","1-3","4556","38","1","Training","Stims/Figures/27-J-0-1.bmp","saha:za","Up","38","6","15","6B","C2","C","95"
"","","approach-retreat","99","782503","0.0-99.0","","","1-3","4116","38","1","Training","Stims/Figures/139-C-20-2.bmp","vasha:sha","Down","38","6","16","6B","C1","C","96"
"","","approach-retreat","100","788010","0.0-100.0","","","1-3","3996","39","1","Training","Stims/Figures/85-J-0-2.bmp","zaha:za","Right","39","7","1","6B","C2","C","97"
"","","approach-retreat","101","794154","0.0-101.0","","","1-3","4633","40","1","Training","Stims/Figures/139-J-0-2.bmp","saha:ha","Down","40","7","2","6B","C2","C","98"
"","","approach-retreat","102","799889","0.0-102.0","","","1-3","4224","40","1","Training","Stims/Figures/111-J-10-3.bmp","za:sa:ha","Down","40","7","3","6B","C2","C","99"
"","","approach-retreat","103","805551","0.0-103.0","","","1-3","4149","40","1","Training","Stims/Figures/7-J-10-4.bmp","za:haza","Down","40","7","4","6B","C2","C","100"
"","","approach-retreat","104","811175","0.0-104.0","","","1-3","4108","37","1","Training","Stims/Figures/57-J-0-1.bmp","zaha:ha","Left","37","7","5","6B","C2","C","101"
"","","approach-retreat","105","816736","0.0-105.0","","","1-3","4052","40","1","Training","Stims/Figures/7-C-20-4.bmp","va:fa:sha","Up","40","7","6","6B","C1","C","102"
"","","approach-retreat","106","822472","0.0-106.0","","","1-3","4229","38","1","Training","Stims/Figures/27-C-30-1.bmp","fafava","Down","38","7","7","6B","C1","C","103"
"","","approach-retreat","107","828844","0.0-107.0","","","1-3","4862","37","1","Training","Stims/Figures/144-C-30-3.bmp","va:fava","Right","37","7","8","6B","C1","C","104"
"","","approach-retreat","108","834327","0.0-108.0","","","1-3","3971","37","1","Training","Stims/Figures/111-C-30-3.bmp","va:sha:sha","Right","37","7","9","6B","C1","C","105"
"","","approach-retreat","109","839750","0.0-109.0","","","1-3","3913","39","1","Training","Stims/Figures/144-J-10-3.bmp","za:haha","Right","39","7","10","6B","C2","C","106"
"","","approach-retreat","110","845807","0.0-110.0","","","1-3","4545","40","1","Training","Stims/Figures/139-C-20-2.bmp","vasha:sha","Up","40","7","11","6B","C1","C","107"
"","","approach-retreat","111","851433","0.0-111.0","","","1-3","4110","40","1","Training","Stims/Figures/74-C-20-4.bmp","vashasha","Up","40","7","12","6B","C1","C","108"
"","","approach-retreat","112","857873","0.0-112.0","","","1-3","4927","39","1","Training","Stims/Figures/57-C-30-1.bmp","vafa:sha","Left","39","7","13","6B","C1","C","109"
"","","approach-retreat","113","863929","0.0-113.0","","","1-3","4542","37","1","Training","Stims/Figures/74-J-10-4.bmp","sa:sa:za","Left","37","7","14","6B","C2","C","110"
"","","approach-retreat","114","869451","0.0-114.0","","","1-3","4010","40","1","Training","Stims/Figures/85-C-20-2.bmp","fa:shasha","Up","40","7","15","6B","C1","C","111"
"","","approach-retreat","115","875070","0.0-115.0","","","1-3","4106","37","1","Training","Stims/Figures/27-J-0-1.bmp","saha:za","Left","37","7","16","6B","C2","C","112"
"","","approach-retreat","116","880592","0.0-116.0","","","1-3","4011","38","1","Training","Stims/Figures/139-J-0-2.bmp","saha:ha","Up","38","8","1","6B","C2","C","113"
"","","approach-retreat","117","886364","0.0-117.0","","","1-3","4258","40","1","Training","Stims/Figures/139-C-20-2.bmp","vasha:sha","Up","40","8","2","6B","C1","C","114"
"","","approach-retreat","118","891956","0.0-118.0","","","1-3","4082","39","1","Training","Stims/Figures/111-C-30-3.bmp","va:sha:sha","Left","39","8","3","6B","C1","C","115"
"","","approach-retreat","119","897439","0.0-119.0","","","1-3","3973","37","1","Training","Stims/Figures/74-J-10-4.bmp","sa:sa:za","Left","37","8","4","6B","C2","C","116"
"","","approach-retreat","120","903519","0.0-120.0","","","1-3","4569","40","1","Training","Stims/Figures/27-J-0-1.bmp","saha:za","Down","40","8","5","6B","C2","C","117"
"","","approach-retreat","121","910118","0.0-121.0","","","1-3","5086","37","1","Training","Stims/Figures/57-J-0-1.bmp","zaha:ha","Left","37","8","6","6B","C2","C","118"
"","","approach-retreat","122","915820","0.0-122.0","","","1-3","4191","38","1","Training","Stims/Figures/74-C-20-4.bmp","vashasha","Down","38","8","7","6B","C1","C","119"
"","","approach-retreat","123","921335","0.0-123.0","","","1-3","4004","38","1","Training","Stims/Figures/111-J-10-3.bmp","za:sa:ha","Up","38","8","8","6B","C2","C","120"
"","","approach-retreat","124","926909","0.0-124.0","","","1-3","4061","37","1","Training","Stims/Figures/27-C-30-1.bmp","fafava","Right","37","8","9","6B","C1","C","121"
"","","approach-retreat","125","932487","0.0-125.0","","","1-3","4066","39","1","Training","Stims/Figures/7-C-20-4.bmp","va:fa:sha","Left","39","8","10","6B","C1","C","122"
"","","approach-retreat","126","938064","0.0-126.0","","","1-3","4066","37","1","Training","Stims/Figures/85-C-20-2.bmp","fa:shasha","Right","37","8","11","6B","C1","C","123"
"","","approach-retreat","127","943896","0.0-127.0","","","1-3","4322","38","1","Training","Stims/Figures/57-C-30-1.bmp","vafa:sha","Down","38","8","12","6B","C1","C","124"
"","","approach-retreat","128","949435","0.0-128.0","","","1-3","4026","39","1","Training","Stims/Figures/144-J-10-3.bmp","za:haha","Right","39","8","13","6B","C2","C","125"
"","","approach-retreat","129","954973","0.0-129.0","","","1-3","4026","39","1","Training","Stims/Figures/85-J-0-2.bmp","zaha:za","Right","39","8","14","6B","C2","C","126"
"","","approach-retreat","130","960629","0.0-130.0","","","1-3","4142","38","1","Training","Stims/Figures/144-C-30-3.bmp","va:fava","Down","38","8","15","6B","C1","C","127"
"","","approach-retreat","131","966359","0.0-131.0","","","1-3","4218","38","1","Training","Stims/Figures/7-J-10-4.bmp","za:haza","Up","38","8","16","6B","C2","C","128"
"","","approach-retreat","132","971964","0.0-132.0","","","1-3","4094","39","1","Training","Stims/Figures/144-J-10-3.bmp","za:haha","Right","39","9","1","6B","C2","C","129"
"","","approach-retreat","133","977549","0.0-133.0","","","1-3","4077","39","1","Training","Stims/Figures/27-J-0-1.bmp","saha:za","Right","39","9","2","6B","C2","C","130"
"","","approach-retreat","134","983244","0.0-134.0","","","1-3","4186","37","1","Training","Stims/Figures/139-C-20-2.bmp","vasha:sha","Right","37","9","3","6B","C1","C","131"
"","","approach-retreat","135","989599","0.0-135.0","","","1-3","4841","38","1","Training","Stims/Figures/74-J-10-4.bmp","sa:sa:za","Up","38","9","4","6B","C2","C","132"
"","","approach-retreat","136","995223","0.0-136.0","","","1-3","4111","39","1","Training","Stims/Figures/7-C-20-4.bmp","va:fa:sha","Left","39","9","5","6B","C1","C","133"
"","","approach-retreat","137","1000906","0.0-137.0","","","1-3","4172","38","1","Training","Stims/Figures/85-C-20-2.bmp","fa:shasha","Down","38","9","6","6B","C1","C","134"
"","","approach-retreat","138","1006584","0.0-138.0","","","1-3","4165","38","1","Training","Stims/Figures/7-J-10-4.bmp","za:haza","Up","38","9","7","6B","C2","C","135"
"","","approach-retreat","139","1012072","0.0-139.0","","","1-3","3978","37","1","Training","Stims/Figures/27-C-30-1.bmp","fafava","Right","37","9","8","6B","C1","C","136"
"","","approach-retreat","140","1017619","0.0-140.0","","","1-3","4036","40","1","Training","Stims/Figures/57-J-0-1.bmp","zaha:ha","Down","40","9","9","6B","C2","C","137"
"","","approach-retreat","141","1023232","0.0-141.0","","","1-3","4101","40","1","Training","Stims/Figures/111-J-10-3.bmp","za:sa:ha","Down","40","9","10","6B","C2","C","138"
"","","approach-retreat","142","1028905","0.0-142.0","","","1-3","4162","39","1","Training","Stims/Figures/74-C-20-4.bmp","vashasha","Left","39","9","11","6B","C1","C","139"
"","","approach-retreat","143","1034319","0.0-143.0","","","1-3","3902","37","1","Training","Stims/Figures/139-J-0-2.bmp","saha:ha","Left","37","9","12","6B","C2","C","140"
"","","approach-retreat","144","1039909","0.0-144.0","","","1-3","4080","38","1","Training","Stims/Figures/144-C-30-3.bmp","va:fava","Down","38","9","13","6B","C1","C","141"
"","","approach-retreat","145","1045390","0.0-145.0","","","1-3","3970","39","1","Training","Stims/Figures/57-C-30-1.bmp","vafa:sha","Left","39","9","14","6B","C1","C","142"
"","","approach-retreat","146","1050864","0.0-146.0","","","1-3","3961","38","1","Training","Stims/Figures/85-J-0-2.bmp","zaha:za","Up","38","9","15","6B","C2","C","143"
"","","approach-retreat","147","1056583","0.0-147.0","","","1-3","4209","40","1","Training","Stims/Figures/111-C-30-3.bmp","va:sha:sha","Up","40","9","16","6B","C1","C","144"
"9547","","instructions","148","1066130","0.0-148.0","[{""page_index"":0,""viewing_time"":9547}]","","","","","","","","","","","","","","","",""
"","","approach-retreat","149","1072388","0.0-149.0","","","1-3","4747","40","1","Testing","Stims/Figures/111-J-10-3.bmp","za:sa:ha","Down","40","1","1","6B","C2","C","1"
"","","approach-retreat","150","1078071","0.0-150.0","","","1-3","4174","40","1","Testing","Stims/Figures/144-C-30-3.bmp","va:fava","Up","40","1","2","6B","C1","C","2"
"","","approach-retreat","151","1085224","0.0-151.0","","","1-3","5644","39","0","Testing","Stims/Figures/87-J-10-4.bmp","za:saha","Left","37","1","3","6B","C2","C","3"
"","","approach-retreat","152","1090988","0.0-152.0","","","1-3","4256","38","1","Testing","Stims/Figures/74-C-20-4.bmp","vashasha","Down","38","1","4","6B","C1","C","4"
"","","approach-retreat","153","1096714","0.0-153.0","","","1-3","4217","39","1","Testing","Stims/Figures/94-C-20-2.bmp","fa:sha:va","Left","39","1","5","6B","C1","C","5"
"","","approach-retreat","154","1102494","0.0-154.0","","","1-3","4269","38","1","Testing","Stims/Figures/139-J-0-2.bmp","saha:ha","Up","38","1","6","6B","C2","C","6"
"","","approach-retreat","155","1107972","0.0-155.0","","","1-3","3969","37","1","Testing","Stims/Figures/74-J-10-4.bmp","sa:sa:za","Left","37","1","7","6B","C2","C","7"
"","","approach-retreat","156","1113368","0.0-156.0","","","1-3","3889","39","1","Testing","Stims/Figures/7-J-10-4.bmp","za:haza","Right","39","1","8","6B","C2","C","8"
"","","approach-retreat","157","1118842","0.0-157.0","","","1-3","3964","37","1","Testing","Stims/Figures/111-C-30-3.bmp","va:sha:sha","Right","37","1","9","6B","C1","C","9"
"","","approach-retreat","158","1124595","0.0-158.0","","","1-3","4244","38","1","Testing","Stims/Figures/139-C-20-2.bmp","vasha:sha","Down","38","1","10","6B","C1","C","10"
"","","approach-retreat","159","1131262","0.0-159.0","","","1-3","5160","39","1","Testing","Stims/Figures/100-J-10-3.bmp","sasa:ha","Right","39","1","11","6B","C2","C","11"
"","","approach-retreat","160","1137093","0.0-160.0","","","1-3","4323","38","1","Testing","Stims/Figures/57-C-30-1.bmp","vafa:sha","Down","38","1","12","6B","C1","C","12"
"","","approach-retreat","161","1142878","0.0-161.0","","","1-3","4275","38","1","Testing","Stims/Figures/85-J-0-2.bmp","zaha:za","Up","38","1","13","6B","C2","C","13"
"","","approach-retreat","162","1149016","0.0-162.0","","","1-3","4629","40","1","Testing","Stims/Figures/94-J-0-2.bmp","zasaha","Down","40","1","14","6B","C2","C","14"
"","","approach-retreat","163","1154861","0.0-163.0","","","1-3","4337","37","1","Testing","Stims/Figures/86-J-0-1.bmp","sa:haha","Left","37","1","15","6B","C2","C","15"
"","","approach-retreat","164","1160443","0.0-164.0","","","1-3","4074","38","1","Testing","Stims/Figures/27-J-0-1.bmp","saha:za","Up","38","1","16","6B","C2","C","16"
"","","approach-retreat","165","1166135","0.0-165.0","","","1-3","4173","39","1","Testing","Stims/Figures/85-C-20-2.bmp","fa:shasha","Left","39","1","17","6B","C1","C","17"
"","","approach-retreat","166","1171788","0.0-166.0","","","1-3","4145","38","1","Testing","Stims/Figures/87-C-20-4.bmp","va:fasha","Down","38","1","18","6B","C1","C","18"
"","","approach-retreat","167","1177839","0.0-167.0","","","1-3","4536","40","1","Testing","Stims/Figures/27-C-30-1.bmp","fafava","Up","40","1","19","6B","C1","C","19"
"","","approach-retreat","168","1184135","0.0-168.0","","","1-3","4787","39","1","Testing","Stims/Figures/144-J-10-3.bmp","za:haha","Right","39","1","20","6B","C2","C","20"
"","","approach-retreat","169","1189945","0.0-169.0","","","1-3","4303","37","1","Testing","Stims/Figures/57-J-0-1.bmp","zaha:ha","Left","37","1","21","6B","C2","C","21"
"","","approach-retreat","170","1195813","0.0-170.0","","","1-3","4361","40","1","Testing","Stims/Figures/100-C-30-3.bmp","va:shasha","Up","40","1","22","6B","C1","C","22"
"","","approach-retreat","171","1201355","0.0-171.0","","","1-3","4035","37","1","Testing","Stims/Figures/86-C-30-1.bmp","fasha:va","Right","37","1","23","6B","C1","C","23"
"","","approach-retreat","172","1208115","0.0-172.0","","","1-3","5251","37","1","Testing","Stims/Figures/7-C-20-4.bmp","va:fa:sha","Right","37","1","24","6B","C1","C","24"
"","","approach-retreat","173","1214081","0.0-173.0","","","1-3","4456","40","1","Testing","Stims/Figures/57-C-30-1.bmp","vafa:sha","Up","40","2","1","6B","C1","C","25"
"","","approach-retreat","174","1219743","0.0-174.0","","","1-3","4151","39","1","Testing","Stims/Figures/27-C-30-1.bmp","fafava","Left","39","2","2","6B","C1","C","26"
"","","approach-retreat","175","1225470","0.0-175.0","","","1-3","4217","38","1","Testing","Stims/Figures/27-J-0-1.bmp","saha:za","Up","38","2","3","6B","C2","C","27"
"","","approach-retreat","176","1231270","0.0-176.0","","","1-3","4291","40","1","Testing","Stims/Figures/111-J-10-3.bmp","za:sa:ha","Down","40","2","4","6B","C2","C","28"
"","","approach-retreat","177","1242865","0.0-177.0","","","1-3","10086","38","1","Testing","Stims/Figures/139-C-20-2.bmp","vasha:sha","Down","38","2","5","6B","C1","C","29"
"","","approach-retreat","178","1252677","0.0-178.0","","","1-3","8303","40","1","Testing","Stims/Figures/94-C-20-2.bmp","fa:sha:va","Up","40","2","6","6B","C1","C","30"
"","","approach-retreat","179","1258605","0.0-179.0","","","1-3","4417","37","1","Testing","Stims/Figures/85-C-20-2.bmp","fa:shasha","Right","37","2","7","6B","C1","C","31"
"","","approach-retreat","180","1264229","0.0-180.0","","","1-3","4116","37","1","Testing","Stims/Figures/86-C-30-1.bmp","fasha:va","Right","37","2","8","6B","C1","C","32"
"","","approach-retreat","181","1269815","0.0-181.0","","","1-3","4077","39","1","Testing","Stims/Figures/144-C-30-3.bmp","va:fava","Left","39","2","9","6B","C1","C","33"
"","","approach-retreat","182","1275505","0.0-182.0","","","1-3","4182","37","1","Testing","Stims/Figures/85-J-0-2.bmp","zaha:za","Left","37","2","10","6B","C2","C","34"
"","","approach-retreat","183","1281152","0.0-183.0","","","1-3","4137","39","1","Testing","Stims/Figures/100-J-10-3.bmp","sasa:ha","Right","39","2","11","6B","C2","C","35"
"","","approach-retreat","184","1286687","0.0-184.0","","","1-3","4028","39","1","Testing","Stims/Figures/57-J-0-1.bmp","zaha:ha","Right","39","2","12","6B","C2","C","36"
"","","approach-retreat","185","1292319","0.0-185.0","","","1-3","4124","39","1","Testing","Stims/Figures/86-J-0-1.bmp","sa:haha","Right","39","2","13","6B","C2","C","37"
"","","approach-retreat","186","1298456","0.0-186.0","","","1-3","4630","40","1","Testing","Stims/Figures/74-C-20-4.bmp","vashasha","Up","40","2","14","6B","C1","C","38"
"","","approach-retreat","187","1307318","0.0-187.0","","","1-3","7355","40","1","Testing","Stims/Figures/87-J-10-4.bmp","za:saha","Down","40","2","15","6B","C2","C","39"
"","","approach-retreat","188","1314643","0.0-188.0","","","1-3","5816","37","1","Testing","Stims/Figures/7-J-10-4.bmp","za:haza","Left","37","2","16","6B","C2","C","40"
"","","approach-retreat","189","1320338","0.0-189.0","","","1-3","4188","38","1","Testing","Stims/Figures/87-C-20-4.bmp","va:fasha","Down","38","2","17","6B","C1","C","41"
"","","approach-retreat","190","1326328","0.0-190.0","","","1-3","4479","38","1","Testing","Stims/Figures/74-J-10-4.bmp","sa:sa:za","Up","38","2","18","6B","C2","C","42"
"","","approach-retreat","191","1332100","0.0-191.0","","","1-3","4262","37","1","Testing","Stims/Figures/100-C-30-3.bmp","va:shasha","Right","37","2","19","6B","C1","C","43"
"","","approach-retreat","192","1337664","0.0-192.0","","","1-3","4055","37","1","Testing","Stims/Figures/139-J-0-2.bmp","saha:ha","Left","37","2","20","6B","C2","C","44"
"","","approach-retreat","193","1343445","0.0-193.0","","","1-3","4274","40","1","Testing","Stims/Figures/94-J-0-2.bmp","zasaha","Down","40","2","21","6B","C2","C","45"
"","","approach-retreat","194","1349137","0.0-194.0","","","1-3","4185","38","1","Testing","Stims/Figures/7-C-20-4.bmp","va:fa:sha","Down","38","2","22","6B","C1","C","46"
"","","approach-retreat","195","1355198","0.0-195.0","","","1-3","4551","38","1","Testing","Stims/Figures/144-J-10-3.bmp","za:haha","Up","38","2","23","6B","C2","C","47"
"","","approach-retreat","196","1360800","0.0-196.0","","","1-3","4092","39","1","Testing","Stims/Figures/111-C-30-3.bmp","va:sha:sha","Left","39","2","24","6B","C1","C","48"
"","","approach-retreat","197","1366770","0.0-197.0","","","1-3","4458","37","1","Testing","Stims/Figures/111-J-10-3.bmp","za:sa:ha","Left","37","3","1","6B","C2","C","49"
"","","approach-retreat","198","1372293","0.0-198.0","","","1-3","4017","37","1","Testing","Stims/Figures/139-J-0-2.bmp","saha:ha","Left","37","3","2","6B","C2","C","50"
"","","approach-retreat","199","1377983","0.0-199.0","","","1-3","4180","40","1","Testing","Stims/Figures/94-C-20-2.bmp","fa:sha:va","Up","40","3","3","6B","C1","C","51"
"","","approach-retreat","200","1383805","0.0-200.0","","","1-3","4315","40","1","Testing","Stims/Figures/94-J-0-2.bmp","zasaha","Down","40","3","4","6B","C2","C","52"
"","","approach-retreat","201","1389465","0.0-201.0","","","1-3","4152","37","1","Testing","Stims/Figures/144-C-30-3.bmp","va:fava","Right","37","3","5","6B","C1","C","53"
"","","approach-retreat","202","1402044","0.0-202.0","","","1-3","11070","37","0","Testing","Stims/Figures/87-J-10-4.bmp","za:saha","Right","39","3","6","6B","C2","C","54"
"","","approach-retreat","203","1408040","0.0-203.0","","","1-3","4486","40","1","Testing","Stims/Figures/7-J-10-4.bmp","za:haza","Down","40","3","7","6B","C2","C","55"
"","","approach-retreat","204","1414054","0.0-204.0","","","1-3","4506","39","1","Testing","Stims/Figures/74-J-10-4.bmp","sa:sa:za","Right","39","3","8","6B","C2","C","56"
"","","approach-retreat","205","1423664","0.0-205.0","","","1-3","8099","37","1","Testing","Stims/Figures/74-C-20-4.bmp","vashasha","Right","37","3","9","6B","C1","C","57"
"","","approach-retreat","206","1429464","0.0-206.0","","","1-3","4291","38","1","Testing","Stims/Figures/7-C-20-4.bmp","va:fa:sha","Down","38","3","10","6B","C1","C","58"
"","","approach-retreat","207","1435114","0.0-207.0","","","1-3","4141","37","1","Testing","Stims/Figures/100-C-30-3.bmp","va:shasha","Right","37","3","11","6B","C1","C","59"
"","","approach-retreat","208","1440767","0.0-208.0","","","1-3","4142","40","1","Testing","Stims/Figures/111-C-30-3.bmp","va:sha:sha","Up","40","3","12","6B","C1","C","60"
"","","approach-retreat","209","1446284","0.0-209.0","","","1-3","4006","39","1","Testing","Stims/Figures/27-J-0-1.bmp","saha:za","Right","39","3","13","6B","C2","C","61"
"","","approach-retreat","210","1451966","0.0-210.0","","","1-3","4173","39","1","Testing","Stims/Figures/86-C-30-1.bmp","fasha:va","Left","39","3","14","6B","C1","C","62"
"","","approach-retreat","211","1457443","0.0-211.0","","","1-3","3966","39","1","Testing","Stims/Figures/87-C-20-4.bmp","va:fasha","Left","39","3","15","6B","C1","C","63"
"","","approach-retreat","212","1463058","0.0-212.0","","","1-3","4105","40","1","Testing","Stims/Figures/57-C-30-1.bmp","vafa:sha","Up","40","3","16","6B","C1","C","64"
"","","approach-retreat","213","1468818","0.0-213.0","","","1-3","4249","38","1","Testing","Stims/Figures/57-J-0-1.bmp","zaha:ha","Up","38","3","17","6B","C2","C","65"
"","","approach-retreat","214","1474580","0.0-214.0","","","1-3","4256","39","1","Testing","Stims/Figures/85-C-20-2.bmp","fa:shasha","Left","39","3","18","6B","C1","C","66"
"","","approach-retreat","215","1480291","0.0-215.0","","","1-3","4203","38","1","Testing","Stims/Figures/139-C-20-2.bmp","vasha:sha","Down","38","3","19","6B","C1","C","67"
"","","approach-retreat","216","1486354","0.0-216.0","","","1-3","4553","37","1","Testing","Stims/Figures/85-J-0-2.bmp","zaha:za","Left","37","3","20","6B","C2","C","68"
"","","approach-retreat","217","1492295","0.0-217.0","","","1-3","4431","38","1","Testing","Stims/Figures/86-J-0-1.bmp","sa:haha","Up","38","3","21","6B","C2","C","69"
"","","approach-retreat","218","1506776","0.0-218.0","","","1-3","12970","40","1","Testing","Stims/Figures/100-J-10-3.bmp","sasa:ha","Down","40","3","22","6B","C2","C","70"
"","","approach-retreat","219","1526598","0.0-219.0","","","1-3","18312","38","1","Testing","Stims/Figures/144-J-10-3.bmp","za:haha","Up","38","3","23","6B","C2","C","71"
"","","approach-retreat","220","1532365","0.0-220.0","","","1-3","4261","38","1","Testing","Stims/Figures/27-C-30-1.bmp","fafava","Down","38","3","24","6B","C1","C","72"
"","","approach-retreat","221","1539060","0.0-221.0","","","1-3","5187","40","1","Testing","Stims/Figures/100-J-10-3.bmp","sasa:ha","Down","40","4","1","6B","C2","C","73"
"","","approach-retreat","222","1545189","0.0-222.0","","","1-3","4617","37","1","Testing","Stims/Figures/111-C-30-3.bmp","va:sha:sha","Right","37","4","2","6B","C1","C","74"
"","","approach-retreat","223","1550970","0.0-223.0","","","1-3","4269","38","1","Testing","Stims/Figures/86-J-0-1.bmp","sa:haha","Up","38","4","3","6B","C2","C","75"
"","","approach-retreat","224","1557323","0.0-224.0","","","1-3","4842","38","1","Testing","Stims/Figures/139-C-20-2.bmp","vasha:sha","Down","38","4","4","6B","C1","C","76"
"","","approach-retreat","225","1563540","0.0-225.0","","","1-3","4707","38","1","Testing","Stims/Figures/7-C-20-4.bmp","va:fa:sha","Down","38","4","5","6B","C1","C","77"
"","","approach-retreat","226","1569066","0.0-226.0","","","1-3","4020","39","1","Testing","Stims/Figures/111-J-10-3.bmp","za:sa:ha","Right","39","4","6","6B","C2","C","78"
"","","approach-retreat","227","1586666","0.0-227.0","","","1-3","16091","40","1","Testing","Stims/Figures/74-C-20-4.bmp","vashasha","Up","40","4","7","6B","C1","C","79"
"","","approach-retreat","228","1592293","0.0-228.0","","","1-3","4118","39","1","Testing","Stims/Figures/94-C-20-2.bmp","fa:sha:va","Left","39","4","8","6B","C1","C","80"
"","","approach-retreat","229","1597855","0.0-229.0","","","1-3","4051","37","1","Testing","Stims/Figures/85-J-0-2.bmp","zaha:za","Left","37","4","9","6B","C2","C","81"
"","","approach-retreat","230","1603592","0.0-230.0","","","1-3","4226","39","1","Testing","Stims/Figures/85-C-20-2.bmp","fa:shasha","Left","39","4","10","6B","C1","C","82"
"","","approach-retreat","231","1614203","0.0-231.0","","","1-3","9104","40","1","Testing","Stims/Figures/87-J-10-4.bmp","za:saha","Down","40","4","11","6B","C2","C","83"
"","","approach-retreat","232","1620118","0.0-232.0","","","1-3","4404","37","1","Testing","Stims/Figures/86-C-30-1.bmp","fasha:va","Right","37","4","12","6B","C1","C","84"
"","","approach-retreat","233","1625657","0.0-233.0","","","1-3","4016","37","1","Testing","Stims/Figures/139-J-0-2.bmp","saha:ha","Left","37","4","13","6B","C2","C","85"
"","","approach-retreat","234","1632038","0.0-234.0","","","1-3","4870","40","1","Testing","Stims/Figures/74-J-10-4.bmp","sa:sa:za","Down","40","4","14","6B","C2","C","86"
"","","approach-retreat","235","1638542","0.0-235.0","","","1-3","4995","40","1","Testing","Stims/Figures/87-C-20-4.bmp","va:fasha","Up","40","4","15","6B","C1","C","87"
"","","approach-retreat","236","1644561","0.0-236.0","","","1-3","4510","39","1","Testing","Stims/Figures/57-C-30-1.bmp","vafa:sha","Left","39","4","16","6B","C1","C","88"
"","","approach-retreat","237","1651154","0.0-237.0","","","1-3","5083","40","1","Testing","Stims/Figures/27-C-30-1.bmp","fafava","Up","40","4","17","6B","C1","C","89"
"","","approach-retreat","238","1660616","0.0-238.0","","","1-3","7952","37","1","Testing","Stims/Figures/100-C-30-3.bmp","va:shasha","Right","37","4","18","6B","C1","C","90"
"","","approach-retreat","239","1666414","0.0-239.0","","","1-3","4289","38","1","Testing","Stims/Figures/7-J-10-4.bmp","za:haza","Up","38","4","19","6B","C2","C","91"
"","","approach-retreat","240","1673108","0.0-240.0","","","1-3","5184","38","1","Testing","Stims/Figures/57-J-0-1.bmp","zaha:ha","Up","38","4","20","6B","C2","C","92"
"","","approach-retreat","241","1678714","0.0-241.0","","","1-3","4097","39","1","Testing","Stims/Figures/94-J-0-2.bmp","zasaha","Right","39","4","21","6B","C2","C","93"
"","","approach-retreat","242","1685310","0.0-242.0","","","1-3","5087","37","1","Testing","Stims/Figures/144-C-30-3.bmp","va:fava","Right","37","4","22","6B","C1","C","94"
"","","approach-retreat","243","1691069","0.0-243.0","","","1-3","4253","37","1","Testing","Stims/Figures/144-J-10-3.bmp","za:haha","Left","37","4","23","6B","C2","C","95"
"","","approach-retreat","244","1697156","0.0-244.0","","","1-3","4579","40","1","Testing","Stims/Figures/27-J-0-1.bmp","saha:za","Down","40","4","24","6B","C2","C","96"
"58208","","survey-text","245","1755370","0.0-245.0","","{""Q0"":""0130/2018""}","","","","","","","","","","","","","","",""
