"rt","key_press","trial_type","trial_index","time_elapsed","internal_node_id","view_history","responses","Id","Rt","ResKeyCode","ResCorr","TrialType2","Image","Label","Location","CorrectResponse","Block","BlockTrial","Condition","LabelType","Subcondition","trialNum"
"4911","32","text","0","4918","0.0-0.0-0.0","","","","","","","","","","","","","","","","",""
"12414","","instructions","1","17339","0.0-1.0","[{""page_index"":0,""viewing_time"":12412}]","","","","","","","","","","","","","","","",""
"8090","","survey-multi-choice","2","25493","0.0-2.0","","{""Q0"":""Da"",""Q1"":""Da"",""Q2"":""Da"",""Q3"":""Da"",""Q4"":""Da"",""Q5"":""Da""}","","","","","","","","","","","","","","",""
"","","bio","3","33161","0.0-3.0","","{""age"":""18"",""gender"":""f"",""specify"":""""}","","","","","","","","","","","","","","",""
"","","approach-retreat","4","43804","0.0-4.0","","","2-3","9121","38","0","Training","Stims/Figures/86-C-30-1.bmp","ta:kaka","Up","40","1","1","9","P","C","1"
"","","approach-retreat","5","52765","0.0-5.0","","","2-3","7440","40","0","Training","Stims/Figures/27-C-30-1.bmp","mala:la","Down","38","1","2","9","S","C","2"
"","","approach-retreat","6","63010","0.0-6.0","","","2-3","8726","40","1","Training","Stims/Figures/74-C-20-4.bmp","papa:ka","Up","40","1","3","9","P","C","3"
"","","approach-retreat","7","71772","0.0-7.0","","","2-3","7246","39","0","Training","Stims/Figures/85-C-20-2.bmp","va:shava","Right","37","1","4","9","C1","C","4"
"","","approach-retreat","8","78428","0.0-8.0","","","2-3","5136","40","0","Training","Stims/Figures/27-J-0-1.bmp","fa:sha:sha","Up","38","1","5","9","C1","C","5"
"","","approach-retreat","9","84648","0.0-9.0","","","2-3","4702","37","0","Training","Stims/Figures/85-J-0-2.bmp","ma:ma:na","Right","39","1","6","9","S","C","6"
"","","approach-retreat","10","91248","0.0-10.0","","","2-3","5085","37","0","Training","Stims/Figures/44-J-10-3.bmp","na:la:na","Right","39","1","7","9","S","C","7"
"","","approach-retreat","11","101402","0.0-11.0","","","2-3","8641","39","0","Training","Stims/Figures/7-J-10-4.bmp","va:fa:va","Left","37","1","8","9","C1","C","8"
"","","approach-retreat","12","107465","0.0-12.0","","","2-3","4543","39","1","Training","Stims/Figures/144-C-30-3.bmp","pakaka","Left","39","1","9","9","P","C","9"
"","","approach-retreat","13","114317","0.0-13.0","","","2-3","5334","40","0","Training","Stims/Figures/74-J-10-4.bmp","mama:na","Up","38","1","10","9","S","C","10"
"","","approach-retreat","14","121395","0.0-14.0","","","2-3","5560","38","0","Training","Stims/Figures/86-J-0-1.bmp","sasaza","Down","40","1","11","9","C2","C","11"
"","","approach-retreat","15","128289","0.0-15.0","","","2-3","5371","37","1","Training","Stims/Figures/144-J-10-3.bmp","mamana","Left","37","1","12","9","S","C","12"
"","","approach-retreat","16","134471","0.0-16.0","","","2-3","4665","38","1","Training","Stims/Figures/44-C-30-3.bmp","na:la:la","Down","38","1","13","9","S","C","13"
"","","approach-retreat","17","140931","0.0-17.0","","","2-3","4945","39","0","Training","Stims/Figures/118-C-20-2.bmp","sa:haza","Right","37","1","14","9","C2","C","14"
"","","approach-retreat","18","146952","0.0-18.0","","","2-3","4504","39","0","Training","Stims/Figures/118-J-0-2.bmp","zasaha","Left","37","1","15","9","C2","C","15"
"","","approach-retreat","19","152597","0.0-19.0","","","2-3","4132","38","1","Training","Stims/Figures/7-C-20-4.bmp","zahaha","Down","38","1","16","9","C2","C","16"
"","","approach-retreat","20","158642","0.0-20.0","","","2-3","4529","40","0","Training","Stims/Figures/44-J-10-3.bmp","na:la:na","Up","38","2","1","9","S","C","17"
"","","approach-retreat","21","164863","0.0-21.0","","","2-3","4707","40","1","Training","Stims/Figures/7-C-20-4.bmp","zahaha","Up","40","2","2","9","C2","C","18"
"","","approach-retreat","22","176482","0.0-22.0","","","2-3","10097","39","1","Training","Stims/Figures/27-J-0-1.bmp","fa:sha:sha","Right","39","2","3","9","C1","C","19"
"","","approach-retreat","23","185651","0.0-23.0","","","2-3","7649","38","0","Training","Stims/Figures/74-C-20-4.bmp","papa:ka","Up","40","2","4","9","P","C","20"
"","","approach-retreat","24","193422","0.0-24.0","","","2-3","6252","39","0","Training","Stims/Figures/86-J-0-1.bmp","sasaza","Left","37","2","5","9","C2","C","21"
"","","approach-retreat","25","203101","0.0-25.0","","","2-3","8160","39","1","Training","Stims/Figures/118-C-20-2.bmp","sa:haza","Left","39","2","6","9","C2","C","22"
"","","approach-retreat","26","211473","0.0-26.0","","","2-3","6857","38","0","Training","Stims/Figures/85-J-0-2.bmp","ma:ma:na","Down","40","2","7","9","S","C","23"
"","","approach-retreat","27","219855","0.0-27.0","","","2-3","6864","40","0","Training","Stims/Figures/27-C-30-1.bmp","mala:la","Down","38","2","8","9","S","C","24"
"","","approach-retreat","28","228451","0.0-28.0","","","2-3","7077","39","1","Training","Stims/Figures/86-C-30-1.bmp","ta:kaka","Left","39","2","9","9","P","C","25"
"","","approach-retreat","29","236301","0.0-29.0","","","2-3","6330","39","0","Training","Stims/Figures/118-J-0-2.bmp","zasaha","Left","37","2","10","9","C2","C","26"
"","","approach-retreat","30","243238","0.0-30.0","","","2-3","5419","38","1","Training","Stims/Figures/144-J-10-3.bmp","mamana","Up","38","2","11","9","S","C","27"
"","","approach-retreat","31","252194","0.0-31.0","","","2-3","7438","39","1","Training","Stims/Figures/7-J-10-4.bmp","va:fa:va","Right","39","2","12","9","C1","C","28"
"","","approach-retreat","32","260169","0.0-32.0","","","2-3","6456","40","0","Training","Stims/Figures/85-C-20-2.bmp","va:shava","Down","38","2","13","9","C1","C","29"
"","","approach-retreat","33","267060","0.0-33.0","","","2-3","5375","39","1","Training","Stims/Figures/74-J-10-4.bmp","mama:na","Right","39","2","14","9","S","C","30"
"","","approach-retreat","34","276245","0.0-34.0","","","2-3","7667","37","1","Training","Stims/Figures/44-C-30-3.bmp","na:la:la","Right","37","2","15","9","S","C","31"
"","","approach-retreat","35","284529","0.0-35.0","","","2-3","6770","38","1","Training","Stims/Figures/144-C-30-3.bmp","pakaka","Down","38","2","16","9","P","C","32"
"","","approach-retreat","36","291849","0.0-36.0","","","2-3","5804","37","1","Training","Stims/Figures/86-J-0-1.bmp","sasaza","Left","37","3","1","9","C2","C","33"
"","","approach-retreat","37","305651","0.0-37.0","","","2-3","12284","39","1","Training","Stims/Figures/44-J-10-3.bmp","na:la:na","Right","39","3","2","9","S","C","34"
"","","approach-retreat","38","312859","0.0-38.0","","","2-3","5689","38","1","Training","Stims/Figures/144-C-30-3.bmp","pakaka","Down","38","3","3","9","P","C","35"
"","","approach-retreat","39","319466","0.0-39.0","","","2-3","5087","40","1","Training","Stims/Figures/86-C-30-1.bmp","ta:kaka","Up","40","3","4","9","P","C","36"
"","","approach-retreat","40","326103","0.0-40.0","","","2-3","5122","40","1","Training","Stims/Figures/118-C-20-2.bmp","sa:haza","Up","40","3","5","9","C2","C","37"
"","","approach-retreat","41","334951","0.0-41.0","","","2-3","7330","38","1","Training","Stims/Figures/44-C-30-3.bmp","na:la:la","Down","38","3","6","9","S","C","38"
"","","approach-retreat","42","343902","0.0-42.0","","","2-3","7436","40","0","Training","Stims/Figures/7-C-20-4.bmp","zahaha","Down","38","3","7","9","C2","C","39"
"","","approach-retreat","43","352418","0.0-43.0","","","2-3","7003","39","1","Training","Stims/Figures/27-J-0-1.bmp","fa:sha:sha","Right","39","3","8","9","C1","C","40"
"","","approach-retreat","44","364095","0.0-44.0","","","2-3","10161","39","1","Training","Stims/Figures/118-J-0-2.bmp","zasaha","Right","39","3","9","9","C2","C","41"
"","","approach-retreat","45","370930","0.0-45.0","","","2-3","5322","37","1","Training","Stims/Figures/27-C-30-1.bmp","mala:la","Right","37","3","10","9","S","C","42"
"","","approach-retreat","46","379588","0.0-46.0","","","2-3","7139","37","1","Training","Stims/Figures/74-J-10-4.bmp","mama:na","Left","37","3","11","9","S","C","43"
"","","approach-retreat","47","392596","0.0-47.0","","","2-3","11488","40","0","Training","Stims/Figures/85-C-20-2.bmp","va:shava","Down","38","3","12","9","C1","C","44"
"","","approach-retreat","48","400100","0.0-48.0","","","2-3","5988","37","1","Training","Stims/Figures/85-J-0-2.bmp","ma:ma:na","Left","37","3","13","9","S","C","45"
"","","approach-retreat","49","408140","0.0-49.0","","","2-3","6528","37","1","Training","Stims/Figures/7-J-10-4.bmp","va:fa:va","Left","37","3","14","9","C1","C","46"
"","","approach-retreat","50","415377","0.0-50.0","","","2-3","5722","40","1","Training","Stims/Figures/74-C-20-4.bmp","papa:ka","Up","40","3","15","9","P","C","47"
"","","approach-retreat","51","422176","0.0-51.0","","","2-3","5281","38","1","Training","Stims/Figures/144-J-10-3.bmp","mamana","Up","38","3","16","9","S","C","48"
"","","approach-retreat","52","428401","0.0-52.0","","","2-3","4708","37","1","Training","Stims/Figures/144-C-30-3.bmp","pakaka","Right","37","4","1","9","P","C","49"
"","","approach-retreat","53","435103","0.0-53.0","","","2-3","5183","39","1","Training","Stims/Figures/27-J-0-1.bmp","fa:sha:sha","Right","39","4","2","9","C1","C","50"
"","","approach-retreat","54","442372","0.0-54.0","","","2-3","5751","40","1","Training","Stims/Figures/118-C-20-2.bmp","sa:haza","Up","40","4","3","9","C2","C","51"
"","","approach-retreat","55","449674","0.0-55.0","","","2-3","5783","40","1","Training","Stims/Figures/74-C-20-4.bmp","papa:ka","Up","40","4","4","9","P","C","52"
"","","approach-retreat","56","457776","0.0-56.0","","","2-3","6584","38","0","Training","Stims/Figures/7-C-20-4.bmp","zahaha","Up","40","4","5","9","C2","C","53"
"","","approach-retreat","57","464709","0.0-57.0","","","2-3","5414","37","1","Training","Stims/Figures/7-J-10-4.bmp","va:fa:va","Left","37","4","6","9","C1","C","54"
"","","approach-retreat","58","471615","0.0-58.0","","","2-3","5389","37","1","Training","Stims/Figures/74-J-10-4.bmp","mama:na","Left","37","4","7","9","S","C","55"
"","","approach-retreat","59","484113","0.0-59.0","","","2-3","10979","38","1","Training","Stims/Figures/44-C-30-3.bmp","na:la:la","Down","38","4","8","9","S","C","56"
"","","approach-retreat","60","492489","0.0-60.0","","","2-3","6864","38","1","Training","Stims/Figures/118-J-0-2.bmp","zasaha","Up","38","4","9","9","C2","C","57"
"","","approach-retreat","61","498403","0.0-61.0","","","2-3","4402","40","1","Training","Stims/Figures/44-J-10-3.bmp","na:la:na","Down","40","4","10","9","S","C","58"
"","","approach-retreat","62","504104","0.0-62.0","","","2-3","4180","39","1","Training","Stims/Figures/144-J-10-3.bmp","mamana","Right","39","4","11","9","S","C","59"
"","","approach-retreat","63","510082","0.0-63.0","","","2-3","4462","38","1","Training","Stims/Figures/85-C-20-2.bmp","va:shava","Down","38","4","12","9","C1","C","60"
"","","approach-retreat","64","515908","0.0-64.0","","","2-3","4309","37","1","Training","Stims/Figures/85-J-0-2.bmp","ma:ma:na","Left","37","4","13","9","S","C","61"
"","","approach-retreat","65","522636","0.0-65.0","","","2-3","5211","37","0","Training","Stims/Figures/86-J-0-1.bmp","sasaza","Right","39","4","14","9","C2","C","62"
"","","approach-retreat","66","529287","0.0-66.0","","","2-3","5141","38","1","Training","Stims/Figures/27-C-30-1.bmp","mala:la","Down","38","4","15","9","S","C","63"
"","","approach-retreat","67","535035","0.0-67.0","","","2-3","4235","39","1","Training","Stims/Figures/86-C-30-1.bmp","ta:kaka","Left","39","4","16","9","P","C","64"
"","","approach-retreat","68","541729","0.0-68.0","","","2-3","5183","38","0","Training","Stims/Figures/44-C-30-3.bmp","na:la:la","Up","40","5","1","9","S","C","65"
"","","approach-retreat","69","549375","0.0-69.0","","","2-3","6127","39","1","Training","Stims/Figures/74-J-10-4.bmp","mama:na","Right","39","5","2","9","S","C","66"
"","","approach-retreat","70","558458","0.0-70.0","","","2-3","7564","40","1","Training","Stims/Figures/27-J-0-1.bmp","fa:sha:sha","Down","40","5","3","9","C1","C","67"
"","","approach-retreat","71","565852","0.0-71.0","","","2-3","5877","38","1","Training","Stims/Figures/44-J-10-3.bmp","na:la:na","Up","38","5","4","9","S","C","68"
"","","approach-retreat","72","571870","0.0-72.0","","","2-3","4495","38","1","Training","Stims/Figures/144-J-10-3.bmp","mamana","Up","38","5","5","9","S","C","69"
"","","approach-retreat","73","577781","0.0-73.0","","","2-3","4395","38","1","Training","Stims/Figures/85-J-0-2.bmp","ma:ma:na","Up","38","5","6","9","S","C","70"
"","","approach-retreat","74","584040","0.0-74.0","","","2-3","4741","37","1","Training","Stims/Figures/7-J-10-4.bmp","va:fa:va","Left","37","5","7","9","C1","C","71"
"","","approach-retreat","75","589857","0.0-75.0","","","2-3","4302","39","1","Training","Stims/Figures/27-C-30-1.bmp","mala:la","Left","39","5","8","9","S","C","72"
"","","approach-retreat","76","595535","0.0-76.0","","","2-3","4160","40","1","Training","Stims/Figures/86-J-0-1.bmp","sasaza","Down","40","5","9","9","C2","C","73"
"","","approach-retreat","77","604142","0.0-77.0","","","2-3","7090","37","0","Training","Stims/Figures/85-C-20-2.bmp","va:shava","Left","39","5","10","9","C1","C","74"
"","","approach-retreat","78","613611","0.0-78.0","","","2-3","7959","39","1","Training","Stims/Figures/118-J-0-2.bmp","zasaha","Right","39","5","11","9","C2","C","75"
"","","approach-retreat","79","620645","0.0-79.0","","","2-3","5519","39","0","Training","Stims/Figures/118-C-20-2.bmp","sa:haza","Right","37","5","12","9","C2","C","76"
"","","approach-retreat","80","625672","0.0-80.0","","","2-3","3506","39","1","Training","Stims/Figures/7-C-20-4.bmp","zahaha","Left","39","5","13","9","C2","C","77"
"","","approach-retreat","81","631184","0.0-81.0","","","2-3","4001","38","1","Training","Stims/Figures/144-C-30-3.bmp","pakaka","Down","38","5","14","9","P","C","78"
"","","approach-retreat","82","636614","0.0-82.0","","","2-3","3912","37","1","Training","Stims/Figures/74-C-20-4.bmp","papa:ka","Right","37","5","15","9","P","C","79"
"","","approach-retreat","83","642202","0.0-83.0","","","2-3","4070","38","1","Training","Stims/Figures/86-C-30-1.bmp","ta:kaka","Down","38","5","16","9","P","C","80"
"","","approach-retreat","84","647647","0.0-84.0","","","2-3","3928","37","1","Training","Stims/Figures/74-C-20-4.bmp","papa:ka","Right","37","6","1","9","P","C","81"
"","","approach-retreat","85","653129","0.0-85.0","","","2-3","3965","37","1","Training","Stims/Figures/144-C-30-3.bmp","pakaka","Right","37","6","2","9","P","C","82"
"","","approach-retreat","86","658804","0.0-86.0","","","2-3","4156","39","1","Training","Stims/Figures/118-C-20-2.bmp","sa:haza","Left","39","6","3","9","C2","C","83"
"","","approach-retreat","87","665129","0.0-87.0","","","2-3","4809","40","1","Training","Stims/Figures/44-C-30-3.bmp","na:la:la","Up","40","6","4","9","S","C","84"
"","","approach-retreat","88","670938","0.0-88.0","","","2-3","4296","39","0","Training","Stims/Figures/44-J-10-3.bmp","na:la:na","Left","37","6","5","9","S","C","85"
"","","approach-retreat","89","677702","0.0-89.0","","","2-3","5247","38","1","Training","Stims/Figures/86-J-0-1.bmp","sasaza","Up","38","6","6","9","C2","C","86"
"","","approach-retreat","90","684409","0.0-90.0","","","2-3","5189","39","1","Training","Stims/Figures/27-C-30-1.bmp","mala:la","Left","39","6","7","9","S","C","87"
"","","approach-retreat","91","690220","0.0-91.0","","","2-3","4294","38","1","Training","Stims/Figures/144-J-10-3.bmp","mamana","Up","38","6","8","9","S","C","88"
"","","approach-retreat","92","697033","0.0-92.0","","","2-3","5295","38","1","Training","Stims/Figures/85-C-20-2.bmp","va:shava","Down","38","6","9","9","C1","C","89"
"","","approach-retreat","93","702748","0.0-93.0","","","2-3","4196","40","1","Training","Stims/Figures/85-J-0-2.bmp","ma:ma:na","Down","40","6","10","9","S","C","90"
"","","approach-retreat","94","708610","0.0-94.0","","","2-3","4346","38","1","Training","Stims/Figures/27-J-0-1.bmp","fa:sha:sha","Up","38","6","11","9","C1","C","91"
"","","approach-retreat","95","715990","0.0-95.0","","","2-3","5860","39","1","Training","Stims/Figures/118-J-0-2.bmp","zasaha","Right","39","6","12","9","C2","C","92"
"","","approach-retreat","96","721200","0.0-96.0","","","2-3","3693","39","0","Training","Stims/Figures/7-C-20-4.bmp","zahaha","Right","37","6","13","9","C2","C","93"
"","","approach-retreat","97","726847","0.0-97.0","","","2-3","4132","38","1","Training","Stims/Figures/86-C-30-1.bmp","ta:kaka","Down","38","6","14","9","P","C","94"
"","","approach-retreat","98","732400","0.0-98.0","","","2-3","4035","40","1","Training","Stims/Figures/74-J-10-4.bmp","mama:na","Down","40","6","15","9","S","C","95"
"","","approach-retreat","99","738689","0.0-99.0","","","2-3","4772","37","1","Training","Stims/Figures/7-J-10-4.bmp","va:fa:va","Left","37","6","16","9","C1","C","96"
"","","approach-retreat","100","744936","0.0-100.0","","","2-3","4729","39","1","Training","Stims/Figures/118-J-0-2.bmp","zasaha","Right","39","7","1","9","C2","C","97"
"","","approach-retreat","101","750504","0.0-101.0","","","2-3","4048","39","1","Training","Stims/Figures/86-J-0-1.bmp","sasaza","Right","39","7","2","9","C2","C","98"
"","","approach-retreat","102","756084","0.0-102.0","","","2-3","4062","39","1","Training","Stims/Figures/86-C-30-1.bmp","ta:kaka","Left","39","7","3","9","P","C","99"
"","","approach-retreat","103","762964","0.0-103.0","","","2-3","5362","40","0","Training","Stims/Figures/7-C-20-4.bmp","zahaha","Down","38","7","4","9","C2","C","100"
"","","approach-retreat","104","769003","0.0-104.0","","","2-3","4522","39","0","Training","Stims/Figures/144-J-10-3.bmp","mamana","Left","37","7","5","9","S","C","101"
"","","approach-retreat","105","775681","0.0-105.0","","","2-3","5161","40","1","Training","Stims/Figures/74-J-10-4.bmp","mama:na","Down","40","7","6","9","S","C","102"
"","","approach-retreat","106","782568","0.0-106.0","","","2-3","5368","40","1","Training","Stims/Figures/7-J-10-4.bmp","va:fa:va","Down","40","7","7","9","C1","C","103"
"","","approach-retreat","107","788354","0.0-107.0","","","2-3","4269","38","1","Training","Stims/Figures/44-C-30-3.bmp","na:la:la","Down","38","7","8","9","S","C","104"
"","","approach-retreat","108","794126","0.0-108.0","","","2-3","4256","40","1","Training","Stims/Figures/85-C-20-2.bmp","va:shava","Up","40","7","9","9","C1","C","105"
"","","approach-retreat","109","800129","0.0-109.0","","","2-3","4482","37","1","Training","Stims/Figures/27-C-30-1.bmp","mala:la","Right","37","7","10","9","S","C","106"
"","","approach-retreat","110","807437","0.0-110.0","","","2-3","5793","38","1","Training","Stims/Figures/27-J-0-1.bmp","fa:sha:sha","Up","38","7","11","9","C1","C","107"
"","","approach-retreat","111","817075","0.0-111.0","","","2-3","8122","39","1","Training","Stims/Figures/44-J-10-3.bmp","na:la:na","Right","39","7","12","9","S","C","108"
"","","approach-retreat","112","822726","0.0-112.0","","","2-3","4135","40","1","Training","Stims/Figures/144-C-30-3.bmp","pakaka","Up","40","7","13","9","P","C","109"
"","","approach-retreat","113","829761","0.0-113.0","","","2-3","5515","39","1","Training","Stims/Figures/118-C-20-2.bmp","sa:haza","Left","39","7","14","9","C2","C","110"
"","","approach-retreat","114","835506","0.0-114.0","","","2-3","4222","39","1","Training","Stims/Figures/74-C-20-4.bmp","papa:ka","Left","39","7","15","9","P","C","111"
"","","approach-retreat","115","841576","0.0-115.0","","","2-3","4555","38","1","Training","Stims/Figures/85-J-0-2.bmp","ma:ma:na","Up","38","7","16","9","S","C","112"
"","","approach-retreat","116","847483","0.0-116.0","","","2-3","4388","40","1","Training","Stims/Figures/85-J-0-2.bmp","ma:ma:na","Down","40","8","1","9","S","C","113"
"","","approach-retreat","117","853493","0.0-117.0","","","2-3","4496","38","1","Training","Stims/Figures/144-J-10-3.bmp","mamana","Up","38","8","2","9","S","C","114"
"","","approach-retreat","118","859511","0.0-118.0","","","2-3","4499","39","0","Training","Stims/Figures/7-C-20-4.bmp","zahaha","Right","37","8","3","9","C2","C","115"
"","","approach-retreat","119","868122","0.0-119.0","","","2-3","7093","37","1","Training","Stims/Figures/118-C-20-2.bmp","sa:haza","Right","37","8","4","9","C2","C","116"
"","","approach-retreat","120","876536","0.0-120.0","","","2-3","6899","40","1","Training","Stims/Figures/44-J-10-3.bmp","na:la:na","Down","40","8","5","9","S","C","117"
"","","approach-retreat","121","882863","0.0-121.0","","","2-3","4813","37","1","Training","Stims/Figures/86-J-0-1.bmp","sasaza","Left","37","8","6","9","C2","C","118"
"","","approach-retreat","122","889464","0.0-122.0","","","2-3","5082","38","1","Training","Stims/Figures/74-J-10-4.bmp","mama:na","Up","38","8","7","9","S","C","119"
"","","approach-retreat","123","895662","0.0-123.0","","","2-3","4683","39","1","Training","Stims/Figures/7-J-10-4.bmp","va:fa:va","Right","39","8","8","9","C1","C","120"
"","","approach-retreat","124","900997","0.0-124.0","","","2-3","3819","40","1","Training","Stims/Figures/85-C-20-2.bmp","va:shava","Up","40","8","9","9","C1","C","121"
"","","approach-retreat","125","907575","0.0-125.0","","","2-3","5062","40","1","Training","Stims/Figures/27-C-30-1.bmp","mala:la","Up","40","8","10","9","S","C","122"
"","","approach-retreat","126","915957","0.0-126.0","","","2-3","6865","37","1","Training","Stims/Figures/118-J-0-2.bmp","zasaha","Left","37","8","11","9","C2","C","123"
"","","approach-retreat","127","922174","0.0-127.0","","","2-3","4699","39","0","Training","Stims/Figures/27-J-0-1.bmp","fa:sha:sha","Left","37","8","12","9","C1","C","124"
"","","approach-retreat","128","927713","0.0-128.0","","","2-3","4025","39","1","Training","Stims/Figures/74-C-20-4.bmp","papa:ka","Left","39","8","13","9","P","C","125"
"","","approach-retreat","129","933396","0.0-129.0","","","2-3","4168","38","1","Training","Stims/Figures/86-C-30-1.bmp","ta:kaka","Down","38","8","14","9","P","C","126"
"","","approach-retreat","130","939366","0.0-130.0","","","2-3","4451","38","1","Training","Stims/Figures/44-C-30-3.bmp","na:la:la","Down","38","8","15","9","S","C","127"
"","","approach-retreat","131","944876","0.0-131.0","","","2-3","3992","37","1","Training","Stims/Figures/144-C-30-3.bmp","pakaka","Right","37","8","16","9","P","C","128"
"","","approach-retreat","132","951293","0.0-132.0","","","2-3","4907","40","1","Training","Stims/Figures/85-C-20-2.bmp","va:shava","Up","40","9","1","9","C1","C","129"
"","","approach-retreat","133","956777","0.0-133.0","","","2-3","3967","39","1","Training","Stims/Figures/144-C-30-3.bmp","pakaka","Left","39","9","2","9","P","C","130"
"","","approach-retreat","134","963274","0.0-134.0","","","2-3","4986","37","1","Training","Stims/Figures/27-C-30-1.bmp","mala:la","Right","37","9","3","9","S","C","131"
"","","approach-retreat","135","969420","0.0-135.0","","","2-3","4626","39","1","Training","Stims/Figures/118-C-20-2.bmp","sa:haza","Left","39","9","4","9","C2","C","132"
"","","approach-retreat","136","975114","0.0-136.0","","","2-3","4175","39","0","Training","Stims/Figures/144-J-10-3.bmp","mamana","Left","37","9","5","9","S","C","133"
"","","approach-retreat","137","983681","0.0-137.0","","","2-3","7052","40","0","Training","Stims/Figures/7-C-20-4.bmp","zahaha","Down","38","9","6","9","C2","C","134"
"","","approach-retreat","138","989199","0.0-138.0","","","2-3","3996","37","1","Training","Stims/Figures/74-C-20-4.bmp","papa:ka","Right","37","9","7","9","P","C","135"
"","","approach-retreat","139","998672","0.0-139.0","","","2-3","7955","38","1","Training","Stims/Figures/118-J-0-2.bmp","zasaha","Up","38","9","8","9","C2","C","136"
"","","approach-retreat","140","1004838","0.0-140.0","","","2-3","4648","40","1","Training","Stims/Figures/27-J-0-1.bmp","fa:sha:sha","Down","40","9","9","9","C1","C","137"
"","","approach-retreat","141","1010705","0.0-141.0","","","2-3","4348","37","1","Training","Stims/Figures/74-J-10-4.bmp","mama:na","Left","37","9","10","9","S","C","138"
"","","approach-retreat","142","1016318","0.0-142.0","","","2-3","4095","40","1","Training","Stims/Figures/85-J-0-2.bmp","ma:ma:na","Down","40","9","11","9","S","C","139"
"","","approach-retreat","143","1022003","0.0-143.0","","","2-3","4165","37","1","Training","Stims/Figures/44-C-30-3.bmp","na:la:la","Right","37","9","12","9","S","C","140"
"","","approach-retreat","144","1028401","0.0-144.0","","","2-3","4882","38","1","Training","Stims/Figures/7-J-10-4.bmp","va:fa:va","Up","38","9","13","9","C1","C","141"
"","","approach-retreat","145","1034216","0.0-145.0","","","2-3","4301","40","1","Training","Stims/Figures/44-J-10-3.bmp","na:la:na","Down","40","9","14","9","S","C","142"
"","","approach-retreat","146","1040872","0.0-146.0","","","2-3","5137","38","1","Training","Stims/Figures/86-J-0-1.bmp","sasaza","Up","38","9","15","9","C2","C","143"
"","","approach-retreat","147","1046444","0.0-147.0","","","2-3","4051","37","1","Training","Stims/Figures/86-C-30-1.bmp","ta:kaka","Right","37","9","16","9","P","C","144"
"23912","","instructions","148","1070357","0.0-148.0","[{""page_index"":0,""viewing_time"":23911}]","","","","","","","","","","","","","","","",""
"","","approach-retreat","149","1081799","0.0-149.0","","","2-3","9929","39","1","Testing","Stims/Figures/27-J-0-1.bmp","fa:sha:sha","Right","39","1","1","9","C1","C","1"
"","","approach-retreat","150","1087884","0.0-150.0","","","2-3","4570","40","0","Testing","Stims/Figures/7-C-20-4.bmp","zahaha","Down","38","1","2","9","C2","C","2"
"","","approach-retreat","151","1093634","0.0-151.0","","","2-3","4237","40","1","Testing","Stims/Figures/74-C-20-4.bmp","papa:ka","Up","40","1","3","9","P","C","3"
"","","approach-retreat","152","1099287","0.0-152.0","","","2-3","4138","38","0","Testing","Stims/Figures/44-J-10-3.bmp","na:la:na","Down","40","1","4","9","S","C","4"
"","","approach-retreat","153","1105258","0.0-153.0","","","2-3","4461","40","1","Testing","Stims/Figures/74-J-10-4.bmp","mama:na","Down","40","1","5","9","S","C","5"
"","","approach-retreat","154","1111741","0.0-154.0","","","2-3","4969","39","1","Testing","Stims/Figures/93-C-30-1.bmp","sa:saza","Left","39","1","6","9","C2","C","6"
"","","approach-retreat","155","1118380","0.0-155.0","","","2-3","5123","39","1","Testing","Stims/Figures/111-J-10-3.bmp","za:saha","Right","39","1","7","9","C2","C","7"
"","","approach-retreat","156","1123919","0.0-156.0","","","2-3","4031","38","1","Testing","Stims/Figures/144-C-30-3.bmp","pakaka","Down","38","1","8","9","P","C","8"
"","","approach-retreat","157","1129743","0.0-157.0","","","2-3","4311","40","1","Testing","Stims/Figures/19-C-20-4.bmp","va:fa:sha","Up","40","1","9","9","C1","C","9"
"","","approach-retreat","158","1135311","0.0-158.0","","","2-3","4055","37","1","Testing","Stims/Figures/86-C-30-1.bmp","ta:kaka","Right","37","1","10","9","P","C","10"
"","","approach-retreat","159","1141958","0.0-159.0","","","2-3","5133","38","0","Testing","Stims/Figures/111-C-30-3.bmp","na:mala","Up","40","1","11","9","S","C","11"
"","","approach-retreat","160","1147932","0.0-160.0","","","2-3","4461","37","0","Testing","Stims/Figures/44-C-30-3.bmp","na:la:la","Left","39","1","12","9","S","C","12"
"","","approach-retreat","161","1153648","0.0-161.0","","","2-3","4203","37","0","Testing","Stims/Figures/27-C-30-1.bmp","mala:la","Left","39","1","13","9","S","C","13"
"","","approach-retreat","162","1160059","0.0-162.0","","","2-3","4898","38","0","Testing","Stims/Figures/118-C-20-2.bmp","sa:haza","Up","40","1","14","9","C2","C","14"
"","","approach-retreat","163","1165888","0.0-163.0","","","2-3","4315","39","1","Testing","Stims/Figures/7-J-10-4.bmp","va:fa:va","Right","39","1","15","9","C1","C","15"
"","","approach-retreat","164","1171557","0.0-164.0","","","2-3","4156","38","1","Testing","Stims/Figures/93-J-0-1.bmp","fa:fa:va","Up","38","1","16","9","C1","C","16"
"","","approach-retreat","165","1177448","0.0-165.0","","","2-3","4372","40","0","Testing","Stims/Figures/85-C-20-2.bmp","va:shava","Down","38","1","17","9","C1","C","17"
"","","approach-retreat","166","1183137","0.0-166.0","","","2-3","4176","37","1","Testing","Stims/Figures/84-C-20-2.bmp","pa:pa:ka","Right","37","1","18","9","P","C","18"
"","","approach-retreat","167","1188941","0.0-167.0","","","2-3","4281","37","1","Testing","Stims/Figures/118-J-0-2.bmp","zasaha","Left","37","1","19","9","C2","C","19"
"","","approach-retreat","168","1194602","0.0-168.0","","","2-3","4146","39","0","Testing","Stims/Figures/144-J-10-3.bmp","mamana","Left","37","1","20","9","S","C","20"
"","","approach-retreat","169","1200864","0.0-169.0","","","2-3","4749","37","0","Testing","Stims/Figures/19-J-10-4.bmp","takaka","Right","39","1","21","9","P","C","21"
"","","approach-retreat","170","1206635","0.0-170.0","","","2-3","4258","40","1","Testing","Stims/Figures/86-J-0-1.bmp","sasaza","Down","40","1","22","9","C2","C","22"
"","","approach-retreat","171","1212470","0.0-171.0","","","2-3","4321","38","1","Testing","Stims/Figures/85-J-0-2.bmp","ma:ma:na","Up","38","1","23","9","S","C","23"
"","","approach-retreat","172","1218123","0.0-172.0","","","2-3","4142","39","0","Testing","Stims/Figures/84-J-0-2.bmp","paka:ka","Left","37","1","24","9","P","C","24"
"","","approach-retreat","173","1223332","0.0-173.0","","","2-3","3699","39","1","Testing","Stims/Figures/144-J-10-3.bmp","mamana","Right","39","2","1","9","S","C","25"
"","","approach-retreat","174","1228584","0.0-174.0","","","2-3","3739","38","1","Testing","Stims/Figures/74-J-10-4.bmp","mama:na","Up","38","2","2","9","S","C","26"
"","","approach-retreat","175","1234036","0.0-175.0","","","2-3","3935","39","0","Testing","Stims/Figures/118-C-20-2.bmp","sa:haza","Right","37","2","3","9","C2","C","27"
"","","approach-retreat","176","1240454","0.0-176.0","","","2-3","4904","37","1","Testing","Stims/Figures/111-J-10-3.bmp","za:saha","Left","37","2","4","9","C2","C","28"
"","","approach-retreat","177","1246196","0.0-177.0","","","2-3","4228","37","1","Testing","Stims/Figures/19-J-10-4.bmp","takaka","Left","37","2","5","9","P","C","29"
"","","approach-retreat","178","1251635","0.0-178.0","","","2-3","3930","40","1","Testing","Stims/Figures/74-C-20-4.bmp","papa:ka","Up","40","2","6","9","P","C","30"
"","","approach-retreat","179","1256657","0.0-179.0","","","2-3","3506","38","1","Testing","Stims/Figures/85-C-20-2.bmp","va:shava","Down","38","2","7","9","C1","C","31"
"","","approach-retreat","180","1262163","0.0-180.0","","","2-3","3988","37","1","Testing","Stims/Figures/93-J-0-1.bmp","fa:fa:va","Left","37","2","8","9","C1","C","32"
"","","approach-retreat","181","1267625","0.0-181.0","","","2-3","3947","40","0","Testing","Stims/Figures/118-J-0-2.bmp","zasaha","Up","38","2","9","9","C2","C","33"
"","","approach-retreat","182","1274087","0.0-182.0","","","2-3","4946","38","0","Testing","Stims/Figures/44-J-10-3.bmp","na:la:na","Down","40","2","10","9","S","C","34"
"","","approach-retreat","183","1284222","0.0-183.0","","","2-3","8621","37","1","Testing","Stims/Figures/85-J-0-2.bmp","ma:ma:na","Left","37","2","11","9","S","C","35"
"","","approach-retreat","184","1291634","0.0-184.0","","","2-3","5897","40","0","Testing","Stims/Figures/86-J-0-1.bmp","sasaza","Up","38","2","12","9","C2","C","36"
"","","approach-retreat","185","1297343","0.0-185.0","","","2-3","4195","39","1","Testing","Stims/Figures/27-C-30-1.bmp","mala:la","Left","39","2","13","9","S","C","37"
"","","approach-retreat","186","1303510","0.0-186.0","","","2-3","4652","37","1","Testing","Stims/Figures/19-C-20-4.bmp","va:fa:sha","Right","37","2","14","9","C1","C","38"
"","","approach-retreat","187","1309288","0.0-187.0","","","2-3","4264","40","0","Testing","Stims/Figures/84-J-0-2.bmp","paka:ka","Up","38","2","15","9","P","C","39"
"","","approach-retreat","188","1318948","0.0-188.0","","","2-3","8145","40","1","Testing","Stims/Figures/7-C-20-4.bmp","zahaha","Up","40","2","16","9","C2","C","40"
"","","approach-retreat","189","1326079","0.0-189.0","","","2-3","5615","38","1","Testing","Stims/Figures/86-C-30-1.bmp","ta:kaka","Down","38","2","17","9","P","C","41"
"","","approach-retreat","190","1333436","0.0-190.0","","","2-3","5845","39","0","Testing","Stims/Figures/7-J-10-4.bmp","va:fa:va","Left","37","2","18","9","C1","C","42"
"","","approach-retreat","191","1338894","0.0-191.0","","","2-3","3943","39","0","Testing","Stims/Figures/144-C-30-3.bmp","pakaka","Right","37","2","19","9","P","C","43"
"","","approach-retreat","192","1346798","0.0-192.0","","","2-3","6391","39","0","Testing","Stims/Figures/44-C-30-3.bmp","na:la:la","Right","37","2","20","9","S","C","44"
"","","approach-retreat","193","1379278","0.0-193.0","","","2-3","30966","40","0","Testing","Stims/Figures/93-C-30-1.bmp","sa:saza","Down","38","2","21","9","C2","C","45"
"","","approach-retreat","194","1391066","0.0-194.0","","","2-3","10273","37","0","Testing","Stims/Figures/27-J-0-1.bmp","fa:sha:sha","Right","39","2","22","9","C1","C","46"
"","","approach-retreat","195","1396849","0.0-195.0","","","2-3","4268","40","0","Testing","Stims/Figures/111-C-30-3.bmp","na:mala","Down","38","2","23","9","S","C","47"
"","","approach-retreat","196","1405116","0.0-196.0","","","2-3","6755","40","0","Testing","Stims/Figures/84-C-20-2.bmp","pa:pa:ka","Down","38","2","24","9","P","C","48"
"","","approach-retreat","197","1411088","0.0-197.0","","","2-3","4463","40","0","Testing","Stims/Figures/74-J-10-4.bmp","mama:na","Up","38","3","1","9","S","C","49"
"","","approach-retreat","198","1416870","0.0-198.0","","","2-3","4264","40","0","Testing","Stims/Figures/85-C-20-2.bmp","va:shava","Down","38","3","2","9","C1","C","50"
"","","approach-retreat","199","1425325","0.0-199.0","","","2-3","6943","38","1","Testing","Stims/Figures/19-C-20-4.bmp","va:fa:sha","Down","38","3","3","9","C1","C","51"
"","","approach-retreat","200","1432960","0.0-200.0","","","2-3","6119","37","0","Testing","Stims/Figures/118-C-20-2.bmp","sa:haza","Left","39","3","4","9","C2","C","52"
"","","approach-retreat","201","1444730","0.0-201.0","","","2-3","10261","39","0","Testing","Stims/Figures/27-C-30-1.bmp","mala:la","Right","37","3","5","9","S","C","53"
"","","approach-retreat","202","1450190","0.0-202.0","","","2-3","3946","40","0","Testing","Stims/Figures/44-C-30-3.bmp","na:la:la","Down","38","3","6","9","S","C","54"
"","","approach-retreat","203","1457751","0.0-203.0","","","2-3","6045","38","1","Testing","Stims/Figures/7-J-10-4.bmp","va:fa:va","Up","38","3","7","9","C1","C","55"
"","","approach-retreat","204","1463370","0.0-204.0","","","2-3","4105","40","1","Testing","Stims/Figures/93-C-30-1.bmp","sa:saza","Up","40","3","8","9","C2","C","56"
"","","approach-retreat","205","1468589","0.0-205.0","","","2-3","3708","37","0","Testing","Stims/Figures/7-C-20-4.bmp","zahaha","Left","39","3","9","9","C2","C","57"
"","","approach-retreat","206","1474957","0.0-206.0","","","2-3","4855","39","0","Testing","Stims/Figures/84-C-20-2.bmp","pa:pa:ka","Right","37","3","10","9","P","C","58"
"","","approach-retreat","207","1480443","0.0-207.0","","","2-3","3972","38","1","Testing","Stims/Figures/27-J-0-1.bmp","fa:sha:sha","Up","38","3","11","9","C1","C","59"
"","","approach-retreat","208","1485981","0.0-208.0","","","2-3","4025","37","1","Testing","Stims/Figures/144-J-10-3.bmp","mamana","Left","37","3","12","9","S","C","60"
"","","approach-retreat","209","1492881","0.0-209.0","","","2-3","5386","39","1","Testing","Stims/Figures/93-J-0-1.bmp","fa:fa:va","Right","39","3","13","9","C1","C","61"
"","","approach-retreat","210","1498354","0.0-210.0","","","2-3","3950","37","0","Testing","Stims/Figures/86-C-30-1.bmp","ta:kaka","Left","39","3","14","9","P","C","62"
"","","approach-retreat","211","1504193","0.0-211.0","","","2-3","4325","38","1","Testing","Stims/Figures/84-J-0-2.bmp","paka:ka","Up","38","3","15","9","P","C","63"
"","","approach-retreat","212","1510331","0.0-212.0","","","2-3","4626","37","0","Testing","Stims/Figures/85-J-0-2.bmp","ma:ma:na","Right","39","3","16","9","S","C","64"
"","","approach-retreat","213","1518226","0.0-213.0","","","2-3","6385","38","0","Testing","Stims/Figures/86-J-0-1.bmp","sasaza","Down","40","3","17","9","C2","C","65"
"","","approach-retreat","214","1524801","0.0-214.0","","","2-3","5060","38","0","Testing","Stims/Figures/44-J-10-3.bmp","na:la:na","Down","40","3","18","9","S","C","66"
"","","approach-retreat","215","1530509","0.0-215.0","","","2-3","4196","37","0","Testing","Stims/Figures/111-J-10-3.bmp","za:saha","Right","39","3","19","9","C2","C","67"
"","","approach-retreat","216","1539153","0.0-216.0","","","2-3","7130","40","0","Testing","Stims/Figures/111-C-30-3.bmp","na:mala","Down","38","3","20","9","S","C","68"
"","","approach-retreat","217","1545795","0.0-217.0","","","2-3","5124","37","0","Testing","Stims/Figures/19-J-10-4.bmp","takaka","Right","39","3","21","9","P","C","69"
"","","approach-retreat","218","1571426","0.0-218.0","","","2-3","24117","40","0","Testing","Stims/Figures/118-J-0-2.bmp","zasaha","Up","38","3","22","9","C2","C","70"
"","","approach-retreat","219","1608769","0.0-219.0","","","2-3","35829","37","0","Testing","Stims/Figures/144-C-30-3.bmp","pakaka","Left","39","3","23","9","P","C","71"
"","","approach-retreat","220","1619843","0.0-220.0","","","2-3","9558","37","0","Testing","Stims/Figures/74-C-20-4.bmp","papa:ka","Left","39","3","24","9","P","C","72"
"","","approach-retreat","221","1626330","0.0-221.0","","","2-3","4973","37","0","Testing","Stims/Figures/27-C-30-1.bmp","mala:la","Left","39","4","1","9","S","C","73"
"","","approach-retreat","222","1642698","0.0-222.0","","","2-3","14856","37","1","Testing","Stims/Figures/74-J-10-4.bmp","mama:na","Left","37","4","2","9","S","C","74"
"","","approach-retreat","223","1651791","0.0-223.0","","","2-3","7581","37","0","Testing","Stims/Figures/85-J-0-2.bmp","ma:ma:na","Right","39","4","3","9","S","C","75"
"","","approach-retreat","224","1732213","0.0-224.0","","","2-3","78909","37","1","Testing","Stims/Figures/118-J-0-2.bmp","zasaha","Left","37","4","4","9","C2","C","76"
"","","approach-retreat","225","1737793","0.0-225.0","","","2-3","4066","40","0","Testing","Stims/Figures/74-C-20-4.bmp","papa:ka","Down","38","4","5","9","P","C","77"
"","","approach-retreat","226","1768636","0.0-226.0","","","2-3","29334","40","0","Testing","Stims/Figures/86-J-0-1.bmp","sasaza","Up","38","4","6","9","C2","C","78"
"","","approach-retreat","227","1780030","0.0-227.0","","","2-3","9880","39","0","Testing","Stims/Figures/85-C-20-2.bmp","va:shava","Right","37","4","7","9","C1","C","79"
"","","approach-retreat","228","1787916","0.0-228.0","","","2-3","6374","40","1","Testing","Stims/Figures/44-C-30-3.bmp","na:la:la","Up","40","4","8","9","S","C","80"
"","","approach-retreat","229","1795227","0.0-229.0","","","2-3","5797","37","0","Testing","Stims/Figures/93-J-0-1.bmp","fa:fa:va","Right","39","4","9","9","C1","C","81"
"","","approach-retreat","230","1801552","0.0-230.0","","","2-3","4810","37","1","Testing","Stims/Figures/111-C-30-3.bmp","na:mala","Right","37","4","10","9","S","C","82"
"","","approach-retreat","231","1811809","0.0-231.0","","","2-3","8744","39","0","Testing","Stims/Figures/93-C-30-1.bmp","sa:saza","Right","37","4","11","9","C2","C","83"
"","","approach-retreat","232","1822354","0.0-232.0","","","2-3","9029","37","0","Testing","Stims/Figures/19-J-10-4.bmp","takaka","Right","39","4","12","9","P","C","84"
"","","approach-retreat","233","1838513","0.0-233.0","","","2-3","14646","40","0","Testing","Stims/Figures/27-J-0-1.bmp","fa:sha:sha","Up","38","4","13","9","C1","C","85"
"","","approach-retreat","234","1851767","0.0-234.0","","","2-3","11744","37","1","Testing","Stims/Figures/44-J-10-3.bmp","na:la:na","Left","37","4","14","9","S","C","86"
"","","approach-retreat","235","1875206","0.0-235.0","","","2-3","21927","37","0","Testing","Stims/Figures/144-C-30-3.bmp","pakaka","Left","39","4","15","9","P","C","87"
"","","approach-retreat","236","1889515","0.0-236.0","","","2-3","12796","38","0","Testing","Stims/Figures/84-J-0-2.bmp","paka:ka","Down","40","4","16","9","P","C","88"
"","","approach-retreat","237","1895090","0.0-237.0","","","2-3","4060","40","0","Testing","Stims/Figures/7-J-10-4.bmp","va:fa:va","Up","38","4","17","9","C1","C","89"
"","","approach-retreat","238","1907400","0.0-238.0","","","2-3","10797","40","1","Testing","Stims/Figures/19-C-20-4.bmp","va:fa:sha","Up","40","4","18","9","C1","C","90"
"","","approach-retreat","239","1933991","0.0-239.0","","","2-3","25077","40","0","Testing","Stims/Figures/118-C-20-2.bmp","sa:haza","Down","38","4","19","9","C2","C","91"
"","","approach-retreat","240","1940771","0.0-240.0","","","2-3","5267","39","1","Testing","Stims/Figures/86-C-30-1.bmp","ta:kaka","Left","39","4","20","9","P","C","92"
"","","approach-retreat","241","1947628","0.0-241.0","","","2-3","5342","40","1","Testing","Stims/Figures/111-J-10-3.bmp","za:saha","Down","40","4","21","9","C2","C","93"
"","","approach-retreat","242","1956772","0.0-242.0","","","2-3","7630","40","1","Testing","Stims/Figures/84-C-20-2.bmp","pa:pa:ka","Up","40","4","22","9","P","C","94"
"","","approach-retreat","243","1980940","0.0-243.0","","","2-3","22655","40","0","Testing","Stims/Figures/7-C-20-4.bmp","zahaha","Down","38","4","23","9","C2","C","95"
"","","approach-retreat","244","1999202","0.0-244.0","","","2-3","16748","40","1","Testing","Stims/Figures/144-J-10-3.bmp","mamana","Down","40","4","24","9","S","C","96"
"35734","","survey-text","245","2034946","0.0-245.0","","{""Q0"":""""}","","","","","","","","","","","","","","",""
