\"rt\",\"key_press\",\"trial_type\",\"trial_index\",\"time_elapsed\",\"internal_node_id\",\"view_history\",\"responses\",\"Id\",\"Rt\",\"ResKeyCode\",\"ResCorr\",\"TrialType2\",\"Image\",\"Label\",\"Location\",\"CorrectResponse\",\"Block\",\"BlockTrial\",\"Condition\",\"LabelType\",\"Subcondition\",\"trialNum\"
\"55063\",\"32\",\"text\",\"0\",\"55066\",\"0.0-0.0-0.0\",\"\",\"\",\"\",\"\",\"\",\"\",\"\",\"\",\"\",\"\",\"\",\"\",\"\",\"\",\"\",\"\",\"\"
\"230827\",\"\",\"instructions\",\"1\",\"285894\",\"0.0-1.0\",\"[{\"\"page_index\"\":0,\"\"viewing_time\"\":230827}]\",\"\",\"\",\"\",\"\",\"\",\"\",\"\",\"\",\"\",\"\",\"\",\"\",\"\",\"\",\"\",\"\"
\"43978\",\"\",\"survey-multi-choice\",\"2\",\"329895\",\"0.0-2.0\",\"\",\"{\"\"Q0\"\":\"\"Da\"\",\"\"Q1\"\":\"\"Da\"\",\"\"Q2\"\":\"\"Da\"\",\"\"Q3\"\":\"\"Da\"\",\"\"Q4\"\":\"\"Da\"\",\"\"Q5\"\":\"\"Da\"\"}\",\"\",\"\",\"\",\"\",\"\",\"\",\"\",\"\",\"\",\"\",\"\",\"\",\"\",\"\",\"\"
\"\",\"\",\"bio\",\"3\",\"343220\",\"0.0-3.0\",\"\",\"{\"\"age\"\":\"\"20\"\",\"\"gender\"\":\"\"f\"\",\"\"specify\"\":\"\"\"\"}\",\"\",\"\",\"\",\"\",\"\",\"\",\"\",\"\",\"\",\"\",\"\",\"\",\"\",\"\",\"\"
\"\",\"\",\"approach-retreat\",\"4\",\"352937\",\"0.0-4.0\",\"\",\"\",\"3-3\",\"8174\",\"37\",\"0\",\"Training\",\"Stims/Figures/118-J-0-2.bmp\",\"fashava\",\"Right\",\"39\",\"1\",\"1\",\"3A\",\"C1\",\"C\",\"1\"
\"\",\"\",\"approach-retreat\",\"5\",\"364006\",\"0.0-5.0\",\"\",\"\",\"3-3\",\"9562\",\"40\",\"1\",\"Training\",\"Stims/Figures/128-C-30-3.bmp\",\"zasa:ha\",\"Up\",\"40\",\"1\",\"2\",\"3A\",\"C2\",\"C\",\"2\"
\"\",\"\",\"approach-retreat\",\"6\",\"373723\",\"0.0-6.0\",\"\",\"\",\"3-3\",\"8210\",\"40\",\"1\",\"Training\",\"Stims/Figures/139-J-0-2.bmp\",\"fashava\",\"Down\",\"40\",\"1\",\"3\",\"3A\",\"C1\",\"C\",\"3\"
\"\",\"\",\"approach-retreat\",\"7\",\"382567\",\"0.0-7.0\",\"\",\"\",\"3-3\",\"7335\",\"37\",\"0\",\"Training\",\"Stims/Figures/139-C-20-2.bmp\",\"zasa:ha\",\"Left\",\"39\",\"1\",\"4\",\"3A\",\"C2\",\"C\",\"4\"
\"\",\"\",\"approach-retreat\",\"8\",\"389093\",\"0.0-8.0\",\"\",\"\",\"3-3\",\"5022\",\"39\",\"0\",\"Training\",\"Stims/Figures/93-C-30-1.bmp\",\"zasa:ha\",\"Right\",\"37\",\"1\",\"5\",\"3A\",\"C2\",\"C\",\"5\"
\"\",\"\",\"approach-retreat\",\"9\",\"396582\",\"0.0-9.0\",\"\",\"\",\"3-3\",\"5975\",\"40\",\"0\",\"Training\",\"Stims/Figures/128-J-10-3.bmp\",\"fashava\",\"Up\",\"38\",\"1\",\"6\",\"3A\",\"C1\",\"C\",\"6\"
\"\",\"\",\"approach-retreat\",\"10\",\"403566\",\"0.0-10.0\",\"\",\"\",\"3-3\",\"5480\",\"37\",\"0\",\"Training\",\"Stims/Figures/57-J-0-1.bmp\",\"fashava\",\"Right\",\"39\",\"1\",\"7\",\"3A\",\"C1\",\"C\",\"7\"
\"\",\"\",\"approach-retreat\",\"11\",\"409890\",\"0.0-11.0\",\"\",\"\",\"3-3\",\"4819\",\"40\",\"1\",\"Training\",\"Stims/Figures/111-C-30-3.bmp\",\"zasa:ha\",\"Up\",\"40\",\"1\",\"8\",\"3A\",\"C2\",\"C\",\"8\"
\"\",\"\",\"approach-retreat\",\"12\",\"417803\",\"0.0-12.0\",\"\",\"\",\"3-3\",\"6407\",\"40\",\"1\",\"Training\",\"Stims/Figures/87-J-10-4.bmp\",\"fashava\",\"Down\",\"40\",\"1\",\"9\",\"3A\",\"C1\",\"C\",\"9\"
\"\",\"\",\"approach-retreat\",\"13\",\"425149\",\"0.0-13.0\",\"\",\"\",\"3-3\",\"5841\",\"37\",\"1\",\"Training\",\"Stims/Figures/93-J-0-1.bmp\",\"fashava\",\"Left\",\"37\",\"1\",\"10\",\"3A\",\"C1\",\"C\",\"10\"
\"\",\"\",\"approach-retreat\",\"14\",\"430981\",\"0.0-14.0\",\"\",\"\",\"3-3\",\"4326\",\"40\",\"1\",\"Training\",\"Stims/Figures/57-C-30-1.bmp\",\"zasa:ha\",\"Up\",\"40\",\"1\",\"11\",\"3A\",\"C2\",\"C\",\"11\"
\"\",\"\",\"approach-retreat\",\"15\",\"436789\",\"0.0-15.0\",\"\",\"\",\"3-3\",\"4302\",\"37\",\"1\",\"Training\",\"Stims/Figures/74-C-20-4.bmp\",\"zasa:ha\",\"Right\",\"37\",\"1\",\"12\",\"3A\",\"C2\",\"C\",\"12\"
\"\",\"\",\"approach-retreat\",\"16\",\"443568\",\"0.0-16.0\",\"\",\"\",\"3-3\",\"5274\",\"40\",\"1\",\"Training\",\"Stims/Figures/111-J-10-3.bmp\",\"fashava\",\"Down\",\"40\",\"1\",\"13\",\"3A\",\"C1\",\"C\",\"13\"
\"\",\"\",\"approach-retreat\",\"17\",\"450271\",\"0.0-17.0\",\"\",\"\",\"3-3\",\"5198\",\"37\",\"1\",\"Training\",\"Stims/Figures/74-J-10-4.bmp\",\"fashava\",\"Left\",\"37\",\"1\",\"14\",\"3A\",\"C1\",\"C\",\"14\"
\"\",\"\",\"approach-retreat\",\"18\",\"456950\",\"0.0-18.0\",\"\",\"\",\"3-3\",\"5175\",\"39\",\"1\",\"Training\",\"Stims/Figures/118-C-20-2.bmp\",\"zasa:ha\",\"Left\",\"39\",\"1\",\"15\",\"3A\",\"C2\",\"C\",\"15\"
\"\",\"\",\"approach-retreat\",\"19\",\"462803\",\"0.0-19.0\",\"\",\"\",\"3-3\",\"4347\",\"40\",\"0\",\"Training\",\"Stims/Figures/87-C-20-4.bmp\",\"zasa:ha\",\"Down\",\"38\",\"1\",\"16\",\"3A\",\"C2\",\"C\",\"16\"
\"\",\"\",\"approach-retreat\",\"20\",\"469236\",\"0.0-20.0\",\"\",\"\",\"3-3\",\"4928\",\"38\",\"0\",\"Training\",\"Stims/Figures/87-C-20-4.bmp\",\"zasa:ha\",\"Up\",\"40\",\"2\",\"1\",\"3A\",\"C2\",\"C\",\"17\"
\"\",\"\",\"approach-retreat\",\"21\",\"476820\",\"0.0-21.0\",\"\",\"\",\"3-3\",\"6079\",\"39\",\"1\",\"Training\",\"Stims/Figures/139-C-20-2.bmp\",\"zasa:ha\",\"Left\",\"39\",\"2\",\"2\",\"3A\",\"C2\",\"C\",\"18\"
\"\",\"\",\"approach-retreat\",\"22\",\"484992\",\"0.0-22.0\",\"\",\"\",\"3-3\",\"6666\",\"37\",\"1\",\"Training\",\"Stims/Figures/111-C-30-3.bmp\",\"zasa:ha\",\"Right\",\"37\",\"2\",\"3\",\"3A\",\"C2\",\"C\",\"19\"
\"\",\"\",\"approach-retreat\",\"23\",\"492067\",\"0.0-23.0\",\"\",\"\",\"3-3\",\"5570\",\"39\",\"1\",\"Training\",\"Stims/Figures/57-C-30-1.bmp\",\"zasa:ha\",\"Left\",\"39\",\"2\",\"4\",\"3A\",\"C2\",\"C\",\"20\"
\"\",\"\",\"approach-retreat\",\"24\",\"499191\",\"0.0-24.0\",\"\",\"\",\"3-3\",\"5616\",\"40\",\"1\",\"Training\",\"Stims/Figures/128-C-30-3.bmp\",\"zasa:ha\",\"Up\",\"40\",\"2\",\"5\",\"3A\",\"C2\",\"C\",\"21\"
\"\",\"\",\"approach-retreat\",\"25\",\"505942\",\"0.0-25.0\",\"\",\"\",\"3-3\",\"5245\",\"39\",\"1\",\"Training\",\"Stims/Figures/111-J-10-3.bmp\",\"fashava\",\"Right\",\"39\",\"2\",\"6\",\"3A\",\"C1\",\"C\",\"22\"
\"\",\"\",\"approach-retreat\",\"26\",\"514001\",\"0.0-26.0\",\"\",\"\",\"3-3\",\"6554\",\"39\",\"0\",\"Training\",\"Stims/Figures/118-J-0-2.bmp\",\"fashava\",\"Left\",\"37\",\"2\",\"7\",\"3A\",\"C1\",\"C\",\"23\"
\"\",\"\",\"approach-retreat\",\"27\",\"522636\",\"0.0-27.0\",\"\",\"\",\"3-3\",\"7130\",\"40\",\"1\",\"Training\",\"Stims/Figures/139-J-0-2.bmp\",\"fashava\",\"Down\",\"40\",\"2\",\"8\",\"3A\",\"C1\",\"C\",\"24\"
\"\",\"\",\"approach-retreat\",\"28\",\"530532\",\"0.0-28.0\",\"\",\"\",\"3-3\",\"6391\",\"38\",\"1\",\"Training\",\"Stims/Figures/93-C-30-1.bmp\",\"zasa:ha\",\"Down\",\"38\",\"2\",\"9\",\"3A\",\"C2\",\"C\",\"25\"
\"\",\"\",\"approach-retreat\",\"29\",\"536890\",\"0.0-29.0\",\"\",\"\",\"3-3\",\"4853\",\"37\",\"1\",\"Training\",\"Stims/Figures/74-C-20-4.bmp\",\"zasa:ha\",\"Right\",\"37\",\"2\",\"10\",\"3A\",\"C2\",\"C\",\"26\"
\"\",\"\",\"approach-retreat\",\"30\",\"542656\",\"0.0-30.0\",\"\",\"\",\"3-3\",\"4262\",\"39\",\"1\",\"Training\",\"Stims/Figures/128-J-10-3.bmp\",\"fashava\",\"Right\",\"39\",\"2\",\"11\",\"3A\",\"C1\",\"C\",\"27\"
\"\",\"\",\"approach-retreat\",\"31\",\"548453\",\"0.0-31.0\",\"\",\"\",\"3-3\",\"4291\",\"38\",\"1\",\"Training\",\"Stims/Figures/118-C-20-2.bmp\",\"zasa:ha\",\"Down\",\"38\",\"2\",\"12\",\"3A\",\"C2\",\"C\",\"28\"
\"\",\"\",\"approach-retreat\",\"32\",\"554187\",\"0.0-32.0\",\"\",\"\",\"3-3\",\"4229\",\"40\",\"0\",\"Training\",\"Stims/Figures/93-J-0-1.bmp\",\"fashava\",\"Up\",\"38\",\"2\",\"13\",\"3A\",\"C1\",\"C\",\"29\"
\"\",\"\",\"approach-retreat\",\"33\",\"560917\",\"0.0-33.0\",\"\",\"\",\"3-3\",\"5223\",\"37\",\"1\",\"Training\",\"Stims/Figures/74-J-10-4.bmp\",\"fashava\",\"Left\",\"37\",\"2\",\"14\",\"3A\",\"C1\",\"C\",\"30\"
\"\",\"\",\"approach-retreat\",\"34\",\"566994\",\"0.0-34.0\",\"\",\"\",\"3-3\",\"4564\",\"38\",\"1\",\"Training\",\"Stims/Figures/87-J-10-4.bmp\",\"fashava\",\"Up\",\"38\",\"2\",\"15\",\"3A\",\"C1\",\"C\",\"31\"
\"\",\"\",\"approach-retreat\",\"35\",\"573620\",\"0.0-35.0\",\"\",\"\",\"3-3\",\"5115\",\"40\",\"1\",\"Training\",\"Stims/Figures/57-J-0-1.bmp\",\"fashava\",\"Down\",\"40\",\"2\",\"16\",\"3A\",\"C1\",\"C\",\"32\"
\"\",\"\",\"approach-retreat\",\"36\",\"579433\",\"0.0-36.0\",\"\",\"\",\"3-3\",\"4307\",\"38\",\"1\",\"Training\",\"Stims/Figures/57-C-30-1.bmp\",\"zasa:ha\",\"Down\",\"38\",\"3\",\"1\",\"3A\",\"C2\",\"C\",\"33\"
\"\",\"\",\"approach-retreat\",\"37\",\"585211\",\"0.0-37.0\",\"\",\"\",\"3-3\",\"4273\",\"40\",\"1\",\"Training\",\"Stims/Figures/118-J-0-2.bmp\",\"fashava\",\"Down\",\"40\",\"3\",\"2\",\"3A\",\"C1\",\"C\",\"34\"
\"\",\"\",\"approach-retreat\",\"38\",\"590845\",\"0.0-38.0\",\"\",\"\",\"3-3\",\"4129\",\"40\",\"1\",\"Training\",\"Stims/Figures/111-J-10-3.bmp\",\"fashava\",\"Down\",\"40\",\"3\",\"3\",\"3A\",\"C1\",\"C\",\"35\"
\"\",\"\",\"approach-retreat\",\"39\",\"597240\",\"0.0-39.0\",\"\",\"\",\"3-3\",\"4888\",\"40\",\"1\",\"Training\",\"Stims/Figures/87-C-20-4.bmp\",\"zasa:ha\",\"Up\",\"40\",\"3\",\"4\",\"3A\",\"C2\",\"C\",\"36\"
\"\",\"\",\"approach-retreat\",\"40\",\"603419\",\"0.0-40.0\",\"\",\"\",\"3-3\",\"4675\",\"39\",\"1\",\"Training\",\"Stims/Figures/128-J-10-3.bmp\",\"fashava\",\"Right\",\"39\",\"3\",\"5\",\"3A\",\"C1\",\"C\",\"37\"
\"\",\"\",\"approach-retreat\",\"41\",\"609044\",\"0.0-41.0\",\"\",\"\",\"3-3\",\"4121\",\"37\",\"1\",\"Training\",\"Stims/Figures/128-C-30-3.bmp\",\"zasa:ha\",\"Right\",\"37\",\"3\",\"6\",\"3A\",\"C2\",\"C\",\"38\"
\"\",\"\",\"approach-retreat\",\"42\",\"614882\",\"0.0-42.0\",\"\",\"\",\"3-3\",\"4332\",\"39\",\"1\",\"Training\",\"Stims/Figures/57-J-0-1.bmp\",\"fashava\",\"Right\",\"39\",\"3\",\"7\",\"3A\",\"C1\",\"C\",\"39\"
\"\",\"\",\"approach-retreat\",\"43\",\"621332\",\"0.0-43.0\",\"\",\"\",\"3-3\",\"4941\",\"37\",\"1\",\"Training\",\"Stims/Figures/93-J-0-1.bmp\",\"fashava\",\"Left\",\"37\",\"3\",\"8\",\"3A\",\"C1\",\"C\",\"40\"
\"\",\"\",\"approach-retreat\",\"44\",\"627092\",\"0.0-44.0\",\"\",\"\",\"3-3\",\"4255\",\"40\",\"1\",\"Training\",\"Stims/Figures/139-C-20-2.bmp\",\"zasa:ha\",\"Up\",\"40\",\"3\",\"9\",\"3A\",\"C2\",\"C\",\"41\"
\"\",\"\",\"approach-retreat\",\"45\",\"633153\",\"0.0-45.0\",\"\",\"\",\"3-3\",\"4554\",\"37\",\"1\",\"Training\",\"Stims/Figures/74-J-10-4.bmp\",\"fashava\",\"Left\",\"37\",\"3\",\"10\",\"3A\",\"C1\",\"C\",\"42\"
\"\",\"\",\"approach-retreat\",\"46\",\"638662\",\"0.0-46.0\",\"\",\"\",\"3-3\",\"4005\",\"37\",\"1\",\"Training\",\"Stims/Figures/111-C-30-3.bmp\",\"zasa:ha\",\"Right\",\"37\",\"3\",\"11\",\"3A\",\"C2\",\"C\",\"43\"
\"\",\"\",\"approach-retreat\",\"47\",\"644086\",\"0.0-47.0\",\"\",\"\",\"3-3\",\"3911\",\"39\",\"1\",\"Training\",\"Stims/Figures/93-C-30-1.bmp\",\"zasa:ha\",\"Left\",\"39\",\"3\",\"12\",\"3A\",\"C2\",\"C\",\"44\"
\"\",\"\",\"approach-retreat\",\"48\",\"650060\",\"0.0-48.0\",\"\",\"\",\"3-3\",\"4469\",\"38\",\"1\",\"Training\",\"Stims/Figures/87-J-10-4.bmp\",\"fashava\",\"Up\",\"38\",\"3\",\"13\",\"3A\",\"C1\",\"C\",\"45\"
\"\",\"\",\"approach-retreat\",\"49\",\"655994\",\"0.0-49.0\",\"\",\"\",\"3-3\",\"4428\",\"38\",\"0\",\"Training\",\"Stims/Figures/74-C-20-4.bmp\",\"zasa:ha\",\"Up\",\"40\",\"3\",\"14\",\"3A\",\"C2\",\"C\",\"46\"
\"\",\"\",\"approach-retreat\",\"50\",\"662212\",\"0.0-50.0\",\"\",\"\",\"3-3\",\"4713\",\"40\",\"1\",\"Training\",\"Stims/Figures/139-J-0-2.bmp\",\"fashava\",\"Down\",\"40\",\"3\",\"15\",\"3A\",\"C1\",\"C\",\"47\"
\"\",\"\",\"approach-retreat\",\"51\",\"668214\",\"0.0-51.0\",\"\",\"\",\"3-3\",\"4494\",\"39\",\"1\",\"Training\",\"Stims/Figures/118-C-20-2.bmp\",\"zasa:ha\",\"Left\",\"39\",\"3\",\"16\",\"3A\",\"C2\",\"C\",\"48\"
\"\",\"\",\"approach-retreat\",\"52\",\"674236\",\"0.0-52.0\",\"\",\"\",\"3-3\",\"4517\",\"38\",\"1\",\"Training\",\"Stims/Figures/111-J-10-3.bmp\",\"fashava\",\"Up\",\"38\",\"4\",\"1\",\"3A\",\"C1\",\"C\",\"49\"
\"\",\"\",\"approach-retreat\",\"53\",\"679768\",\"0.0-53.0\",\"\",\"\",\"3-3\",\"4027\",\"40\",\"1\",\"Training\",\"Stims/Figures/118-C-20-2.bmp\",\"zasa:ha\",\"Up\",\"40\",\"4\",\"2\",\"3A\",\"C2\",\"C\",\"50\"
\"\",\"\",\"approach-retreat\",\"54\",\"685433\",\"0.0-54.0\",\"\",\"\",\"3-3\",\"4160\",\"38\",\"1\",\"Training\",\"Stims/Figures/74-J-10-4.bmp\",\"fashava\",\"Up\",\"38\",\"4\",\"3\",\"3A\",\"C1\",\"C\",\"51\"
\"\",\"\",\"approach-retreat\",\"55\",\"690981\",\"0.0-55.0\",\"\",\"\",\"3-3\",\"4039\",\"39\",\"0\",\"Training\",\"Stims/Figures/74-C-20-4.bmp\",\"zasa:ha\",\"Right\",\"37\",\"4\",\"4\",\"3A\",\"C2\",\"C\",\"52\"
\"\",\"\",\"approach-retreat\",\"56\",\"696421\",\"0.0-56.0\",\"\",\"\",\"3-3\",\"3933\",\"39\",\"1\",\"Training\",\"Stims/Figures/87-C-20-4.bmp\",\"zasa:ha\",\"Left\",\"39\",\"4\",\"5\",\"3A\",\"C2\",\"C\",\"53\"
\"\",\"\",\"approach-retreat\",\"57\",\"701945\",\"0.0-57.0\",\"\",\"\",\"3-3\",\"4020\",\"38\",\"1\",\"Training\",\"Stims/Figures/128-C-30-3.bmp\",\"zasa:ha\",\"Down\",\"38\",\"4\",\"6\",\"3A\",\"C2\",\"C\",\"54\"
\"\",\"\",\"approach-retreat\",\"58\",\"707519\",\"0.0-58.0\",\"\",\"\",\"3-3\",\"4068\",\"39\",\"1\",\"Training\",\"Stims/Figures/57-C-30-1.bmp\",\"zasa:ha\",\"Left\",\"39\",\"4\",\"7\",\"3A\",\"C2\",\"C\",\"55\"
\"\",\"\",\"approach-retreat\",\"59\",\"713538\",\"0.0-59.0\",\"\",\"\",\"3-3\",\"4508\",\"37\",\"1\",\"Training\",\"Stims/Figures/128-J-10-3.bmp\",\"fashava\",\"Left\",\"37\",\"4\",\"8\",\"3A\",\"C1\",\"C\",\"56\"
\"\",\"\",\"approach-retreat\",\"60\",\"719208\",\"0.0-60.0\",\"\",\"\",\"3-3\",\"4157\",\"38\",\"1\",\"Training\",\"Stims/Figures/93-C-30-1.bmp\",\"zasa:ha\",\"Down\",\"38\",\"4\",\"9\",\"3A\",\"C2\",\"C\",\"57\"
\"\",\"\",\"approach-retreat\",\"61\",\"724717\",\"0.0-61.0\",\"\",\"\",\"3-3\",\"4005\",\"37\",\"1\",\"Training\",\"Stims/Figures/139-C-20-2.bmp\",\"zasa:ha\",\"Right\",\"37\",\"4\",\"10\",\"3A\",\"C2\",\"C\",\"58\"
\"\",\"\",\"approach-retreat\",\"62\",\"730462\",\"0.0-62.0\",\"\",\"\",\"3-3\",\"4236\",\"40\",\"1\",\"Training\",\"Stims/Figures/87-J-10-4.bmp\",\"fashava\",\"Down\",\"40\",\"4\",\"11\",\"3A\",\"C1\",\"C\",\"59\"
\"\",\"\",\"approach-retreat\",\"63\",\"736006\",\"0.0-63.0\",\"\",\"\",\"3-3\",\"4038\",\"37\",\"0\",\"Training\",\"Stims/Figures/93-J-0-1.bmp\",\"fashava\",\"Right\",\"39\",\"4\",\"12\",\"3A\",\"C1\",\"C\",\"60\"
\"\",\"\",\"approach-retreat\",\"64\",\"741485\",\"0.0-64.0\",\"\",\"\",\"3-3\",\"3975\",\"37\",\"1\",\"Training\",\"Stims/Figures/139-J-0-2.bmp\",\"fashava\",\"Left\",\"37\",\"4\",\"13\",\"3A\",\"C1\",\"C\",\"61\"
\"\",\"\",\"approach-retreat\",\"65\",\"747318\",\"0.0-65.0\",\"\",\"\",\"3-3\",\"4329\",\"40\",\"1\",\"Training\",\"Stims/Figures/118-J-0-2.bmp\",\"fashava\",\"Down\",\"40\",\"4\",\"14\",\"3A\",\"C1\",\"C\",\"62\"
\"\",\"\",\"approach-retreat\",\"66\",\"753167\",\"0.0-66.0\",\"\",\"\",\"3-3\",\"4345\",\"38\",\"1\",\"Training\",\"Stims/Figures/57-J-0-1.bmp\",\"fashava\",\"Up\",\"38\",\"4\",\"15\",\"3A\",\"C1\",\"C\",\"63\"
\"\",\"\",\"approach-retreat\",\"67\",\"758857\",\"0.0-67.0\",\"\",\"\",\"3-3\",\"4184\",\"37\",\"1\",\"Training\",\"Stims/Figures/111-C-30-3.bmp\",\"zasa:ha\",\"Right\",\"37\",\"4\",\"16\",\"3A\",\"C2\",\"C\",\"64\"
\"\",\"\",\"approach-retreat\",\"68\",\"765295\",\"0.0-68.0\",\"\",\"\",\"3-3\",\"4924\",\"38\",\"1\",\"Training\",\"Stims/Figures/93-C-30-1.bmp\",\"zasa:ha\",\"Down\",\"38\",\"5\",\"1\",\"3A\",\"C2\",\"C\",\"65\"
\"\",\"\",\"approach-retreat\",\"69\",\"770950\",\"0.0-69.0\",\"\",\"\",\"3-3\",\"4151\",\"39\",\"1\",\"Training\",\"Stims/Figures/87-J-10-4.bmp\",\"fashava\",\"Right\",\"39\",\"5\",\"2\",\"3A\",\"C1\",\"C\",\"66\"
\"\",\"\",\"approach-retreat\",\"70\",\"777387\",\"0.0-70.0\",\"\",\"\",\"3-3\",\"4927\",\"40\",\"1\",\"Training\",\"Stims/Figures/111-C-30-3.bmp\",\"zasa:ha\",\"Up\",\"40\",\"5\",\"3\",\"3A\",\"C2\",\"C\",\"67\"
\"\",\"\",\"approach-retreat\",\"71\",\"782789\",\"0.0-71.0\",\"\",\"\",\"3-3\",\"3892\",\"40\",\"1\",\"Training\",\"Stims/Figures/128-C-30-3.bmp\",\"zasa:ha\",\"Up\",\"40\",\"5\",\"4\",\"3A\",\"C2\",\"C\",\"68\"
\"\",\"\",\"approach-retreat\",\"72\",\"788489\",\"0.0-72.0\",\"\",\"\",\"3-3\",\"4189\",\"37\",\"0\",\"Training\",\"Stims/Figures/93-J-0-1.bmp\",\"fashava\",\"Right\",\"39\",\"5\",\"5\",\"3A\",\"C1\",\"C\",\"69\"
\"\",\"\",\"approach-retreat\",\"73\",\"794007\",\"0.0-73.0\",\"\",\"\",\"3-3\",\"4005\",\"37\",\"1\",\"Training\",\"Stims/Figures/74-C-20-4.bmp\",\"zasa:ha\",\"Right\",\"37\",\"5\",\"6\",\"3A\",\"C2\",\"C\",\"70\"
\"\",\"\",\"approach-retreat\",\"74\",\"799450\",\"0.0-74.0\",\"\",\"\",\"3-3\",\"3934\",\"39\",\"1\",\"Training\",\"Stims/Figures/87-C-20-4.bmp\",\"zasa:ha\",\"Left\",\"39\",\"5\",\"7\",\"3A\",\"C2\",\"C\",\"71\"
\"\",\"\",\"approach-retreat\",\"75\",\"805066\",\"0.0-75.0\",\"\",\"\",\"3-3\",\"4111\",\"39\",\"0\",\"Training\",\"Stims/Figures/128-J-10-3.bmp\",\"fashava\",\"Left\",\"37\",\"5\",\"8\",\"3A\",\"C1\",\"C\",\"72\"
\"\",\"\",\"approach-retreat\",\"76\",\"811426\",\"0.0-76.0\",\"\",\"\",\"3-3\",\"4849\",\"40\",\"1\",\"Training\",\"Stims/Figures/57-J-0-1.bmp\",\"fashava\",\"Down\",\"40\",\"5\",\"9\",\"3A\",\"C1\",\"C\",\"73\"
\"\",\"\",\"approach-retreat\",\"77\",\"817320\",\"0.0-77.0\",\"\",\"\",\"3-3\",\"4388\",\"37\",\"1\",\"Training\",\"Stims/Figures/111-J-10-3.bmp\",\"fashava\",\"Left\",\"37\",\"5\",\"10\",\"3A\",\"C1\",\"C\",\"74\"
\"\",\"\",\"approach-retreat\",\"78\",\"823478\",\"0.0-78.0\",\"\",\"\",\"3-3\",\"4653\",\"40\",\"0\",\"Training\",\"Stims/Figures/118-C-20-2.bmp\",\"zasa:ha\",\"Down\",\"38\",\"5\",\"11\",\"3A\",\"C2\",\"C\",\"75\"
\"\",\"\",\"approach-retreat\",\"79\",\"830858\",\"0.0-79.0\",\"\",\"\",\"3-3\",\"5872\",\"40\",\"0\",\"Training\",\"Stims/Figures/139-J-0-2.bmp\",\"fashava\",\"Up\",\"38\",\"5\",\"12\",\"3A\",\"C1\",\"C\",\"76\"
\"\",\"\",\"approach-retreat\",\"80\",\"837500\",\"0.0-80.0\",\"\",\"\",\"3-3\",\"5135\",\"37\",\"1\",\"Training\",\"Stims/Figures/57-C-30-1.bmp\",\"zasa:ha\",\"Right\",\"37\",\"5\",\"13\",\"3A\",\"C2\",\"C\",\"77\"
\"\",\"\",\"approach-retreat\",\"81\",\"843128\",\"0.0-81.0\",\"\",\"\",\"3-3\",\"4123\",\"40\",\"1\",\"Training\",\"Stims/Figures/139-C-20-2.bmp\",\"zasa:ha\",\"Up\",\"40\",\"5\",\"14\",\"3A\",\"C2\",\"C\",\"78\"
\"\",\"\",\"approach-retreat\",\"82\",\"849018\",\"0.0-82.0\",\"\",\"\",\"3-3\",\"4380\",\"40\",\"1\",\"Training\",\"Stims/Figures/118-J-0-2.bmp\",\"fashava\",\"Down\",\"40\",\"5\",\"15\",\"3A\",\"C1\",\"C\",\"79\"
\"\",\"\",\"approach-retreat\",\"83\",\"854588\",\"0.0-83.0\",\"\",\"\",\"3-3\",\"4065\",\"37\",\"1\",\"Training\",\"Stims/Figures/74-J-10-4.bmp\",\"fashava\",\"Left\",\"37\",\"5\",\"16\",\"3A\",\"C1\",\"C\",\"80\"
\"\",\"\",\"approach-retreat\",\"84\",\"860069\",\"0.0-84.0\",\"\",\"\",\"3-3\",\"3965\",\"39\",\"1\",\"Training\",\"Stims/Figures/74-C-20-4.bmp\",\"zasa:ha\",\"Left\",\"39\",\"6\",\"1\",\"3A\",\"C2\",\"C\",\"81\"
\"\",\"\",\"approach-retreat\",\"85\",\"865851\",\"0.0-85.0\",\"\",\"\",\"3-3\",\"4273\",\"38\",\"0\",\"Training\",\"Stims/Figures/57-C-30-1.bmp\",\"zasa:ha\",\"Up\",\"40\",\"6\",\"2\",\"3A\",\"C2\",\"C\",\"82\"
\"\",\"\",\"approach-retreat\",\"86\",\"871963\",\"0.0-86.0\",\"\",\"\",\"3-3\",\"4607\",\"38\",\"1\",\"Training\",\"Stims/Figures/74-J-10-4.bmp\",\"fashava\",\"Up\",\"38\",\"6\",\"3\",\"3A\",\"C1\",\"C\",\"83\"
\"\",\"\",\"approach-retreat\",\"87\",\"877641\",\"0.0-87.0\",\"\",\"\",\"3-3\",\"4172\",\"40\",\"1\",\"Training\",\"Stims/Figures/118-J-0-2.bmp\",\"fashava\",\"Down\",\"40\",\"6\",\"4\",\"3A\",\"C1\",\"C\",\"84\"
\"\",\"\",\"approach-retreat\",\"88\",\"883321\",\"0.0-88.0\",\"\",\"\",\"3-3\",\"4177\",\"40\",\"1\",\"Training\",\"Stims/Figures/93-J-0-1.bmp\",\"fashava\",\"Down\",\"40\",\"6\",\"5\",\"3A\",\"C1\",\"C\",\"85\"
\"\",\"\",\"approach-retreat\",\"89\",\"888756\",\"0.0-89.0\",\"\",\"\",\"3-3\",\"3930\",\"37\",\"1\",\"Training\",\"Stims/Figures/87-J-10-4.bmp\",\"fashava\",\"Left\",\"37\",\"6\",\"6\",\"3A\",\"C1\",\"C\",\"86\"
\"\",\"\",\"approach-retreat\",\"90\",\"895065\",\"0.0-90.0\",\"\",\"\",\"3-3\",\"4806\",\"40\",\"1\",\"Training\",\"Stims/Figures/128-C-30-3.bmp\",\"zasa:ha\",\"Up\",\"40\",\"6\",\"7\",\"3A\",\"C2\",\"C\",\"87\"
\"\",\"\",\"approach-retreat\",\"91\",\"900953\",\"0.0-91.0\",\"\",\"\",\"3-3\",\"4382\",\"37\",\"1\",\"Training\",\"Stims/Figures/128-J-10-3.bmp\",\"fashava\",\"Left\",\"37\",\"6\",\"8\",\"3A\",\"C1\",\"C\",\"88\"
\"\",\"\",\"approach-retreat\",\"92\",\"906400\",\"0.0-92.0\",\"\",\"\",\"3-3\",\"3941\",\"39\",\"1\",\"Training\",\"Stims/Figures/111-C-30-3.bmp\",\"zasa:ha\",\"Left\",\"39\",\"6\",\"9\",\"3A\",\"C2\",\"C\",\"89\"
\"\",\"\",\"approach-retreat\",\"93\",\"912077\",\"0.0-93.0\",\"\",\"\",\"3-3\",\"4164\",\"37\",\"1\",\"Training\",\"Stims/Figures/87-C-20-4.bmp\",\"zasa:ha\",\"Right\",\"37\",\"6\",\"10\",\"3A\",\"C2\",\"C\",\"90\"
\"\",\"\",\"approach-retreat\",\"94\",\"917794\",\"0.0-94.0\",\"\",\"\",\"3-3\",\"4210\",\"38\",\"1\",\"Training\",\"Stims/Figures/57-J-0-1.bmp\",\"fashava\",\"Up\",\"38\",\"6\",\"11\",\"3A\",\"C1\",\"C\",\"91\"
\"\",\"\",\"approach-retreat\",\"95\",\"923464\",\"0.0-95.0\",\"\",\"\",\"3-3\",\"4165\",\"38\",\"1\",\"Training\",\"Stims/Figures/118-C-20-2.bmp\",\"zasa:ha\",\"Down\",\"38\",\"6\",\"12\",\"3A\",\"C2\",\"C\",\"92\"
\"\",\"\",\"approach-retreat\",\"96\",\"929457\",\"0.0-96.0\",\"\",\"\",\"3-3\",\"4487\",\"39\",\"1\",\"Training\",\"Stims/Figures/139-J-0-2.bmp\",\"fashava\",\"Right\",\"39\",\"6\",\"13\",\"3A\",\"C1\",\"C\",\"93\"
\"\",\"\",\"approach-retreat\",\"97\",\"935515\",\"0.0-97.0\",\"\",\"\",\"3-3\",\"4552\",\"39\",\"1\",\"Training\",\"Stims/Figures/111-J-10-3.bmp\",\"fashava\",\"Right\",\"39\",\"6\",\"14\",\"3A\",\"C1\",\"C\",\"94\"
\"\",\"\",\"approach-retreat\",\"98\",\"941212\",\"0.0-98.0\",\"\",\"\",\"3-3\",\"4191\",\"37\",\"1\",\"Training\",\"Stims/Figures/139-C-20-2.bmp\",\"zasa:ha\",\"Right\",\"37\",\"6\",\"15\",\"3A\",\"C2\",\"C\",\"95\"
\"\",\"\",\"approach-retreat\",\"99\",\"946830\",\"0.0-99.0\",\"\",\"\",\"3-3\",\"4107\",\"38\",\"1\",\"Training\",\"Stims/Figures/93-C-30-1.bmp\",\"zasa:ha\",\"Down\",\"38\",\"6\",\"16\",\"3A\",\"C2\",\"C\",\"96\"
\"\",\"\",\"approach-retreat\",\"100\",\"952185\",\"0.0-100.0\",\"\",\"\",\"3-3\",\"3845\",\"39\",\"1\",\"Training\",\"Stims/Figures/139-C-20-2.bmp\",\"zasa:ha\",\"Left\",\"39\",\"7\",\"1\",\"3A\",\"C2\",\"C\",\"97\"
\"\",\"\",\"approach-retreat\",\"101\",\"958683\",\"0.0-101.0\",\"\",\"\",\"3-3\",\"4989\",\"40\",\"1\",\"Training\",\"Stims/Figures/139-J-0-2.bmp\",\"fashava\",\"Down\",\"40\",\"7\",\"2\",\"3A\",\"C1\",\"C\",\"98\"
\"\",\"\",\"approach-retreat\",\"102\",\"964367\",\"0.0-102.0\",\"\",\"\",\"3-3\",\"4180\",\"39\",\"1\",\"Training\",\"Stims/Figures/111-J-10-3.bmp\",\"fashava\",\"Right\",\"39\",\"7\",\"3\",\"3A\",\"C1\",\"C\",\"99\"
\"\",\"\",\"approach-retreat\",\"103\",\"970000\",\"0.0-103.0\",\"\",\"\",\"3-3\",\"4130\",\"37\",\"1\",\"Training\",\"Stims/Figures/118-C-20-2.bmp\",\"zasa:ha\",\"Right\",\"37\",\"7\",\"4\",\"3A\",\"C2\",\"C\",\"100\"
\"\",\"\",\"approach-retreat\",\"104\",\"975671\",\"0.0-104.0\",\"\",\"\",\"3-3\",\"4167\",\"40\",\"1\",\"Training\",\"Stims/Figures/93-C-30-1.bmp\",\"zasa:ha\",\"Up\",\"40\",\"7\",\"5\",\"3A\",\"C2\",\"C\",\"101\"
\"\",\"\",\"approach-retreat\",\"105\",\"981181\",\"0.0-105.0\",\"\",\"\",\"3-3\",\"4002\",\"40\",\"1\",\"Training\",\"Stims/Figures/74-C-20-4.bmp\",\"zasa:ha\",\"Up\",\"40\",\"7\",\"6\",\"3A\",\"C2\",\"C\",\"102\"
\"\",\"\",\"approach-retreat\",\"106\",\"986864\",\"0.0-106.0\",\"\",\"\",\"3-3\",\"4180\",\"38\",\"1\",\"Training\",\"Stims/Figures/128-J-10-3.bmp\",\"fashava\",\"Up\",\"38\",\"7\",\"7\",\"3A\",\"C1\",\"C\",\"103\"
\"\",\"\",\"approach-retreat\",\"107\",\"992491\",\"0.0-107.0\",\"\",\"\",\"3-3\",\"4121\",\"37\",\"1\",\"Training\",\"Stims/Figures/128-C-30-3.bmp\",\"zasa:ha\",\"Right\",\"37\",\"7\",\"8\",\"3A\",\"C2\",\"C\",\"104\"
\"\",\"\",\"approach-retreat\",\"108\",\"998128\",\"0.0-108.0\",\"\",\"\",\"3-3\",\"4127\",\"38\",\"1\",\"Training\",\"Stims/Figures/111-C-30-3.bmp\",\"zasa:ha\",\"Down\",\"38\",\"7\",\"9\",\"3A\",\"C2\",\"C\",\"105\"
\"\",\"\",\"approach-retreat\",\"109\",\"1003653\",\"0.0-109.0\",\"\",\"\",\"3-3\",\"4011\",\"37\",\"1\",\"Training\",\"Stims/Figures/93-J-0-1.bmp\",\"fashava\",\"Left\",\"37\",\"7\",\"10\",\"3A\",\"C1\",\"C\",\"106\"
\"\",\"\",\"approach-retreat\",\"110\",\"1009328\",\"0.0-110.0\",\"\",\"\",\"3-3\",\"4170\",\"37\",\"1\",\"Training\",\"Stims/Figures/57-C-30-1.bmp\",\"zasa:ha\",\"Right\",\"37\",\"7\",\"11\",\"3A\",\"C2\",\"C\",\"107\"
\"\",\"\",\"approach-retreat\",\"111\",\"1015045\",\"0.0-111.0\",\"\",\"\",\"3-3\",\"4206\",\"40\",\"1\",\"Training\",\"Stims/Figures/118-J-0-2.bmp\",\"fashava\",\"Down\",\"40\",\"7\",\"12\",\"3A\",\"C1\",\"C\",\"108\"
\"\",\"\",\"approach-retreat\",\"112\",\"1020792\",\"0.0-112.0\",\"\",\"\",\"3-3\",\"4239\",\"38\",\"1\",\"Training\",\"Stims/Figures/74-J-10-4.bmp\",\"fashava\",\"Up\",\"38\",\"7\",\"13\",\"3A\",\"C1\",\"C\",\"109\"
\"\",\"\",\"approach-retreat\",\"113\",\"1026365\",\"0.0-113.0\",\"\",\"\",\"3-3\",\"4069\",\"38\",\"1\",\"Training\",\"Stims/Figures/87-C-20-4.bmp\",\"zasa:ha\",\"Down\",\"38\",\"7\",\"14\",\"3A\",\"C2\",\"C\",\"110\"
\"\",\"\",\"approach-retreat\",\"114\",\"1031902\",\"0.0-114.0\",\"\",\"\",\"3-3\",\"4028\",\"37\",\"1\",\"Training\",\"Stims/Figures/87-J-10-4.bmp\",\"fashava\",\"Left\",\"37\",\"7\",\"15\",\"3A\",\"C1\",\"C\",\"111\"
\"\",\"\",\"approach-retreat\",\"115\",\"1037648\",\"0.0-115.0\",\"\",\"\",\"3-3\",\"4235\",\"37\",\"1\",\"Training\",\"Stims/Figures/57-J-0-1.bmp\",\"fashava\",\"Left\",\"37\",\"7\",\"16\",\"3A\",\"C1\",\"C\",\"112\"
\"\",\"\",\"approach-retreat\",\"116\",\"1043460\",\"0.0-116.0\",\"\",\"\",\"3-3\",\"4308\",\"40\",\"1\",\"Training\",\"Stims/Figures/118-C-20-2.bmp\",\"zasa:ha\",\"Up\",\"40\",\"8\",\"1\",\"3A\",\"C2\",\"C\",\"113\"
\"\",\"\",\"approach-retreat\",\"117\",\"1049628\",\"0.0-117.0\",\"\",\"\",\"3-3\",\"4657\",\"40\",\"1\",\"Training\",\"Stims/Figures/139-C-20-2.bmp\",\"zasa:ha\",\"Up\",\"40\",\"8\",\"2\",\"3A\",\"C2\",\"C\",\"114\"
\"\",\"\",\"approach-retreat\",\"118\",\"1055312\",\"0.0-118.0\",\"\",\"\",\"3-3\",\"4174\",\"39\",\"1\",\"Training\",\"Stims/Figures/93-C-30-1.bmp\",\"zasa:ha\",\"Left\",\"39\",\"8\",\"3\",\"3A\",\"C2\",\"C\",\"115\"
\"\",\"\",\"approach-retreat\",\"119\",\"1061146\",\"0.0-119.0\",\"\",\"\",\"3-3\",\"4329\",\"40\",\"1\",\"Training\",\"Stims/Figures/139-J-0-2.bmp\",\"fashava\",\"Down\",\"40\",\"8\",\"4\",\"3A\",\"C1\",\"C\",\"116\"
\"\",\"\",\"approach-retreat\",\"120\",\"1067164\",\"0.0-120.0\",\"\",\"\",\"3-3\",\"4512\",\"37\",\"1\",\"Training\",\"Stims/Figures/128-J-10-3.bmp\",\"fashava\",\"Left\",\"37\",\"8\",\"5\",\"3A\",\"C1\",\"C\",\"117\"
\"\",\"\",\"approach-retreat\",\"121\",\"1072951\",\"0.0-121.0\",\"\",\"\",\"3-3\",\"4279\",\"39\",\"1\",\"Training\",\"Stims/Figures/57-J-0-1.bmp\",\"fashava\",\"Right\",\"39\",\"8\",\"6\",\"3A\",\"C1\",\"C\",\"118\"
\"\",\"\",\"approach-retreat\",\"122\",\"1078568\",\"0.0-122.0\",\"\",\"\",\"3-3\",\"4111\",\"37\",\"1\",\"Training\",\"Stims/Figures/74-C-20-4.bmp\",\"zasa:ha\",\"Right\",\"37\",\"8\",\"7\",\"3A\",\"C2\",\"C\",\"119\"
\"\",\"\",\"approach-retreat\",\"123\",\"1084321\",\"0.0-123.0\",\"\",\"\",\"3-3\",\"4242\",\"40\",\"1\",\"Training\",\"Stims/Figures/111-J-10-3.bmp\",\"fashava\",\"Down\",\"40\",\"8\",\"8\",\"3A\",\"C1\",\"C\",\"120\"
\"\",\"\",\"approach-retreat\",\"124\",\"1089850\",\"0.0-124.0\",\"\",\"\",\"3-3\",\"4022\",\"40\",\"1\",\"Training\",\"Stims/Figures/118-J-0-2.bmp\",\"fashava\",\"Down\",\"40\",\"8\",\"9\",\"3A\",\"C1\",\"C\",\"121\"
\"\",\"\",\"approach-retreat\",\"125\",\"1095262\",\"0.0-125.0\",\"\",\"\",\"3-3\",\"3908\",\"39\",\"1\",\"Training\",\"Stims/Figures/111-C-30-3.bmp\",\"zasa:ha\",\"Left\",\"39\",\"8\",\"10\",\"3A\",\"C2\",\"C\",\"122\"
\"\",\"\",\"approach-retreat\",\"126\",\"1100773\",\"0.0-126.0\",\"\",\"\",\"3-3\",\"3999\",\"38\",\"1\",\"Training\",\"Stims/Figures/128-C-30-3.bmp\",\"zasa:ha\",\"Down\",\"38\",\"8\",\"11\",\"3A\",\"C2\",\"C\",\"123\"
\"\",\"\",\"approach-retreat\",\"127\",\"1106305\",\"0.0-127.0\",\"\",\"\",\"3-3\",\"4022\",\"37\",\"1\",\"Training\",\"Stims/Figures/87-C-20-4.bmp\",\"zasa:ha\",\"Right\",\"37\",\"8\",\"12\",\"3A\",\"C2\",\"C\",\"124\"
\"\",\"\",\"approach-retreat\",\"128\",\"1111845\",\"0.0-128.0\",\"\",\"\",\"3-3\",\"4035\",\"39\",\"1\",\"Training\",\"Stims/Figures/74-J-10-4.bmp\",\"fashava\",\"Right\",\"39\",\"8\",\"13\",\"3A\",\"C1\",\"C\",\"125\"
\"\",\"\",\"approach-retreat\",\"129\",\"1117613\",\"0.0-129.0\",\"\",\"\",\"3-3\",\"4264\",\"38\",\"1\",\"Training\",\"Stims/Figures/87-J-10-4.bmp\",\"fashava\",\"Up\",\"38\",\"8\",\"14\",\"3A\",\"C1\",\"C\",\"126\"
\"\",\"\",\"approach-retreat\",\"130\",\"1123510\",\"0.0-130.0\",\"\",\"\",\"3-3\",\"4388\",\"39\",\"1\",\"Training\",\"Stims/Figures/57-C-30-1.bmp\",\"zasa:ha\",\"Left\",\"39\",\"8\",\"15\",\"3A\",\"C2\",\"C\",\"127\"
\"\",\"\",\"approach-retreat\",\"131\",\"1129405\",\"0.0-131.0\",\"\",\"\",\"3-3\",\"4392\",\"38\",\"1\",\"Training\",\"Stims/Figures/93-J-0-1.bmp\",\"fashava\",\"Up\",\"38\",\"8\",\"16\",\"3A\",\"C1\",\"C\",\"128\"
\"\",\"\",\"approach-retreat\",\"132\",\"1135181\",\"0.0-132.0\",\"\",\"\",\"3-3\",\"4270\",\"40\",\"1\",\"Training\",\"Stims/Figures/57-J-0-1.bmp\",\"fashava\",\"Down\",\"40\",\"9\",\"1\",\"3A\",\"C1\",\"C\",\"129\"
\"\",\"\",\"approach-retreat\",\"133\",\"1141310\",\"0.0-133.0\",\"\",\"\",\"3-3\",\"4611\",\"39\",\"1\",\"Training\",\"Stims/Figures/128-J-10-3.bmp\",\"fashava\",\"Right\",\"39\",\"9\",\"2\",\"3A\",\"C1\",\"C\",\"130\"
\"\",\"\",\"approach-retreat\",\"134\",\"1146819\",\"0.0-134.0\",\"\",\"\",\"3-3\",\"3996\",\"37\",\"1\",\"Training\",\"Stims/Figures/111-C-30-3.bmp\",\"zasa:ha\",\"Right\",\"37\",\"9\",\"3\",\"3A\",\"C2\",\"C\",\"131\"
\"\",\"\",\"approach-retreat\",\"135\",\"1152443\",\"0.0-135.0\",\"\",\"\",\"3-3\",\"4114\",\"38\",\"1\",\"Training\",\"Stims/Figures/74-J-10-4.bmp\",\"fashava\",\"Up\",\"38\",\"9\",\"4\",\"3A\",\"C1\",\"C\",\"132\"
\"\",\"\",\"approach-retreat\",\"136\",\"1157981\",\"0.0-136.0\",\"\",\"\",\"3-3\",\"4027\",\"37\",\"1\",\"Training\",\"Stims/Figures/87-J-10-4.bmp\",\"fashava\",\"Left\",\"37\",\"9\",\"5\",\"3A\",\"C1\",\"C\",\"133\"
\"\",\"\",\"approach-retreat\",\"137\",\"1163748\",\"0.0-137.0\",\"\",\"\",\"3-3\",\"4258\",\"39\",\"0\",\"Training\",\"Stims/Figures/118-J-0-2.bmp\",\"fashava\",\"Left\",\"37\",\"9\",\"6\",\"3A\",\"C1\",\"C\",\"134\"
\"\",\"\",\"approach-retreat\",\"138\",\"1169393\",\"0.0-138.0\",\"\",\"\",\"3-3\",\"4142\",\"39\",\"1\",\"Training\",\"Stims/Figures/139-J-0-2.bmp\",\"fashava\",\"Right\",\"39\",\"9\",\"7\",\"3A\",\"C1\",\"C\",\"135\"
\"\",\"\",\"approach-retreat\",\"139\",\"1175285\",\"0.0-139.0\",\"\",\"\",\"3-3\",\"4382\",\"38\",\"1\",\"Training\",\"Stims/Figures/87-C-20-4.bmp\",\"zasa:ha\",\"Down\",\"38\",\"9\",\"8\",\"3A\",\"C2\",\"C\",\"136\"
\"\",\"\",\"approach-retreat\",\"140\",\"1181103\",\"0.0-140.0\",\"\",\"\",\"3-3\",\"4313\",\"40\",\"1\",\"Training\",\"Stims/Figures/93-J-0-1.bmp\",\"fashava\",\"Down\",\"40\",\"9\",\"9\",\"3A\",\"C1\",\"C\",\"137\"
\"\",\"\",\"approach-retreat\",\"141\",\"1186669\",\"0.0-141.0\",\"\",\"\",\"3-3\",\"4062\",\"39\",\"1\",\"Training\",\"Stims/Figures/93-C-30-1.bmp\",\"zasa:ha\",\"Left\",\"39\",\"9\",\"10\",\"3A\",\"C2\",\"C\",\"138\"
\"\",\"\",\"approach-retreat\",\"142\",\"1192171\",\"0.0-142.0\",\"\",\"\",\"3-3\",\"3998\",\"38\",\"1\",\"Training\",\"Stims/Figures/128-C-30-3.bmp\",\"zasa:ha\",\"Down\",\"38\",\"9\",\"11\",\"3A\",\"C2\",\"C\",\"139\"
\"\",\"\",\"approach-retreat\",\"143\",\"1197606\",\"0.0-143.0\",\"\",\"\",\"3-3\",\"3924\",\"37\",\"1\",\"Training\",\"Stims/Figures/139-C-20-2.bmp\",\"zasa:ha\",\"Right\",\"37\",\"9\",\"12\",\"3A\",\"C2\",\"C\",\"140\"
\"\",\"\",\"approach-retreat\",\"144\",\"1203135\",\"0.0-144.0\",\"\",\"\",\"3-3\",\"4018\",\"40\",\"0\",\"Training\",\"Stims/Figures/111-J-10-3.bmp\",\"fashava\",\"Up\",\"38\",\"9\",\"13\",\"3A\",\"C1\",\"C\",\"141\"
\"\",\"\",\"approach-retreat\",\"145\",\"1208674\",\"0.0-145.0\",\"\",\"\",\"3-3\",\"4035\",\"40\",\"1\",\"Training\",\"Stims/Figures/57-C-30-1.bmp\",\"zasa:ha\",\"Up\",\"40\",\"9\",\"14\",\"3A\",\"C2\",\"C\",\"142\"
\"\",\"\",\"approach-retreat\",\"146\",\"1214180\",\"0.0-146.0\",\"\",\"\",\"3-3\",\"4001\",\"39\",\"1\",\"Training\",\"Stims/Figures/74-C-20-4.bmp\",\"zasa:ha\",\"Left\",\"39\",\"9\",\"15\",\"3A\",\"C2\",\"C\",\"143\"
\"\",\"\",\"approach-retreat\",\"147\",\"1219755\",\"0.0-147.0\",\"\",\"\",\"3-3\",\"4066\",\"40\",\"1\",\"Training\",\"Stims/Figures/118-C-20-2.bmp\",\"zasa:ha\",\"Up\",\"40\",\"9\",\"16\",\"3A\",\"C2\",\"C\",\"144\"
\"16426\",\"\",\"instructions\",\"148\",\"1236181\",\"0.0-148.0\",\"[{\"\"page_index\"\":0,\"\"viewing_time\"\":16426}]\",\"\",\"\",\"\",\"\",\"\",\"\",\"\",\"\",\"\",\"\",\"\",\"\",\"\",\"\",\"\",\"\"
\"\",\"\",\"approach-retreat\",\"149\",\"1247396\",\"0.0-149.0\",\"\",\"\",\"3-3\",\"9706\",\"40\",\"1\",\"Testing\",\"Stims/Figures/74-C-20-4.bmp\",\"zasa:ha\",\"Up\",\"40\",\"1\",\"1\",\"3A\",\"C2\",\"C\",\"1\"
\"\",\"\",\"approach-retreat\",\"150\",\"1257229\",\"0.0-150.0\",\"\",\"\",\"3-3\",\"8322\",\"40\",\"1\",\"Testing\",\"Stims/Figures/86-J-0-1.bmp\",\"fashava\",\"Down\",\"40\",\"1\",\"2\",\"3A\",\"C1\",\"C\",\"2\"
\"\",\"\",\"approach-retreat\",\"151\",\"1263052\",\"0.0-151.0\",\"\",\"\",\"3-3\",\"4312\",\"40\",\"0\",\"Testing\",\"Stims/Figures/100-C-30-3.bmp\",\"zasa:ha\",\"Down\",\"38\",\"1\",\"3\",\"3A\",\"C2\",\"C\",\"3\"
\"\",\"\",\"approach-retreat\",\"152\",\"1268805\",\"0.0-152.0\",\"\",\"\",\"3-3\",\"4243\",\"39\",\"0\",\"Testing\",\"Stims/Figures/102-J-10-4.bmp\",\"fashava\",\"Left\",\"37\",\"1\",\"4\",\"3A\",\"C1\",\"C\",\"4\"
\"\",\"\",\"approach-retreat\",\"153\",\"1274608\",\"0.0-153.0\",\"\",\"\",\"3-3\",\"4294\",\"40\",\"0\",\"Testing\",\"Stims/Figures/87-C-20-4.bmp\",\"zasa:ha\",\"Down\",\"38\",\"1\",\"5\",\"3A\",\"C2\",\"C\",\"5\"
\"\",\"\",\"approach-retreat\",\"154\",\"1280530\",\"0.0-154.0\",\"\",\"\",\"3-3\",\"4412\",\"39\",\"0\",\"Testing\",\"Stims/Figures/85-C-20-2.bmp\",\"zasa:ha\",\"Right\",\"37\",\"1\",\"6\",\"3A\",\"C2\",\"C\",\"6\"
\"\",\"\",\"approach-retreat\",\"155\",\"1286239\",\"0.0-155.0\",\"\",\"\",\"3-3\",\"4196\",\"37\",\"1\",\"Testing\",\"Stims/Figures/118-C-20-2.bmp\",\"zasa:ha\",\"Right\",\"37\",\"1\",\"7\",\"3A\",\"C2\",\"C\",\"7\"
\"\",\"\",\"approach-retreat\",\"156\",\"1292528\",\"0.0-156.0\",\"\",\"\",\"3-3\",\"4775\",\"39\",\"0\",\"Testing\",\"Stims/Figures/118-J-0-2.bmp\",\"fashava\",\"Left\",\"37\",\"1\",\"8\",\"3A\",\"C1\",\"C\",\"8\"
\"\",\"\",\"approach-retreat\",\"157\",\"1298304\",\"0.0-157.0\",\"\",\"\",\"3-3\",\"4272\",\"39\",\"1\",\"Testing\",\"Stims/Figures/57-C-30-1.bmp\",\"zasa:ha\",\"Left\",\"39\",\"1\",\"9\",\"3A\",\"C2\",\"C\",\"9\"
\"\",\"\",\"approach-retreat\",\"158\",\"1304884\",\"0.0-158.0\",\"\",\"\",\"3-3\",\"5070\",\"38\",\"1\",\"Testing\",\"Stims/Figures/100-J-10-3.bmp\",\"fashava\",\"Up\",\"38\",\"1\",\"10\",\"3A\",\"C1\",\"C\",\"10\"
\"\",\"\",\"approach-retreat\",\"159\",\"1311739\",\"0.0-159.0\",\"\",\"\",\"3-3\",\"5348\",\"38\",\"1\",\"Testing\",\"Stims/Figures/111-J-10-3.bmp\",\"fashava\",\"Up\",\"38\",\"1\",\"11\",\"3A\",\"C1\",\"C\",\"11\"
\"\",\"\",\"approach-retreat\",\"160\",\"1317686\",\"0.0-160.0\",\"\",\"\",\"3-3\",\"4436\",\"37\",\"0\",\"Testing\",\"Stims/Figures/86-C-30-1.bmp\",\"zasa:ha\",\"Left\",\"39\",\"1\",\"12\",\"3A\",\"C2\",\"C\",\"12\"
\"\",\"\",\"approach-retreat\",\"161\",\"1323645\",\"0.0-161.0\",\"\",\"\",\"3-3\",\"4448\",\"37\",\"0\",\"Testing\",\"Stims/Figures/85-J-0-2.bmp\",\"fashava\",\"Right\",\"39\",\"1\",\"13\",\"3A\",\"C1\",\"C\",\"13\"
\"\",\"\",\"approach-retreat\",\"162\",\"1329481\",\"0.0-162.0\",\"\",\"\",\"3-3\",\"4327\",\"37\",\"0\",\"Testing\",\"Stims/Figures/74-J-10-4.bmp\",\"fashava\",\"Right\",\"39\",\"1\",\"14\",\"3A\",\"C1\",\"C\",\"14\"
\"\",\"\",\"approach-retreat\",\"163\",\"1335911\",\"0.0-163.0\",\"\",\"\",\"3-3\",\"4921\",\"38\",\"0\",\"Testing\",\"Stims/Figures/102-C-20-4.bmp\",\"zasa:ha\",\"Up\",\"40\",\"1\",\"15\",\"3A\",\"C2\",\"C\",\"15\"
\"\",\"\",\"approach-retreat\",\"164\",\"1341713\",\"0.0-164.0\",\"\",\"\",\"3-3\",\"4293\",\"39\",\"0\",\"Testing\",\"Stims/Figures/139-J-0-2.bmp\",\"fashava\",\"Left\",\"37\",\"1\",\"16\",\"3A\",\"C1\",\"C\",\"16\"
\"\",\"\",\"approach-retreat\",\"165\",\"1348601\",\"0.0-165.0\",\"\",\"\",\"3-3\",\"5375\",\"37\",\"0\",\"Testing\",\"Stims/Figures/93-J-0-1.bmp\",\"fashava\",\"Right\",\"39\",\"1\",\"17\",\"3A\",\"C1\",\"C\",\"17\"
\"\",\"\",\"approach-retreat\",\"166\",\"1356239\",\"0.0-166.0\",\"\",\"\",\"3-3\",\"6128\",\"38\",\"0\",\"Testing\",\"Stims/Figures/57-J-0-1.bmp\",\"fashava\",\"Down\",\"40\",\"1\",\"18\",\"3A\",\"C1\",\"C\",\"18\"
\"\",\"\",\"approach-retreat\",\"167\",\"1362563\",\"0.0-167.0\",\"\",\"\",\"3-3\",\"4804\",\"40\",\"0\",\"Testing\",\"Stims/Figures/111-C-30-3.bmp\",\"zasa:ha\",\"Down\",\"38\",\"1\",\"19\",\"3A\",\"C2\",\"C\",\"19\"
\"\",\"\",\"approach-retreat\",\"168\",\"1368361\",\"0.0-168.0\",\"\",\"\",\"3-3\",\"4287\",\"39\",\"1\",\"Testing\",\"Stims/Figures/87-J-10-4.bmp\",\"fashava\",\"Right\",\"39\",\"1\",\"20\",\"3A\",\"C1\",\"C\",\"20\"
\"\",\"\",\"approach-retreat\",\"169\",\"1374031\",\"0.0-169.0\",\"\",\"\",\"3-3\",\"4161\",\"37\",\"0\",\"Testing\",\"Stims/Figures/93-C-30-1.bmp\",\"zasa:ha\",\"Left\",\"39\",\"1\",\"21\",\"3A\",\"C2\",\"C\",\"21\"
\"\",\"\",\"approach-retreat\",\"170\",\"1379891\",\"0.0-170.0\",\"\",\"\",\"3-3\",\"4350\",\"40\",\"1\",\"Testing\",\"Stims/Figures/128-J-10-3.bmp\",\"fashava\",\"Down\",\"40\",\"1\",\"22\",\"3A\",\"C1\",\"C\",\"22\"
\"\",\"\",\"approach-retreat\",\"171\",\"1385541\",\"0.0-171.0\",\"\",\"\",\"3-3\",\"4140\",\"40\",\"1\",\"Testing\",\"Stims/Figures/139-C-20-2.bmp\",\"zasa:ha\",\"Up\",\"40\",\"1\",\"23\",\"3A\",\"C2\",\"C\",\"23\"
\"\",\"\",\"approach-retreat\",\"172\",\"1391894\",\"0.0-172.0\",\"\",\"\",\"3-3\",\"4842\",\"38\",\"0\",\"Testing\",\"Stims/Figures/128-C-30-3.bmp\",\"zasa:ha\",\"Up\",\"40\",\"1\",\"24\",\"3A\",\"C2\",\"C\",\"24\"
\"\",\"\",\"approach-retreat\",\"173\",\"1397486\",\"0.0-173.0\",\"\",\"\",\"3-3\",\"4081\",\"38\",\"0\",\"Testing\",\"Stims/Figures/74-J-10-4.bmp\",\"fashava\",\"Down\",\"40\",\"2\",\"1\",\"3A\",\"C1\",\"C\",\"25\"
\"\",\"\",\"approach-retreat\",\"174\",\"1403128\",\"0.0-174.0\",\"\",\"\",\"3-3\",\"4136\",\"37\",\"0\",\"Testing\",\"Stims/Figures/93-J-0-1.bmp\",\"fashava\",\"Right\",\"39\",\"2\",\"2\",\"3A\",\"C1\",\"C\",\"26\"
\"\",\"\",\"approach-retreat\",\"175\",\"1409116\",\"0.0-175.0\",\"\",\"\",\"3-3\",\"4477\",\"38\",\"0\",\"Testing\",\"Stims/Figures/128-J-10-3.bmp\",\"fashava\",\"Down\",\"40\",\"2\",\"3\",\"3A\",\"C1\",\"C\",\"27\"
\"\",\"\",\"approach-retreat\",\"176\",\"1415099\",\"0.0-176.0\",\"\",\"\",\"3-3\",\"4470\",\"38\",\"0\",\"Testing\",\"Stims/Figures/128-C-30-3.bmp\",\"zasa:ha\",\"Up\",\"40\",\"2\",\"4\",\"3A\",\"C2\",\"C\",\"28\"
\"\",\"\",\"approach-retreat\",\"177\",\"1420846\",\"0.0-177.0\",\"\",\"\",\"3-3\",\"4238\",\"37\",\"0\",\"Testing\",\"Stims/Figures/139-C-20-2.bmp\",\"zasa:ha\",\"Left\",\"39\",\"2\",\"5\",\"3A\",\"C2\",\"C\",\"29\"
\"\",\"\",\"approach-retreat\",\"178\",\"1426487\",\"0.0-178.0\",\"\",\"\",\"3-3\",\"4128\",\"39\",\"0\",\"Testing\",\"Stims/Figures/57-C-30-1.bmp\",\"zasa:ha\",\"Right\",\"37\",\"2\",\"6\",\"3A\",\"C2\",\"C\",\"30\"
\"\",\"\",\"approach-retreat\",\"179\",\"1432394\",\"0.0-179.0\",\"\",\"\",\"3-3\",\"4397\",\"38\",\"0\",\"Testing\",\"Stims/Figures/111-C-30-3.bmp\",\"zasa:ha\",\"Up\",\"40\",\"2\",\"7\",\"3A\",\"C2\",\"C\",\"31\"
\"\",\"\",\"approach-retreat\",\"180\",\"1438108\",\"0.0-180.0\",\"\",\"\",\"3-3\",\"4204\",\"40\",\"1\",\"Testing\",\"Stims/Figures/85-C-20-2.bmp\",\"zasa:ha\",\"Up\",\"40\",\"2\",\"8\",\"3A\",\"C2\",\"C\",\"32\"
\"\",\"\",\"approach-retreat\",\"181\",\"1443670\",\"0.0-181.0\",\"\",\"\",\"3-3\",\"4052\",\"37\",\"1\",\"Testing\",\"Stims/Figures/118-C-20-2.bmp\",\"zasa:ha\",\"Right\",\"37\",\"2\",\"9\",\"3A\",\"C2\",\"C\",\"33\"
\"\",\"\",\"approach-retreat\",\"182\",\"1449429\",\"0.0-182.0\",\"\",\"\",\"3-3\",\"4249\",\"37\",\"0\",\"Testing\",\"Stims/Figures/100-C-30-3.bmp\",\"zasa:ha\",\"Left\",\"39\",\"2\",\"10\",\"3A\",\"C2\",\"C\",\"34\"
\"\",\"\",\"approach-retreat\",\"183\",\"1455316\",\"0.0-183.0\",\"\",\"\",\"3-3\",\"4380\",\"39\",\"0\",\"Testing\",\"Stims/Figures/102-J-10-4.bmp\",\"fashava\",\"Left\",\"37\",\"2\",\"11\",\"3A\",\"C1\",\"C\",\"35\"
\"\",\"\",\"approach-retreat\",\"184\",\"1461240\",\"0.0-184.0\",\"\",\"\",\"3-3\",\"4420\",\"38\",\"0\",\"Testing\",\"Stims/Figures/118-J-0-2.bmp\",\"fashava\",\"Down\",\"40\",\"2\",\"12\",\"3A\",\"C1\",\"C\",\"36\"
\"\",\"\",\"approach-retreat\",\"185\",\"1467172\",\"0.0-185.0\",\"\",\"\",\"3-3\",\"4421\",\"38\",\"1\",\"Testing\",\"Stims/Figures/139-J-0-2.bmp\",\"fashava\",\"Up\",\"38\",\"2\",\"13\",\"3A\",\"C1\",\"C\",\"37\"
\"\",\"\",\"approach-retreat\",\"186\",\"1473535\",\"0.0-186.0\",\"\",\"\",\"3-3\",\"4853\",\"38\",\"1\",\"Testing\",\"Stims/Figures/74-C-20-4.bmp\",\"zasa:ha\",\"Down\",\"38\",\"2\",\"14\",\"3A\",\"C2\",\"C\",\"38\"
\"\",\"\",\"approach-retreat\",\"187\",\"1480026\",\"0.0-187.0\",\"\",\"\",\"3-3\",\"4981\",\"38\",\"1\",\"Testing\",\"Stims/Figures/100-J-10-3.bmp\",\"fashava\",\"Up\",\"38\",\"2\",\"15\",\"3A\",\"C1\",\"C\",\"39\"
\"\",\"\",\"approach-retreat\",\"188\",\"1485472\",\"0.0-188.0\",\"\",\"\",\"3-3\",\"3934\",\"39\",\"0\",\"Testing\",\"Stims/Figures/86-C-30-1.bmp\",\"zasa:ha\",\"Right\",\"37\",\"2\",\"16\",\"3A\",\"C2\",\"C\",\"40\"
\"\",\"\",\"approach-retreat\",\"189\",\"1491956\",\"0.0-189.0\",\"\",\"\",\"3-3\",\"4980\",\"39\",\"1\",\"Testing\",\"Stims/Figures/111-J-10-3.bmp\",\"fashava\",\"Right\",\"39\",\"2\",\"17\",\"3A\",\"C1\",\"C\",\"41\"
\"\",\"\",\"approach-retreat\",\"190\",\"1497630\",\"0.0-190.0\",\"\",\"\",\"3-3\",\"4163\",\"38\",\"0\",\"Testing\",\"Stims/Figures/102-C-20-4.bmp\",\"zasa:ha\",\"Up\",\"40\",\"2\",\"18\",\"3A\",\"C2\",\"C\",\"42\"
\"\",\"\",\"approach-retreat\",\"191\",\"1503351\",\"0.0-191.0\",\"\",\"\",\"3-3\",\"4211\",\"39\",\"0\",\"Testing\",\"Stims/Figures/86-J-0-1.bmp\",\"fashava\",\"Left\",\"37\",\"2\",\"19\",\"3A\",\"C1\",\"C\",\"43\"
\"\",\"\",\"approach-retreat\",\"192\",\"1509974\",\"0.0-192.0\",\"\",\"\",\"3-3\",\"5112\",\"40\",\"0\",\"Testing\",\"Stims/Figures/93-C-30-1.bmp\",\"zasa:ha\",\"Down\",\"38\",\"2\",\"20\",\"3A\",\"C2\",\"C\",\"44\"
\"\",\"\",\"approach-retreat\",\"193\",\"1515600\",\"0.0-193.0\",\"\",\"\",\"3-3\",\"4115\",\"37\",\"0\",\"Testing\",\"Stims/Figures/87-C-20-4.bmp\",\"zasa:ha\",\"Left\",\"39\",\"2\",\"21\",\"3A\",\"C2\",\"C\",\"45\"
\"\",\"\",\"approach-retreat\",\"194\",\"1521239\",\"0.0-194.0\",\"\",\"\",\"3-3\",\"4125\",\"38\",\"0\",\"Testing\",\"Stims/Figures/57-J-0-1.bmp\",\"fashava\",\"Down\",\"40\",\"2\",\"22\",\"3A\",\"C1\",\"C\",\"46\"
\"\",\"\",\"approach-retreat\",\"195\",\"1526733\",\"0.0-195.0\",\"\",\"\",\"3-3\",\"3984\",\"37\",\"0\",\"Testing\",\"Stims/Figures/85-J-0-2.bmp\",\"fashava\",\"Right\",\"39\",\"2\",\"23\",\"3A\",\"C1\",\"C\",\"47\"
\"\",\"\",\"approach-retreat\",\"196\",\"1532273\",\"0.0-196.0\",\"\",\"\",\"3-3\",\"4034\",\"39\",\"0\",\"Testing\",\"Stims/Figures/87-J-10-4.bmp\",\"fashava\",\"Left\",\"37\",\"2\",\"24\",\"3A\",\"C1\",\"C\",\"48\"
\"\",\"\",\"approach-retreat\",\"197\",\"1537859\",\"0.0-197.0\",\"\",\"\",\"3-3\",\"4076\",\"40\",\"0\",\"Testing\",\"Stims/Figures/85-J-0-2.bmp\",\"fashava\",\"Up\",\"38\",\"3\",\"1\",\"3A\",\"C1\",\"C\",\"49\"
\"\",\"\",\"approach-retreat\",\"198\",\"1543555\",\"0.0-198.0\",\"\",\"\",\"3-3\",\"4187\",\"39\",\"0\",\"Testing\",\"Stims/Figures/139-C-20-2.bmp\",\"zasa:ha\",\"Right\",\"37\",\"3\",\"2\",\"3A\",\"C2\",\"C\",\"50\"
\"\",\"\",\"approach-retreat\",\"199\",\"1548966\",\"0.0-199.0\",\"\",\"\",\"3-3\",\"3899\",\"40\",\"0\",\"Testing\",\"Stims/Figures/118-J-0-2.bmp\",\"fashava\",\"Up\",\"38\",\"3\",\"3\",\"3A\",\"C1\",\"C\",\"51\"
\"\",\"\",\"approach-retreat\",\"200\",\"1554601\",\"0.0-200.0\",\"\",\"\",\"3-3\",\"4126\",\"40\",\"1\",\"Testing\",\"Stims/Figures/100-J-10-3.bmp\",\"fashava\",\"Down\",\"40\",\"3\",\"4\",\"3A\",\"C1\",\"C\",\"52\"
\"\",\"\",\"approach-retreat\",\"201\",\"1560055\",\"0.0-201.0\",\"\",\"\",\"3-3\",\"3949\",\"38\",\"0\",\"Testing\",\"Stims/Figures/111-C-30-3.bmp\",\"zasa:ha\",\"Up\",\"40\",\"3\",\"5\",\"3A\",\"C2\",\"C\",\"53\"
\"\",\"\",\"approach-retreat\",\"202\",\"1565925\",\"0.0-202.0\",\"\",\"\",\"3-3\",\"4364\",\"38\",\"1\",\"Testing\",\"Stims/Figures/102-J-10-4.bmp\",\"fashava\",\"Up\",\"38\",\"3\",\"6\",\"3A\",\"C1\",\"C\",\"54\"
\"\",\"\",\"approach-retreat\",\"203\",\"1571432\",\"0.0-203.0\",\"\",\"\",\"3-3\",\"3996\",\"37\",\"0\",\"Testing\",\"Stims/Figures/87-C-20-4.bmp\",\"zasa:ha\",\"Left\",\"39\",\"3\",\"7\",\"3A\",\"C2\",\"C\",\"55\"
\"\",\"\",\"approach-retreat\",\"204\",\"1577384\",\"0.0-204.0\",\"\",\"\",\"3-3\",\"4442\",\"37\",\"0\",\"Testing\",\"Stims/Figures/128-C-30-3.bmp\",\"zasa:ha\",\"Left\",\"39\",\"3\",\"8\",\"3A\",\"C2\",\"C\",\"56\"
\"\",\"\",\"approach-retreat\",\"205\",\"1582776\",\"0.0-205.0\",\"\",\"\",\"3-3\",\"3881\",\"40\",\"0\",\"Testing\",\"Stims/Figures/93-J-0-1.bmp\",\"fashava\",\"Up\",\"38\",\"3\",\"9\",\"3A\",\"C1\",\"C\",\"57\"
\"\",\"\",\"approach-retreat\",\"206\",\"1590728\",\"0.0-206.0\",\"\",\"\",\"3-3\",\"6441\",\"39\",\"1\",\"Testing\",\"Stims/Figures/85-C-20-2.bmp\",\"zasa:ha\",\"Left\",\"39\",\"3\",\"10\",\"3A\",\"C2\",\"C\",\"58\"
\"\",\"\",\"approach-retreat\",\"207\",\"1596987\",\"0.0-207.0\",\"\",\"\",\"3-3\",\"4755\",\"38\",\"0\",\"Testing\",\"Stims/Figures/128-J-10-3.bmp\",\"fashava\",\"Down\",\"40\",\"3\",\"11\",\"3A\",\"C1\",\"C\",\"59\"
\"\",\"\",\"approach-retreat\",\"208\",\"1604635\",\"0.0-208.0\",\"\",\"\",\"3-3\",\"6143\",\"40\",\"0\",\"Testing\",\"Stims/Figures/100-C-30-3.bmp\",\"zasa:ha\",\"Down\",\"38\",\"3\",\"12\",\"3A\",\"C2\",\"C\",\"60\"
\"\",\"\",\"approach-retreat\",\"209\",\"1610221\",\"0.0-209.0\",\"\",\"\",\"3-3\",\"4082\",\"39\",\"0\",\"Testing\",\"Stims/Figures/57-C-30-1.bmp\",\"zasa:ha\",\"Right\",\"37\",\"3\",\"13\",\"3A\",\"C2\",\"C\",\"61\"
\"\",\"\",\"approach-retreat\",\"210\",\"1617823\",\"0.0-210.0\",\"\",\"\",\"3-3\",\"6099\",\"37\",\"0\",\"Testing\",\"Stims/Figures/87-J-10-4.bmp\",\"fashava\",\"Right\",\"39\",\"3\",\"14\",\"3A\",\"C1\",\"C\",\"62\"
\"\",\"\",\"approach-retreat\",\"211\",\"1623615\",\"0.0-211.0\",\"\",\"\",\"3-3\",\"4288\",\"40\",\"1\",\"Testing\",\"Stims/Figures/139-J-0-2.bmp\",\"fashava\",\"Down\",\"40\",\"3\",\"15\",\"3A\",\"C1\",\"C\",\"63\"
\"\",\"\",\"approach-retreat\",\"212\",\"1629876\",\"0.0-212.0\",\"\",\"\",\"3-3\",\"4757\",\"40\",\"1\",\"Testing\",\"Stims/Figures/74-J-10-4.bmp\",\"fashava\",\"Down\",\"40\",\"3\",\"16\",\"3A\",\"C1\",\"C\",\"64\"
\"\",\"\",\"approach-retreat\",\"213\",\"1635425\",\"0.0-213.0\",\"\",\"\",\"3-3\",\"4044\",\"39\",\"0\",\"Testing\",\"Stims/Figures/118-C-20-2.bmp\",\"zasa:ha\",\"Right\",\"37\",\"3\",\"17\",\"3A\",\"C2\",\"C\",\"65\"
\"\",\"\",\"approach-retreat\",\"214\",\"1640904\",\"0.0-214.0\",\"\",\"\",\"3-3\",\"3970\",\"37\",\"1\",\"Testing\",\"Stims/Figures/111-J-10-3.bmp\",\"fashava\",\"Left\",\"37\",\"3\",\"18\",\"3A\",\"C1\",\"C\",\"66\"
\"\",\"\",\"approach-retreat\",\"215\",\"1646315\",\"0.0-215.0\",\"\",\"\",\"3-3\",\"3900\",\"39\",\"0\",\"Testing\",\"Stims/Figures/86-C-30-1.bmp\",\"zasa:ha\",\"Right\",\"37\",\"3\",\"19\",\"3A\",\"C2\",\"C\",\"67\"
\"\",\"\",\"approach-retreat\",\"216\",\"1652505\",\"0.0-216.0\",\"\",\"\",\"3-3\",\"4682\",\"38\",\"0\",\"Testing\",\"Stims/Figures/74-C-20-4.bmp\",\"zasa:ha\",\"Up\",\"40\",\"3\",\"20\",\"3A\",\"C2\",\"C\",\"68\"
\"\",\"\",\"approach-retreat\",\"217\",\"1658117\",\"0.0-217.0\",\"\",\"\",\"3-3\",\"4100\",\"39\",\"0\",\"Testing\",\"Stims/Figures/93-C-30-1.bmp\",\"zasa:ha\",\"Right\",\"37\",\"3\",\"21\",\"3A\",\"C2\",\"C\",\"69\"
\"\",\"\",\"approach-retreat\",\"218\",\"1663976\",\"0.0-218.0\",\"\",\"\",\"3-3\",\"4349\",\"38\",\"0\",\"Testing\",\"Stims/Figures/57-J-0-1.bmp\",\"fashava\",\"Down\",\"40\",\"3\",\"22\",\"3A\",\"C1\",\"C\",\"70\"
\"\",\"\",\"approach-retreat\",\"219\",\"1669452\",\"0.0-219.0\",\"\",\"\",\"3-3\",\"3966\",\"37\",\"0\",\"Testing\",\"Stims/Figures/102-C-20-4.bmp\",\"zasa:ha\",\"Left\",\"39\",\"3\",\"23\",\"3A\",\"C2\",\"C\",\"71\"
\"\",\"\",\"approach-retreat\",\"220\",\"1674876\",\"0.0-220.0\",\"\",\"\",\"3-3\",\"3913\",\"39\",\"0\",\"Testing\",\"Stims/Figures/86-J-0-1.bmp\",\"fashava\",\"Left\",\"37\",\"3\",\"24\",\"3A\",\"C1\",\"C\",\"72\"
\"\",\"\",\"approach-retreat\",\"221\",\"1680344\",\"0.0-221.0\",\"\",\"\",\"3-3\",\"3959\",\"37\",\"0\",\"Testing\",\"Stims/Figures/86-J-0-1.bmp\",\"fashava\",\"Right\",\"39\",\"4\",\"1\",\"3A\",\"C1\",\"C\",\"73\"
\"\",\"\",\"approach-retreat\",\"222\",\"1685993\",\"0.0-222.0\",\"\",\"\",\"3-3\",\"4139\",\"40\",\"0\",\"Testing\",\"Stims/Figures/118-C-20-2.bmp\",\"zasa:ha\",\"Down\",\"38\",\"4\",\"2\",\"3A\",\"C2\",\"C\",\"74\"
\"\",\"\",\"approach-retreat\",\"223\",\"1691709\",\"0.0-223.0\",\"\",\"\",\"3-3\",\"4205\",\"38\",\"1\",\"Testing\",\"Stims/Figures/87-J-10-4.bmp\",\"fashava\",\"Up\",\"38\",\"4\",\"3\",\"3A\",\"C1\",\"C\",\"75\"
\"\",\"\",\"approach-retreat\",\"224\",\"1697424\",\"0.0-224.0\",\"\",\"\",\"3-3\",\"4200\",\"39\",\"0\",\"Testing\",\"Stims/Figures/100-C-30-3.bmp\",\"zasa:ha\",\"Right\",\"37\",\"4\",\"4\",\"3A\",\"C2\",\"C\",\"76\"
\"\",\"\",\"approach-retreat\",\"225\",\"1704236\",\"0.0-225.0\",\"\",\"\",\"3-3\",\"5302\",\"38\",\"0\",\"Testing\",\"Stims/Figures/102-C-20-4.bmp\",\"zasa:ha\",\"Up\",\"40\",\"4\",\"5\",\"3A\",\"C2\",\"C\",\"77\"
\"\",\"\",\"approach-retreat\",\"226\",\"1709809\",\"0.0-226.0\",\"\",\"\",\"3-3\",\"4065\",\"38\",\"1\",\"Testing\",\"Stims/Figures/111-J-10-3.bmp\",\"fashava\",\"Up\",\"38\",\"4\",\"6\",\"3A\",\"C1\",\"C\",\"78\"
\"\",\"\",\"approach-retreat\",\"227\",\"1716005\",\"0.0-227.0\",\"\",\"\",\"3-3\",\"4686\",\"39\",\"0\",\"Testing\",\"Stims/Figures/128-C-30-3.bmp\",\"zasa:ha\",\"Right\",\"37\",\"4\",\"7\",\"3A\",\"C2\",\"C\",\"79\"
\"\",\"\",\"approach-retreat\",\"228\",\"1721854\",\"0.0-228.0\",\"\",\"\",\"3-3\",\"4337\",\"38\",\"1\",\"Testing\",\"Stims/Figures/100-J-10-3.bmp\",\"fashava\",\"Up\",\"38\",\"4\",\"8\",\"3A\",\"C1\",\"C\",\"80\"
\"\",\"\",\"approach-retreat\",\"229\",\"1727354\",\"0.0-229.0\",\"\",\"\",\"3-3\",\"3991\",\"38\",\"1\",\"Testing\",\"Stims/Figures/139-J-0-2.bmp\",\"fashava\",\"Up\",\"38\",\"4\",\"9\",\"3A\",\"C1\",\"C\",\"81\"
\"\",\"\",\"approach-retreat\",\"230\",\"1734274\",\"0.0-230.0\",\"\",\"\",\"3-3\",\"5409\",\"38\",\"0\",\"Testing\",\"Stims/Figures/102-J-10-4.bmp\",\"fashava\",\"Down\",\"40\",\"4\",\"10\",\"3A\",\"C1\",\"C\",\"82\"
\"\",\"\",\"approach-retreat\",\"231\",\"1739940\",\"0.0-231.0\",\"\",\"\",\"3-3\",\"4155\",\"39\",\"1\",\"Testing\",\"Stims/Figures/139-C-20-2.bmp\",\"zasa:ha\",\"Left\",\"39\",\"4\",\"11\",\"3A\",\"C2\",\"C\",\"83\"
\"\",\"\",\"approach-retreat\",\"232\",\"1745642\",\"0.0-232.0\",\"\",\"\",\"3-3\",\"4192\",\"37\",\"1\",\"Testing\",\"Stims/Figures/85-C-20-2.bmp\",\"zasa:ha\",\"Right\",\"37\",\"4\",\"12\",\"3A\",\"C2\",\"C\",\"84\"
\"\",\"\",\"approach-retreat\",\"233\",\"1751631\",\"0.0-233.0\",\"\",\"\",\"3-3\",\"4479\",\"40\",\"0\",\"Testing\",\"Stims/Figures/93-C-30-1.bmp\",\"zasa:ha\",\"Down\",\"38\",\"4\",\"13\",\"3A\",\"C2\",\"C\",\"85\"
\"\",\"\",\"approach-retreat\",\"234\",\"1758020\",\"0.0-234.0\",\"\",\"\",\"3-3\",\"4878\",\"37\",\"0\",\"Testing\",\"Stims/Figures/74-C-20-4.bmp\",\"zasa:ha\",\"Left\",\"39\",\"4\",\"14\",\"3A\",\"C2\",\"C\",\"86\"
\"\",\"\",\"approach-retreat\",\"235\",\"1763789\",\"0.0-235.0\",\"\",\"\",\"3-3\",\"4258\",\"39\",\"1\",\"Testing\",\"Stims/Figures/74-J-10-4.bmp\",\"fashava\",\"Right\",\"39\",\"4\",\"15\",\"3A\",\"C1\",\"C\",\"87\"
\"\",\"\",\"approach-retreat\",\"236\",\"1769835\",\"0.0-236.0\",\"\",\"\",\"3-3\",\"4537\",\"40\",\"0\",\"Testing\",\"Stims/Figures/111-C-30-3.bmp\",\"zasa:ha\",\"Down\",\"38\",\"4\",\"16\",\"3A\",\"C2\",\"C\",\"88\"
\"\",\"\",\"approach-retreat\",\"237\",\"1775964\",\"0.0-237.0\",\"\",\"\",\"3-3\",\"4618\",\"40\",\"1\",\"Testing\",\"Stims/Figures/128-J-10-3.bmp\",\"fashava\",\"Down\",\"40\",\"4\",\"17\",\"3A\",\"C1\",\"C\",\"89\"
\"\",\"\",\"approach-retreat\",\"238\",\"1781737\",\"0.0-238.0\",\"\",\"\",\"3-3\",\"4262\",\"40\",\"0\",\"Testing\",\"Stims/Figures/85-J-0-2.bmp\",\"fashava\",\"Up\",\"38\",\"4\",\"18\",\"3A\",\"C1\",\"C\",\"90\"
\"\",\"\",\"approach-retreat\",\"239\",\"1787854\",\"0.0-239.0\",\"\",\"\",\"3-3\",\"4607\",\"37\",\"0\",\"Testing\",\"Stims/Figures/57-C-30-1.bmp\",\"zasa:ha\",\"Left\",\"39\",\"4\",\"19\",\"3A\",\"C2\",\"C\",\"91\"
\"\",\"\",\"approach-retreat\",\"240\",\"1793473\",\"0.0-240.0\",\"\",\"\",\"3-3\",\"4110\",\"39\",\"0\",\"Testing\",\"Stims/Figures/57-J-0-1.bmp\",\"fashava\",\"Left\",\"37\",\"4\",\"20\",\"3A\",\"C1\",\"C\",\"92\"
\"\",\"\",\"approach-retreat\",\"241\",\"1799067\",\"0.0-241.0\",\"\",\"\",\"3-3\",\"4083\",\"39\",\"0\",\"Testing\",\"Stims/Figures/93-J-0-1.bmp\",\"fashava\",\"Left\",\"37\",\"4\",\"21\",\"3A\",\"C1\",\"C\",\"93\"
\"\",\"\",\"approach-retreat\",\"242\",\"1804634\",\"0.0-242.0\",\"\",\"\",\"3-3\",\"4058\",\"37\",\"0\",\"Testing\",\"Stims/Figures/118-J-0-2.bmp\",\"fashava\",\"Right\",\"39\",\"4\",\"22\",\"3A\",\"C1\",\"C\",\"94\"
\"\",\"\",\"approach-retreat\",\"243\",\"1810698\",\"0.0-243.0\",\"\",\"\",\"3-3\",\"4555\",\"40\",\"0\",\"Testing\",\"Stims/Figures/87-C-20-4.bmp\",\"zasa:ha\",\"Down\",\"38\",\"4\",\"23\",\"3A\",\"C2\",\"C\",\"95\"
\"\",\"\",\"approach-retreat\",\"244\",\"1816222\",\"0.0-244.0\",\"\",\"\",\"3-3\",\"4014\",\"37\",\"0\",\"Testing\",\"Stims/Figures/86-C-30-1.bmp\",\"zasa:ha\",\"Left\",\"39\",\"4\",\"24\",\"3A\",\"C2\",\"C\",\"96\"
\"15336\",\"\",\"survey-text\",\"245\",\"1831585\",\"0.0-245.0\",\"\",\"{\"\"Q0\"\":\"\"PS160026\"\"}\",\"\",\"\",\"\",\"\",\"\",\"\",\"\",\"\",\"\",\"\",\"\",\"\",\"\",\"\",\"\"
