\"rt\",\"key_press\",\"trial_type\",\"trial_index\",\"time_elapsed\",\"internal_node_id\",\"view_history\",\"responses\",\"Id\",\"Rt\",\"ResKeyCode\",\"ResCorr\",\"TrialType2\",\"Image\",\"Label\",\"Location\",\"CorrectResponse\",\"Block\",\"BlockTrial\",\"Condition\",\"LabelType\",\"Subcondition\",\"trialNum\"
\"14194\",\"32\",\"text\",\"0\",\"14201\",\"0.0-0.0-0.0\",\"\",\"\",\"\",\"\",\"\",\"\",\"\",\"\",\"\",\"\",\"\",\"\",\"\",\"\",\"\",\"\",\"\"
\"7666\",\"\",\"instructions\",\"1\",\"21871\",\"0.0-1.0\",\"[{\"\"page_index\"\":0,\"\"viewing_time\"\":7665}]\",\"\",\"\",\"\",\"\",\"\",\"\",\"\",\"\",\"\",\"\",\"\",\"\",\"\",\"\",\"\",\"\"
\"23833\",\"\",\"survey-multi-choice\",\"2\",\"45756\",\"0.0-2.0\",\"\",\"{\"\"Q0\"\":\"\"Da\"\",\"\"Q1\"\":\"\"Da\"\",\"\"Q2\"\":\"\"Da\"\",\"\"Q3\"\":\"\"Da\"\",\"\"Q4\"\":\"\"Da\"\",\"\"Q5\"\":\"\"Da\"\"}\",\"\",\"\",\"\",\"\",\"\",\"\",\"\",\"\",\"\",\"\",\"\",\"\",\"\",\"\",\"\"
\"\",\"\",\"bio\",\"3\",\"77872\",\"0.0-3.0\",\"\",\"{\"\"age\"\":\"\"21\"\",\"\"gender\"\":\"\"f\"\",\"\"specify\"\":\"\"\"\"}\",\"\",\"\",\"\",\"\",\"\",\"\",\"\",\"\",\"\",\"\",\"\",\"\",\"\",\"\",\"\"
\"\",\"\",\"approach-retreat\",\"4\",\"102790\",\"0.0-4.0\",\"\",\"\",\"3-1\",\"23411\",\"39\",\"0\",\"Training\",\"Stims/Figures/57-J-0-1.bmp\",\"tapaka\",\"Left\",\"37\",\"1\",\"1\",\"7\",\"P\",\"C\",\"1\"
\"\",\"\",\"approach-retreat\",\"5\",\"109362\",\"0.0-5.0\",\"\",\"\",\"3-1\",\"5061\",\"38\",\"0\",\"Training\",\"Stims/Figures/87-J-10-4.bmp\",\"malana\",\"Down\",\"40\",\"1\",\"2\",\"7\",\"S\",\"C\",\"2\"
\"\",\"\",\"approach-retreat\",\"6\",\"115816\",\"0.0-6.0\",\"\",\"\",\"3-1\",\"4945\",\"39\",\"1\",\"Training\",\"Stims/Figures/74-J-10-4.bmp\",\"na:la:la\",\"Right\",\"39\",\"1\",\"3\",\"7\",\"S\",\"C\",\"3\"
\"\",\"\",\"approach-retreat\",\"7\",\"121363\",\"0.0-7.0\",\"\",\"\",\"3-1\",\"4036\",\"37\",\"0\",\"Training\",\"Stims/Figures/84-C-20-2.bmp\",\"papata\",\"Left\",\"39\",\"1\",\"4\",\"7\",\"P\",\"C\",\"4\"
\"\",\"\",\"approach-retreat\",\"8\",\"128979\",\"0.0-8.0\",\"\",\"\",\"3-1\",\"6107\",\"39\",\"1\",\"Training\",\"Stims/Figures/144-C-30-3.bmp\",\"ma:la:na\",\"Left\",\"39\",\"1\",\"5\",\"7\",\"S\",\"C\",\"5\"
\"\",\"\",\"approach-retreat\",\"9\",\"134764\",\"0.0-9.0\",\"\",\"\",\"3-1\",\"4274\",\"39\",\"1\",\"Training\",\"Stims/Figures/144-J-10-3.bmp\",\"na:la:na\",\"Right\",\"39\",\"1\",\"6\",\"7\",\"S\",\"C\",\"6\"
\"\",\"\",\"approach-retreat\",\"10\",\"140997\",\"0.0-10.0\",\"\",\"\",\"3-1\",\"4723\",\"40\",\"0\",\"Training\",\"Stims/Figures/87-C-20-4.bmp\",\"na:ma:na\",\"Down\",\"38\",\"1\",\"7\",\"7\",\"S\",\"C\",\"7\"
\"\",\"\",\"approach-retreat\",\"11\",\"146897\",\"0.0-11.0\",\"\",\"\",\"3-1\",\"4389\",\"37\",\"1\",\"Training\",\"Stims/Figures/139-C-20-2.bmp\",\"paka:ka\",\"Right\",\"37\",\"1\",\"8\",\"7\",\"P\",\"C\",\"8\"
\"\",\"\",\"approach-retreat\",\"12\",\"153038\",\"0.0-12.0\",\"\",\"\",\"3-1\",\"4634\",\"38\",\"0\",\"Training\",\"Stims/Figures/44-J-10-3.bmp\",\"mama:na\",\"Down\",\"40\",\"1\",\"9\",\"7\",\"S\",\"C\",\"9\"
\"\",\"\",\"approach-retreat\",\"13\",\"159613\",\"0.0-13.0\",\"\",\"\",\"3-1\",\"5066\",\"38\",\"0\",\"Training\",\"Stims/Figures/74-C-20-4.bmp\",\"nala:na\",\"Up\",\"40\",\"1\",\"10\",\"7\",\"S\",\"C\",\"10\"
\"\",\"\",\"approach-retreat\",\"14\",\"166321\",\"0.0-14.0\",\"\",\"\",\"3-1\",\"5198\",\"40\",\"0\",\"Training\",\"Stims/Figures/84-J-0-2.bmp\",\"pa:kata\",\"Up\",\"38\",\"1\",\"11\",\"7\",\"P\",\"C\",\"11\"
\"\",\"\",\"approach-retreat\",\"15\",\"172507\",\"0.0-15.0\",\"\",\"\",\"3-1\",\"4677\",\"38\",\"0\",\"Training\",\"Stims/Figures/71-C-30-1.bmp\",\"pakata\",\"Up\",\"40\",\"1\",\"12\",\"7\",\"P\",\"C\",\"12\"
\"\",\"\",\"approach-retreat\",\"16\",\"178422\",\"0.0-16.0\",\"\",\"\",\"3-1\",\"4406\",\"39\",\"1\",\"Training\",\"Stims/Figures/57-C-30-1.bmp\",\"tapa:ka\",\"Left\",\"39\",\"1\",\"13\",\"7\",\"P\",\"C\",\"13\"
\"\",\"\",\"approach-retreat\",\"17\",\"185715\",\"0.0-17.0\",\"\",\"\",\"3-1\",\"5782\",\"38\",\"0\",\"Training\",\"Stims/Figures/44-C-30-3.bmp\",\"mamana\",\"Up\",\"40\",\"1\",\"14\",\"7\",\"S\",\"C\",\"14\"
\"\",\"\",\"approach-retreat\",\"18\",\"192269\",\"0.0-18.0\",\"\",\"\",\"3-1\",\"5044\",\"38\",\"0\",\"Training\",\"Stims/Figures/71-J-0-1.bmp\",\"ta:kata\",\"Down\",\"40\",\"1\",\"15\",\"7\",\"P\",\"C\",\"15\"
\"\",\"\",\"approach-retreat\",\"19\",\"197796\",\"0.0-19.0\",\"\",\"\",\"3-1\",\"4018\",\"39\",\"1\",\"Training\",\"Stims/Figures/139-J-0-2.bmp\",\"pa:pa:ta\",\"Right\",\"39\",\"1\",\"16\",\"7\",\"P\",\"C\",\"16\"
\"\",\"\",\"approach-retreat\",\"20\",\"203630\",\"0.0-20.0\",\"\",\"\",\"3-1\",\"4324\",\"37\",\"1\",\"Training\",\"Stims/Figures/139-J-0-2.bmp\",\"pa:pa:ta\",\"Left\",\"37\",\"2\",\"1\",\"7\",\"P\",\"C\",\"17\"
\"\",\"\",\"approach-retreat\",\"21\",\"211671\",\"0.0-21.0\",\"\",\"\",\"3-1\",\"6532\",\"37\",\"0\",\"Training\",\"Stims/Figures/84-C-20-2.bmp\",\"papata\",\"Left\",\"39\",\"2\",\"2\",\"7\",\"P\",\"C\",\"18\"
\"\",\"\",\"approach-retreat\",\"22\",\"217580\",\"0.0-22.0\",\"\",\"\",\"3-1\",\"4400\",\"38\",\"1\",\"Training\",\"Stims/Figures/84-J-0-2.bmp\",\"pa:kata\",\"Up\",\"38\",\"2\",\"3\",\"7\",\"P\",\"C\",\"19\"
\"\",\"\",\"approach-retreat\",\"23\",\"223659\",\"0.0-23.0\",\"\",\"\",\"3-1\",\"4569\",\"37\",\"0\",\"Training\",\"Stims/Figures/74-J-10-4.bmp\",\"na:la:la\",\"Right\",\"39\",\"2\",\"4\",\"7\",\"S\",\"C\",\"20\"
\"\",\"\",\"approach-retreat\",\"24\",\"229666\",\"0.0-24.0\",\"\",\"\",\"3-1\",\"4497\",\"38\",\"0\",\"Training\",\"Stims/Figures/74-C-20-4.bmp\",\"nala:na\",\"Up\",\"40\",\"2\",\"5\",\"7\",\"S\",\"C\",\"21\"
\"\",\"\",\"approach-retreat\",\"25\",\"235447\",\"0.0-25.0\",\"\",\"\",\"3-1\",\"4273\",\"40\",\"1\",\"Training\",\"Stims/Figures/87-C-20-4.bmp\",\"na:ma:na\",\"Up\",\"40\",\"2\",\"6\",\"7\",\"S\",\"C\",\"22\"
\"\",\"\",\"approach-retreat\",\"26\",\"241057\",\"0.0-26.0\",\"\",\"\",\"3-1\",\"4101\",\"37\",\"0\",\"Training\",\"Stims/Figures/71-J-0-1.bmp\",\"ta:kata\",\"Right\",\"39\",\"2\",\"7\",\"7\",\"P\",\"C\",\"23\"
\"\",\"\",\"approach-retreat\",\"27\",\"247234\",\"0.0-27.0\",\"\",\"\",\"3-1\",\"4668\",\"38\",\"0\",\"Training\",\"Stims/Figures/44-C-30-3.bmp\",\"mamana\",\"Up\",\"40\",\"2\",\"8\",\"7\",\"S\",\"C\",\"24\"
\"\",\"\",\"approach-retreat\",\"28\",\"253706\",\"0.0-28.0\",\"\",\"\",\"3-1\",\"4960\",\"40\",\"1\",\"Training\",\"Stims/Figures/57-J-0-1.bmp\",\"tapaka\",\"Down\",\"40\",\"2\",\"9\",\"7\",\"P\",\"C\",\"25\"
\"\",\"\",\"approach-retreat\",\"29\",\"260025\",\"0.0-29.0\",\"\",\"\",\"3-1\",\"4811\",\"39\",\"1\",\"Training\",\"Stims/Figures/57-C-30-1.bmp\",\"tapa:ka\",\"Left\",\"39\",\"2\",\"10\",\"7\",\"P\",\"C\",\"26\"
\"\",\"\",\"approach-retreat\",\"30\",\"266369\",\"0.0-30.0\",\"\",\"\",\"3-1\",\"4835\",\"38\",\"0\",\"Training\",\"Stims/Figures/87-J-10-4.bmp\",\"malana\",\"Down\",\"40\",\"2\",\"11\",\"7\",\"S\",\"C\",\"27\"
\"\",\"\",\"approach-retreat\",\"31\",\"272388\",\"0.0-31.0\",\"\",\"\",\"3-1\",\"4509\",\"39\",\"0\",\"Training\",\"Stims/Figures/144-C-30-3.bmp\",\"ma:la:na\",\"Right\",\"37\",\"2\",\"12\",\"7\",\"S\",\"C\",\"28\"
\"\",\"\",\"approach-retreat\",\"32\",\"278680\",\"0.0-32.0\",\"\",\"\",\"3-1\",\"4786\",\"38\",\"0\",\"Training\",\"Stims/Figures/44-J-10-3.bmp\",\"mama:na\",\"Down\",\"40\",\"2\",\"13\",\"7\",\"S\",\"C\",\"29\"
\"\",\"\",\"approach-retreat\",\"33\",\"284776\",\"0.0-33.0\",\"\",\"\",\"3-1\",\"4585\",\"37\",\"1\",\"Training\",\"Stims/Figures/139-C-20-2.bmp\",\"paka:ka\",\"Right\",\"37\",\"2\",\"14\",\"7\",\"P\",\"C\",\"30\"
\"\",\"\",\"approach-retreat\",\"34\",\"290596\",\"0.0-34.0\",\"\",\"\",\"3-1\",\"4310\",\"39\",\"1\",\"Training\",\"Stims/Figures/71-C-30-1.bmp\",\"pakata\",\"Left\",\"39\",\"2\",\"15\",\"7\",\"P\",\"C\",\"31\"
\"\",\"\",\"approach-retreat\",\"35\",\"296478\",\"0.0-35.0\",\"\",\"\",\"3-1\",\"4374\",\"38\",\"0\",\"Training\",\"Stims/Figures/144-J-10-3.bmp\",\"na:la:na\",\"Down\",\"40\",\"2\",\"16\",\"7\",\"S\",\"C\",\"32\"
\"\",\"\",\"approach-retreat\",\"36\",\"302377\",\"0.0-36.0\",\"\",\"\",\"3-1\",\"4390\",\"38\",\"0\",\"Training\",\"Stims/Figures/57-C-30-1.bmp\",\"tapa:ka\",\"Up\",\"40\",\"3\",\"1\",\"7\",\"P\",\"C\",\"33\"
\"\",\"\",\"approach-retreat\",\"37\",\"307898\",\"0.0-37.0\",\"\",\"\",\"3-1\",\"4011\",\"37\",\"1\",\"Training\",\"Stims/Figures/84-J-0-2.bmp\",\"pa:kata\",\"Left\",\"37\",\"3\",\"2\",\"7\",\"P\",\"C\",\"34\"
\"\",\"\",\"approach-retreat\",\"38\",\"314002\",\"0.0-38.0\",\"\",\"\",\"3-1\",\"4593\",\"37\",\"1\",\"Training\",\"Stims/Figures/87-C-20-4.bmp\",\"na:ma:na\",\"Right\",\"37\",\"3\",\"3\",\"7\",\"S\",\"C\",\"35\"
\"\",\"\",\"approach-retreat\",\"39\",\"319991\",\"0.0-39.0\",\"\",\"\",\"3-1\",\"4478\",\"39\",\"0\",\"Training\",\"Stims/Figures/57-J-0-1.bmp\",\"tapaka\",\"Left\",\"37\",\"3\",\"4\",\"7\",\"P\",\"C\",\"36\"
\"\",\"\",\"approach-retreat\",\"40\",\"326200\",\"0.0-40.0\",\"\",\"\",\"3-1\",\"4699\",\"40\",\"1\",\"Training\",\"Stims/Figures/74-J-10-4.bmp\",\"na:la:la\",\"Down\",\"40\",\"3\",\"5\",\"7\",\"S\",\"C\",\"37\"
\"\",\"\",\"approach-retreat\",\"41\",\"332646\",\"0.0-41.0\",\"\",\"\",\"3-1\",\"4937\",\"38\",\"0\",\"Training\",\"Stims/Figures/144-C-30-3.bmp\",\"ma:la:na\",\"Up\",\"40\",\"3\",\"6\",\"7\",\"S\",\"C\",\"38\"
\"\",\"\",\"approach-retreat\",\"42\",\"338604\",\"0.0-42.0\",\"\",\"\",\"3-1\",\"4449\",\"39\",\"0\",\"Training\",\"Stims/Figures/139-C-20-2.bmp\",\"paka:ka\",\"Right\",\"37\",\"3\",\"7\",\"7\",\"P\",\"C\",\"39\"
\"\",\"\",\"approach-retreat\",\"43\",\"344355\",\"0.0-43.0\",\"\",\"\",\"3-1\",\"4242\",\"40\",\"0\",\"Training\",\"Stims/Figures/84-C-20-2.bmp\",\"papata\",\"Down\",\"38\",\"3\",\"8\",\"7\",\"P\",\"C\",\"40\"
\"\",\"\",\"approach-retreat\",\"44\",\"350122\",\"0.0-44.0\",\"\",\"\",\"3-1\",\"4258\",\"38\",\"1\",\"Training\",\"Stims/Figures/44-J-10-3.bmp\",\"mama:na\",\"Up\",\"38\",\"3\",\"9\",\"7\",\"S\",\"C\",\"41\"
\"\",\"\",\"approach-retreat\",\"45\",\"355801\",\"0.0-45.0\",\"\",\"\",\"3-1\",\"4171\",\"37\",\"1\",\"Training\",\"Stims/Figures/71-C-30-1.bmp\",\"pakata\",\"Right\",\"37\",\"3\",\"10\",\"7\",\"P\",\"C\",\"42\"
\"\",\"\",\"approach-retreat\",\"46\",\"361759\",\"0.0-46.0\",\"\",\"\",\"3-1\",\"4449\",\"40\",\"1\",\"Training\",\"Stims/Figures/144-J-10-3.bmp\",\"na:la:na\",\"Down\",\"40\",\"3\",\"11\",\"7\",\"S\",\"C\",\"43\"
\"\",\"\",\"approach-retreat\",\"47\",\"367467\",\"0.0-47.0\",\"\",\"\",\"3-1\",\"4201\",\"38\",\"0\",\"Training\",\"Stims/Figures/74-C-20-4.bmp\",\"nala:na\",\"Up\",\"40\",\"3\",\"12\",\"7\",\"S\",\"C\",\"44\"
\"\",\"\",\"approach-retreat\",\"48\",\"373705\",\"0.0-48.0\",\"\",\"\",\"3-1\",\"4734\",\"40\",\"1\",\"Training\",\"Stims/Figures/71-J-0-1.bmp\",\"ta:kata\",\"Down\",\"40\",\"3\",\"13\",\"7\",\"P\",\"C\",\"45\"
\"\",\"\",\"approach-retreat\",\"49\",\"379635\",\"0.0-49.0\",\"\",\"\",\"3-1\",\"4421\",\"37\",\"0\",\"Training\",\"Stims/Figures/44-C-30-3.bmp\",\"mamana\",\"Left\",\"39\",\"3\",\"14\",\"7\",\"S\",\"C\",\"46\"
\"\",\"\",\"approach-retreat\",\"50\",\"385148\",\"0.0-50.0\",\"\",\"\",\"3-1\",\"4004\",\"39\",\"1\",\"Training\",\"Stims/Figures/139-J-0-2.bmp\",\"pa:pa:ta\",\"Right\",\"39\",\"3\",\"15\",\"7\",\"P\",\"C\",\"47\"
\"\",\"\",\"approach-retreat\",\"51\",\"391028\",\"0.0-51.0\",\"\",\"\",\"3-1\",\"4370\",\"37\",\"1\",\"Training\",\"Stims/Figures/87-J-10-4.bmp\",\"malana\",\"Left\",\"37\",\"3\",\"16\",\"7\",\"S\",\"C\",\"48\"
\"\",\"\",\"approach-retreat\",\"52\",\"396119\",\"0.0-52.0\",\"\",\"\",\"3-1\",\"3581\",\"39\",\"1\",\"Training\",\"Stims/Figures/139-J-0-2.bmp\",\"pa:pa:ta\",\"Right\",\"39\",\"4\",\"1\",\"7\",\"P\",\"C\",\"49\"
\"\",\"\",\"approach-retreat\",\"53\",\"401910\",\"0.0-53.0\",\"\",\"\",\"3-1\",\"4281\",\"37\",\"0\",\"Training\",\"Stims/Figures/71-C-30-1.bmp\",\"pakata\",\"Left\",\"39\",\"4\",\"2\",\"7\",\"P\",\"C\",\"50\"
\"\",\"\",\"approach-retreat\",\"54\",\"408033\",\"0.0-54.0\",\"\",\"\",\"3-1\",\"4615\",\"40\",\"0\",\"Training\",\"Stims/Figures/74-J-10-4.bmp\",\"na:la:la\",\"Up\",\"38\",\"4\",\"3\",\"7\",\"S\",\"C\",\"51\"
\"\",\"\",\"approach-retreat\",\"55\",\"413882\",\"0.0-55.0\",\"\",\"\",\"3-1\",\"4340\",\"37\",\"0\",\"Training\",\"Stims/Figures/144-J-10-3.bmp\",\"na:la:na\",\"Right\",\"39\",\"4\",\"4\",\"7\",\"S\",\"C\",\"52\"
\"\",\"\",\"approach-retreat\",\"56\",\"419724\",\"0.0-56.0\",\"\",\"\",\"3-1\",\"4333\",\"38\",\"1\",\"Training\",\"Stims/Figures/84-J-0-2.bmp\",\"pa:kata\",\"Up\",\"38\",\"4\",\"5\",\"7\",\"P\",\"C\",\"53\"
\"\",\"\",\"approach-retreat\",\"57\",\"426035\",\"0.0-57.0\",\"\",\"\",\"3-1\",\"4800\",\"40\",\"1\",\"Training\",\"Stims/Figures/144-C-30-3.bmp\",\"ma:la:na\",\"Up\",\"40\",\"4\",\"6\",\"7\",\"S\",\"C\",\"54\"
\"\",\"\",\"approach-retreat\",\"58\",\"432446\",\"0.0-58.0\",\"\",\"\",\"3-1\",\"4901\",\"38\",\"1\",\"Training\",\"Stims/Figures/139-C-20-2.bmp\",\"paka:ka\",\"Down\",\"38\",\"4\",\"7\",\"7\",\"P\",\"C\",\"55\"
\"\",\"\",\"approach-retreat\",\"59\",\"439626\",\"0.0-59.0\",\"\",\"\",\"3-1\",\"5670\",\"38\",\"0\",\"Training\",\"Stims/Figures/44-C-30-3.bmp\",\"mamana\",\"Up\",\"40\",\"4\",\"8\",\"7\",\"S\",\"C\",\"56\"
\"\",\"\",\"approach-retreat\",\"60\",\"445277\",\"0.0-60.0\",\"\",\"\",\"3-1\",\"4142\",\"37\",\"1\",\"Training\",\"Stims/Figures/71-J-0-1.bmp\",\"ta:kata\",\"Left\",\"37\",\"4\",\"9\",\"7\",\"P\",\"C\",\"57\"
\"\",\"\",\"approach-retreat\",\"61\",\"451431\",\"0.0-61.0\",\"\",\"\",\"3-1\",\"4645\",\"40\",\"1\",\"Training\",\"Stims/Figures/87-J-10-4.bmp\",\"malana\",\"Down\",\"40\",\"4\",\"10\",\"7\",\"S\",\"C\",\"58\"
\"\",\"\",\"approach-retreat\",\"62\",\"457180\",\"0.0-62.0\",\"\",\"\",\"3-1\",\"4238\",\"39\",\"1\",\"Training\",\"Stims/Figures/84-C-20-2.bmp\",\"papata\",\"Left\",\"39\",\"4\",\"11\",\"7\",\"P\",\"C\",\"59\"
\"\",\"\",\"approach-retreat\",\"63\",\"463252\",\"0.0-63.0\",\"\",\"\",\"3-1\",\"4563\",\"40\",\"1\",\"Training\",\"Stims/Figures/44-J-10-3.bmp\",\"mama:na\",\"Down\",\"40\",\"4\",\"12\",\"7\",\"S\",\"C\",\"60\"
\"\",\"\",\"approach-retreat\",\"64\",\"469115\",\"0.0-64.0\",\"\",\"\",\"3-1\",\"4354\",\"37\",\"0\",\"Training\",\"Stims/Figures/57-J-0-1.bmp\",\"tapaka\",\"Right\",\"39\",\"4\",\"13\",\"7\",\"P\",\"C\",\"61\"
\"\",\"\",\"approach-retreat\",\"65\",\"474997\",\"0.0-65.0\",\"\",\"\",\"3-1\",\"4373\",\"39\",\"1\",\"Training\",\"Stims/Figures/57-C-30-1.bmp\",\"tapa:ka\",\"Left\",\"39\",\"4\",\"14\",\"7\",\"P\",\"C\",\"62\"
\"\",\"\",\"approach-retreat\",\"66\",\"481177\",\"0.0-66.0\",\"\",\"\",\"3-1\",\"4672\",\"40\",\"0\",\"Training\",\"Stims/Figures/74-C-20-4.bmp\",\"nala:na\",\"Down\",\"38\",\"4\",\"15\",\"7\",\"S\",\"C\",\"63\"
\"\",\"\",\"approach-retreat\",\"67\",\"486744\",\"0.0-67.0\",\"\",\"\",\"3-1\",\"4057\",\"37\",\"1\",\"Training\",\"Stims/Figures/87-C-20-4.bmp\",\"na:ma:na\",\"Right\",\"37\",\"4\",\"16\",\"7\",\"S\",\"C\",\"64\"
\"\",\"\",\"approach-retreat\",\"68\",\"492612\",\"0.0-68.0\",\"\",\"\",\"3-1\",\"4356\",\"38\",\"1\",\"Training\",\"Stims/Figures/57-C-30-1.bmp\",\"tapa:ka\",\"Down\",\"38\",\"5\",\"1\",\"7\",\"P\",\"C\",\"65\"
\"\",\"\",\"approach-retreat\",\"69\",\"498568\",\"0.0-69.0\",\"\",\"\",\"3-1\",\"4447\",\"38\",\"1\",\"Training\",\"Stims/Figures/84-J-0-2.bmp\",\"pa:kata\",\"Up\",\"38\",\"5\",\"2\",\"7\",\"P\",\"C\",\"66\"
\"\",\"\",\"approach-retreat\",\"70\",\"505155\",\"0.0-70.0\",\"\",\"\",\"3-1\",\"5077\",\"37\",\"0\",\"Training\",\"Stims/Figures/87-J-10-4.bmp\",\"malana\",\"Right\",\"39\",\"5\",\"3\",\"7\",\"S\",\"C\",\"67\"
\"\",\"\",\"approach-retreat\",\"71\",\"511552\",\"0.0-71.0\",\"\",\"\",\"3-1\",\"4888\",\"39\",\"0\",\"Training\",\"Stims/Figures/139-C-20-2.bmp\",\"paka:ka\",\"Right\",\"37\",\"5\",\"4\",\"7\",\"P\",\"C\",\"68\"
\"\",\"\",\"approach-retreat\",\"72\",\"520628\",\"0.0-72.0\",\"\",\"\",\"3-1\",\"7567\",\"38\",\"1\",\"Training\",\"Stims/Figures/44-J-10-3.bmp\",\"mama:na\",\"Up\",\"38\",\"5\",\"5\",\"7\",\"S\",\"C\",\"69\"
\"\",\"\",\"approach-retreat\",\"73\",\"526411\",\"0.0-73.0\",\"\",\"\",\"3-1\",\"4273\",\"37\",\"1\",\"Training\",\"Stims/Figures/74-J-10-4.bmp\",\"na:la:la\",\"Left\",\"37\",\"5\",\"6\",\"7\",\"S\",\"C\",\"70\"
\"\",\"\",\"approach-retreat\",\"74\",\"532093\",\"0.0-74.0\",\"\",\"\",\"3-1\",\"4172\",\"37\",\"1\",\"Training\",\"Stims/Figures/57-J-0-1.bmp\",\"tapaka\",\"Left\",\"37\",\"5\",\"7\",\"7\",\"P\",\"C\",\"71\"
\"\",\"\",\"approach-retreat\",\"75\",\"538267\",\"0.0-75.0\",\"\",\"\",\"3-1\",\"4665\",\"38\",\"1\",\"Training\",\"Stims/Figures/87-C-20-4.bmp\",\"na:ma:na\",\"Down\",\"38\",\"5\",\"8\",\"7\",\"S\",\"C\",\"72\"
\"\",\"\",\"approach-retreat\",\"76\",\"544051\",\"0.0-76.0\",\"\",\"\",\"3-1\",\"4274\",\"39\",\"0\",\"Training\",\"Stims/Figures/84-C-20-2.bmp\",\"papata\",\"Right\",\"37\",\"5\",\"9\",\"7\",\"P\",\"C\",\"73\"
\"\",\"\",\"approach-retreat\",\"77\",\"550370\",\"0.0-77.0\",\"\",\"\",\"3-1\",\"4815\",\"40\",\"0\",\"Training\",\"Stims/Figures/74-C-20-4.bmp\",\"nala:na\",\"Down\",\"38\",\"5\",\"10\",\"7\",\"S\",\"C\",\"74\"
\"\",\"\",\"approach-retreat\",\"78\",\"555981\",\"0.0-78.0\",\"\",\"\",\"3-1\",\"4102\",\"38\",\"0\",\"Training\",\"Stims/Figures/44-C-30-3.bmp\",\"mamana\",\"Up\",\"40\",\"5\",\"11\",\"7\",\"S\",\"C\",\"75\"
\"\",\"\",\"approach-retreat\",\"79\",\"562118\",\"0.0-79.0\",\"\",\"\",\"3-1\",\"4628\",\"40\",\"1\",\"Training\",\"Stims/Figures/139-J-0-2.bmp\",\"pa:pa:ta\",\"Down\",\"40\",\"5\",\"12\",\"7\",\"P\",\"C\",\"76\"
\"\",\"\",\"approach-retreat\",\"80\",\"568381\",\"0.0-80.0\",\"\",\"\",\"3-1\",\"4753\",\"40\",\"1\",\"Training\",\"Stims/Figures/71-C-30-1.bmp\",\"pakata\",\"Up\",\"40\",\"5\",\"13\",\"7\",\"P\",\"C\",\"77\"
\"\",\"\",\"approach-retreat\",\"81\",\"574353\",\"0.0-81.0\",\"\",\"\",\"3-1\",\"4463\",\"39\",\"0\",\"Training\",\"Stims/Figures/144-C-30-3.bmp\",\"ma:la:na\",\"Right\",\"37\",\"5\",\"14\",\"7\",\"S\",\"C\",\"78\"
\"\",\"\",\"approach-retreat\",\"82\",\"580088\",\"0.0-82.0\",\"\",\"\",\"3-1\",\"4225\",\"37\",\"1\",\"Training\",\"Stims/Figures/144-J-10-3.bmp\",\"na:la:na\",\"Left\",\"37\",\"5\",\"15\",\"7\",\"S\",\"C\",\"79\"
\"\",\"\",\"approach-retreat\",\"83\",\"586259\",\"0.0-83.0\",\"\",\"\",\"3-1\",\"4661\",\"37\",\"1\",\"Training\",\"Stims/Figures/71-J-0-1.bmp\",\"ta:kata\",\"Left\",\"37\",\"5\",\"16\",\"7\",\"P\",\"C\",\"80\"
\"\",\"\",\"approach-retreat\",\"84\",\"592331\",\"0.0-84.0\",\"\",\"\",\"3-1\",\"4562\",\"40\",\"1\",\"Training\",\"Stims/Figures/87-J-10-4.bmp\",\"malana\",\"Down\",\"40\",\"6\",\"1\",\"7\",\"S\",\"C\",\"81\"
\"\",\"\",\"approach-retreat\",\"85\",\"598023\",\"0.0-85.0\",\"\",\"\",\"3-1\",\"4182\",\"39\",\"0\",\"Training\",\"Stims/Figures/87-C-20-4.bmp\",\"na:ma:na\",\"Right\",\"37\",\"6\",\"2\",\"7\",\"S\",\"C\",\"82\"
\"\",\"\",\"approach-retreat\",\"86\",\"603668\",\"0.0-86.0\",\"\",\"\",\"3-1\",\"4134\",\"37\",\"1\",\"Training\",\"Stims/Figures/71-J-0-1.bmp\",\"ta:kata\",\"Left\",\"37\",\"6\",\"3\",\"7\",\"P\",\"C\",\"83\"
\"\",\"\",\"approach-retreat\",\"87\",\"609313\",\"0.0-87.0\",\"\",\"\",\"3-1\",\"4136\",\"38\",\"1\",\"Training\",\"Stims/Figures/74-J-10-4.bmp\",\"na:la:la\",\"Up\",\"38\",\"6\",\"4\",\"7\",\"S\",\"C\",\"84\"
\"\",\"\",\"approach-retreat\",\"88\",\"615356\",\"0.0-88.0\",\"\",\"\",\"3-1\",\"4534\",\"40\",\"1\",\"Training\",\"Stims/Figures/44-C-30-3.bmp\",\"mamana\",\"Up\",\"40\",\"6\",\"5\",\"7\",\"S\",\"C\",\"85\"
\"\",\"\",\"approach-retreat\",\"89\",\"621346\",\"0.0-89.0\",\"\",\"\",\"3-1\",\"4481\",\"39\",\"1\",\"Training\",\"Stims/Figures/139-J-0-2.bmp\",\"pa:pa:ta\",\"Right\",\"39\",\"6\",\"6\",\"7\",\"P\",\"C\",\"86\"
\"\",\"\",\"approach-retreat\",\"90\",\"627561\",\"0.0-90.0\",\"\",\"\",\"3-1\",\"4712\",\"40\",\"1\",\"Training\",\"Stims/Figures/57-J-0-1.bmp\",\"tapaka\",\"Down\",\"40\",\"6\",\"7\",\"7\",\"P\",\"C\",\"87\"
\"\",\"\",\"approach-retreat\",\"91\",\"633211\",\"0.0-91.0\",\"\",\"\",\"3-1\",\"4143\",\"37\",\"0\",\"Training\",\"Stims/Figures/71-C-30-1.bmp\",\"pakata\",\"Left\",\"39\",\"6\",\"8\",\"7\",\"P\",\"C\",\"88\"
\"\",\"\",\"approach-retreat\",\"92\",\"640214\",\"0.0-92.0\",\"\",\"\",\"3-1\",\"5493\",\"37\",\"0\",\"Training\",\"Stims/Figures/144-C-30-3.bmp\",\"ma:la:na\",\"Left\",\"39\",\"6\",\"9\",\"7\",\"S\",\"C\",\"89\"
\"\",\"\",\"approach-retreat\",\"93\",\"645889\",\"0.0-93.0\",\"\",\"\",\"3-1\",\"4167\",\"40\",\"0\",\"Training\",\"Stims/Figures/139-C-20-2.bmp\",\"paka:ka\",\"Down\",\"38\",\"6\",\"10\",\"7\",\"P\",\"C\",\"90\"
\"\",\"\",\"approach-retreat\",\"94\",\"652028\",\"0.0-94.0\",\"\",\"\",\"3-1\",\"4632\",\"39\",\"0\",\"Training\",\"Stims/Figures/57-C-30-1.bmp\",\"tapa:ka\",\"Right\",\"37\",\"6\",\"11\",\"7\",\"P\",\"C\",\"91\"
\"\",\"\",\"approach-retreat\",\"95\",\"657806\",\"0.0-95.0\",\"\",\"\",\"3-1\",\"4268\",\"38\",\"1\",\"Training\",\"Stims/Figures/44-J-10-3.bmp\",\"mama:na\",\"Up\",\"38\",\"6\",\"12\",\"7\",\"S\",\"C\",\"92\"
\"\",\"\",\"approach-retreat\",\"96\",\"663677\",\"0.0-96.0\",\"\",\"\",\"3-1\",\"4361\",\"40\",\"0\",\"Training\",\"Stims/Figures/144-J-10-3.bmp\",\"na:la:na\",\"Up\",\"38\",\"6\",\"13\",\"7\",\"S\",\"C\",\"93\"
\"\",\"\",\"approach-retreat\",\"97\",\"670065\",\"0.0-97.0\",\"\",\"\",\"3-1\",\"4880\",\"39\",\"1\",\"Training\",\"Stims/Figures/84-C-20-2.bmp\",\"papata\",\"Left\",\"39\",\"6\",\"14\",\"7\",\"P\",\"C\",\"94\"
\"\",\"\",\"approach-retreat\",\"98\",\"676048\",\"0.0-98.0\",\"\",\"\",\"3-1\",\"4475\",\"37\",\"0\",\"Training\",\"Stims/Figures/84-J-0-2.bmp\",\"pa:kata\",\"Right\",\"39\",\"6\",\"15\",\"7\",\"P\",\"C\",\"95\"
\"\",\"\",\"approach-retreat\",\"99\",\"682058\",\"0.0-99.0\",\"\",\"\",\"3-1\",\"4502\",\"40\",\"0\",\"Training\",\"Stims/Figures/74-C-20-4.bmp\",\"nala:na\",\"Down\",\"38\",\"6\",\"16\",\"7\",\"S\",\"C\",\"96\"
\"\",\"\",\"approach-retreat\",\"100\",\"687808\",\"0.0-100.0\",\"\",\"\",\"3-1\",\"4240\",\"37\",\"1\",\"Training\",\"Stims/Figures/84-J-0-2.bmp\",\"pa:kata\",\"Left\",\"37\",\"7\",\"1\",\"7\",\"P\",\"C\",\"97\"
\"\",\"\",\"approach-retreat\",\"101\",\"693753\",\"0.0-101.0\",\"\",\"\",\"3-1\",\"4435\",\"38\",\"0\",\"Training\",\"Stims/Figures/71-C-30-1.bmp\",\"pakata\",\"Up\",\"40\",\"7\",\"2\",\"7\",\"P\",\"C\",\"98\"
\"\",\"\",\"approach-retreat\",\"102\",\"699842\",\"0.0-102.0\",\"\",\"\",\"3-1\",\"4580\",\"39\",\"1\",\"Training\",\"Stims/Figures/144-J-10-3.bmp\",\"na:la:na\",\"Right\",\"39\",\"7\",\"3\",\"7\",\"S\",\"C\",\"99\"
\"\",\"\",\"approach-retreat\",\"103\",\"705506\",\"0.0-103.0\",\"\",\"\",\"3-1\",\"4152\",\"40\",\"0\",\"Training\",\"Stims/Figures/139-J-0-2.bmp\",\"pa:pa:ta\",\"Up\",\"38\",\"7\",\"4\",\"7\",\"P\",\"C\",\"100\"
\"\",\"\",\"approach-retreat\",\"104\",\"711435\",\"0.0-104.0\",\"\",\"\",\"3-1\",\"4419\",\"38\",\"0\",\"Training\",\"Stims/Figures/84-C-20-2.bmp\",\"papata\",\"Up\",\"40\",\"7\",\"5\",\"7\",\"P\",\"C\",\"101\"
\"\",\"\",\"approach-retreat\",\"105\",\"717377\",\"0.0-105.0\",\"\",\"\",\"3-1\",\"4434\",\"40\",\"1\",\"Training\",\"Stims/Figures/57-J-0-1.bmp\",\"tapaka\",\"Down\",\"40\",\"7\",\"6\",\"7\",\"P\",\"C\",\"102\"
\"\",\"\",\"approach-retreat\",\"106\",\"723901\",\"0.0-106.0\",\"\",\"\",\"3-1\",\"5015\",\"40\",\"1\",\"Training\",\"Stims/Figures/87-J-10-4.bmp\",\"malana\",\"Down\",\"40\",\"7\",\"7\",\"7\",\"S\",\"C\",\"103\"
\"\",\"\",\"approach-retreat\",\"107\",\"730315\",\"0.0-107.0\",\"\",\"\",\"3-1\",\"4904\",\"37\",\"0\",\"Training\",\"Stims/Figures/44-C-30-3.bmp\",\"mamana\",\"Left\",\"39\",\"7\",\"8\",\"7\",\"S\",\"C\",\"104\"
\"\",\"\",\"approach-retreat\",\"108\",\"736708\",\"0.0-108.0\",\"\",\"\",\"3-1\",\"4885\",\"38\",\"1\",\"Training\",\"Stims/Figures/44-J-10-3.bmp\",\"mama:na\",\"Up\",\"38\",\"7\",\"9\",\"7\",\"S\",\"C\",\"105\"
\"\",\"\",\"approach-retreat\",\"109\",\"743184\",\"0.0-109.0\",\"\",\"\",\"3-1\",\"4966\",\"39\",\"1\",\"Training\",\"Stims/Figures/144-C-30-3.bmp\",\"ma:la:na\",\"Left\",\"39\",\"7\",\"10\",\"7\",\"S\",\"C\",\"106\"
\"\",\"\",\"approach-retreat\",\"110\",\"749299\",\"0.0-110.0\",\"\",\"\",\"3-1\",\"4605\",\"39\",\"1\",\"Training\",\"Stims/Figures/87-C-20-4.bmp\",\"na:ma:na\",\"Left\",\"39\",\"7\",\"11\",\"7\",\"S\",\"C\",\"107\"
\"\",\"\",\"approach-retreat\",\"111\",\"755204\",\"0.0-111.0\",\"\",\"\",\"3-1\",\"4395\",\"40\",\"1\",\"Training\",\"Stims/Figures/74-J-10-4.bmp\",\"na:la:la\",\"Down\",\"40\",\"7\",\"12\",\"7\",\"S\",\"C\",\"108\"
\"\",\"\",\"approach-retreat\",\"112\",\"761188\",\"0.0-112.0\",\"\",\"\",\"3-1\",\"4472\",\"40\",\"0\",\"Training\",\"Stims/Figures/139-C-20-2.bmp\",\"paka:ka\",\"Down\",\"38\",\"7\",\"13\",\"7\",\"P\",\"C\",\"109\"
\"\",\"\",\"approach-retreat\",\"113\",\"767345\",\"0.0-113.0\",\"\",\"\",\"3-1\",\"4654\",\"39\",\"0\",\"Training\",\"Stims/Figures/74-C-20-4.bmp\",\"nala:na\",\"Right\",\"37\",\"7\",\"14\",\"7\",\"S\",\"C\",\"110\"
\"\",\"\",\"approach-retreat\",\"114\",\"773274\",\"0.0-114.0\",\"\",\"\",\"3-1\",\"4418\",\"37\",\"0\",\"Training\",\"Stims/Figures/71-J-0-1.bmp\",\"ta:kata\",\"Right\",\"39\",\"7\",\"15\",\"7\",\"P\",\"C\",\"111\"
\"\",\"\",\"approach-retreat\",\"115\",\"779157\",\"0.0-115.0\",\"\",\"\",\"3-1\",\"4372\",\"39\",\"0\",\"Training\",\"Stims/Figures/57-C-30-1.bmp\",\"tapa:ka\",\"Right\",\"37\",\"7\",\"16\",\"7\",\"P\",\"C\",\"112\"
\"\",\"\",\"approach-retreat\",\"116\",\"785337\",\"0.0-116.0\",\"\",\"\",\"3-1\",\"4670\",\"40\",\"0\",\"Training\",\"Stims/Figures/87-C-20-4.bmp\",\"na:ma:na\",\"Down\",\"38\",\"8\",\"1\",\"7\",\"S\",\"C\",\"113\"
\"\",\"\",\"approach-retreat\",\"117\",\"791247\",\"0.0-117.0\",\"\",\"\",\"3-1\",\"4402\",\"37\",\"1\",\"Training\",\"Stims/Figures/87-J-10-4.bmp\",\"malana\",\"Left\",\"37\",\"8\",\"2\",\"7\",\"S\",\"C\",\"114\"
\"\",\"\",\"approach-retreat\",\"118\",\"797621\",\"0.0-118.0\",\"\",\"\",\"3-1\",\"4865\",\"39\",\"1\",\"Training\",\"Stims/Figures/139-J-0-2.bmp\",\"pa:pa:ta\",\"Right\",\"39\",\"8\",\"3\",\"7\",\"P\",\"C\",\"115\"
\"\",\"\",\"approach-retreat\",\"119\",\"803363\",\"0.0-119.0\",\"\",\"\",\"3-1\",\"4231\",\"37\",\"1\",\"Training\",\"Stims/Figures/139-C-20-2.bmp\",\"paka:ka\",\"Right\",\"37\",\"8\",\"4\",\"7\",\"P\",\"C\",\"116\"
\"\",\"\",\"approach-retreat\",\"120\",\"809486\",\"0.0-120.0\",\"\",\"\",\"3-1\",\"4613\",\"38\",\"1\",\"Training\",\"Stims/Figures/84-C-20-2.bmp\",\"papata\",\"Down\",\"38\",\"8\",\"5\",\"7\",\"P\",\"C\",\"117\"
\"\",\"\",\"approach-retreat\",\"121\",\"816169\",\"0.0-121.0\",\"\",\"\",\"3-1\",\"5172\",\"39\",\"1\",\"Training\",\"Stims/Figures/144-C-30-3.bmp\",\"ma:la:na\",\"Left\",\"39\",\"8\",\"6\",\"7\",\"S\",\"C\",\"118\"
\"\",\"\",\"approach-retreat\",\"122\",\"822505\",\"0.0-122.0\",\"\",\"\",\"3-1\",\"4825\",\"38\",\"1\",\"Training\",\"Stims/Figures/57-C-30-1.bmp\",\"tapa:ka\",\"Down\",\"38\",\"8\",\"7\",\"7\",\"P\",\"C\",\"119\"
\"\",\"\",\"approach-retreat\",\"123\",\"828673\",\"0.0-123.0\",\"\",\"\",\"3-1\",\"4658\",\"37\",\"0\",\"Training\",\"Stims/Figures/44-J-10-3.bmp\",\"mama:na\",\"Right\",\"39\",\"8\",\"8\",\"7\",\"S\",\"C\",\"120\"
\"\",\"\",\"approach-retreat\",\"124\",\"835125\",\"0.0-124.0\",\"\",\"\",\"3-1\",\"4943\",\"39\",\"1\",\"Training\",\"Stims/Figures/74-C-20-4.bmp\",\"nala:na\",\"Left\",\"39\",\"8\",\"9\",\"7\",\"S\",\"C\",\"121\"
\"\",\"\",\"approach-retreat\",\"125\",\"841822\",\"0.0-125.0\",\"\",\"\",\"3-1\",\"5188\",\"37\",\"0\",\"Training\",\"Stims/Figures/144-J-10-3.bmp\",\"na:la:na\",\"Right\",\"39\",\"8\",\"10\",\"7\",\"S\",\"C\",\"122\"
\"\",\"\",\"approach-retreat\",\"126\",\"848090\",\"0.0-126.0\",\"\",\"\",\"3-1\",\"4759\",\"38\",\"0\",\"Training\",\"Stims/Figures/44-C-30-3.bmp\",\"mamana\",\"Up\",\"40\",\"8\",\"11\",\"7\",\"S\",\"C\",\"123\"
\"\",\"\",\"approach-retreat\",\"127\",\"854446\",\"0.0-127.0\",\"\",\"\",\"3-1\",\"4846\",\"40\",\"1\",\"Training\",\"Stims/Figures/57-J-0-1.bmp\",\"tapaka\",\"Down\",\"40\",\"8\",\"12\",\"7\",\"P\",\"C\",\"124\"
\"\",\"\",\"approach-retreat\",\"128\",\"860478\",\"0.0-128.0\",\"\",\"\",\"3-1\",\"4524\",\"40\",\"0\",\"Training\",\"Stims/Figures/74-J-10-4.bmp\",\"na:la:la\",\"Up\",\"38\",\"8\",\"13\",\"7\",\"S\",\"C\",\"125\"
\"\",\"\",\"approach-retreat\",\"129\",\"866171\",\"0.0-129.0\",\"\",\"\",\"3-1\",\"4183\",\"38\",\"0\",\"Training\",\"Stims/Figures/71-C-30-1.bmp\",\"pakata\",\"Up\",\"40\",\"8\",\"14\",\"7\",\"P\",\"C\",\"126\"
\"\",\"\",\"approach-retreat\",\"130\",\"872042\",\"0.0-130.0\",\"\",\"\",\"3-1\",\"4362\",\"39\",\"0\",\"Training\",\"Stims/Figures/84-J-0-2.bmp\",\"pa:kata\",\"Left\",\"37\",\"8\",\"15\",\"7\",\"P\",\"C\",\"127\"
\"\",\"\",\"approach-retreat\",\"131\",\"878023\",\"0.0-131.0\",\"\",\"\",\"3-1\",\"4472\",\"40\",\"0\",\"Training\",\"Stims/Figures/71-J-0-1.bmp\",\"ta:kata\",\"Up\",\"38\",\"8\",\"16\",\"7\",\"P\",\"C\",\"128\"
\"\",\"\",\"approach-retreat\",\"132\",\"883557\",\"0.0-132.0\",\"\",\"\",\"3-1\",\"4025\",\"38\",\"1\",\"Training\",\"Stims/Figures/74-J-10-4.bmp\",\"na:la:la\",\"Up\",\"38\",\"9\",\"1\",\"7\",\"S\",\"C\",\"129\"
\"\",\"\",\"approach-retreat\",\"133\",\"889689\",\"0.0-133.0\",\"\",\"\",\"3-1\",\"4628\",\"37\",\"1\",\"Training\",\"Stims/Figures/84-C-20-2.bmp\",\"papata\",\"Right\",\"37\",\"9\",\"2\",\"7\",\"P\",\"C\",\"130\"
\"\",\"\",\"approach-retreat\",\"134\",\"895569\",\"0.0-134.0\",\"\",\"\",\"3-1\",\"4367\",\"37\",\"1\",\"Training\",\"Stims/Figures/71-C-30-1.bmp\",\"pakata\",\"Right\",\"37\",\"9\",\"3\",\"7\",\"P\",\"C\",\"131\"
\"\",\"\",\"approach-retreat\",\"135\",\"902255\",\"0.0-135.0\",\"\",\"\",\"3-1\",\"5175\",\"39\",\"0\",\"Training\",\"Stims/Figures/87-J-10-4.bmp\",\"malana\",\"Left\",\"37\",\"9\",\"4\",\"7\",\"S\",\"C\",\"132\"
\"\",\"\",\"approach-retreat\",\"136\",\"908667\",\"0.0-136.0\",\"\",\"\",\"3-1\",\"4903\",\"38\",\"0\",\"Training\",\"Stims/Figures/74-C-20-4.bmp\",\"nala:na\",\"Up\",\"40\",\"9\",\"5\",\"7\",\"S\",\"C\",\"133\"
\"\",\"\",\"approach-retreat\",\"137\",\"914681\",\"0.0-137.0\",\"\",\"\",\"3-1\",\"4503\",\"40\",\"1\",\"Training\",\"Stims/Figures/57-C-30-1.bmp\",\"tapa:ka\",\"Up\",\"40\",\"9\",\"6\",\"7\",\"P\",\"C\",\"134\"
\"\",\"\",\"approach-retreat\",\"138\",\"920763\",\"0.0-138.0\",\"\",\"\",\"3-1\",\"4572\",\"40\",\"1\",\"Training\",\"Stims/Figures/57-J-0-1.bmp\",\"tapaka\",\"Down\",\"40\",\"9\",\"7\",\"7\",\"P\",\"C\",\"135\"
\"\",\"\",\"approach-retreat\",\"139\",\"926958\",\"0.0-139.0\",\"\",\"\",\"3-1\",\"4686\",\"40\",\"1\",\"Training\",\"Stims/Figures/144-C-30-3.bmp\",\"ma:la:na\",\"Up\",\"40\",\"9\",\"8\",\"7\",\"S\",\"C\",\"136\"
\"\",\"\",\"approach-retreat\",\"140\",\"932639\",\"0.0-140.0\",\"\",\"\",\"3-1\",\"4170\",\"40\",\"1\",\"Training\",\"Stims/Figures/139-J-0-2.bmp\",\"pa:pa:ta\",\"Down\",\"40\",\"9\",\"9\",\"7\",\"P\",\"C\",\"137\"
\"\",\"\",\"approach-retreat\",\"141\",\"938563\",\"0.0-141.0\",\"\",\"\",\"3-1\",\"4415\",\"37\",\"0\",\"Training\",\"Stims/Figures/44-C-30-3.bmp\",\"mamana\",\"Left\",\"39\",\"9\",\"10\",\"7\",\"S\",\"C\",\"138\"
\"\",\"\",\"approach-retreat\",\"142\",\"944962\",\"0.0-142.0\",\"\",\"\",\"3-1\",\"4890\",\"39\",\"0\",\"Training\",\"Stims/Figures/87-C-20-4.bmp\",\"na:ma:na\",\"Right\",\"37\",\"9\",\"11\",\"7\",\"S\",\"C\",\"139\"
\"\",\"\",\"approach-retreat\",\"143\",\"950807\",\"0.0-143.0\",\"\",\"\",\"3-1\",\"4336\",\"37\",\"0\",\"Training\",\"Stims/Figures/71-J-0-1.bmp\",\"ta:kata\",\"Right\",\"39\",\"9\",\"12\",\"7\",\"P\",\"C\",\"140\"
\"\",\"\",\"approach-retreat\",\"144\",\"956771\",\"0.0-144.0\",\"\",\"\",\"3-1\",\"4454\",\"39\",\"0\",\"Training\",\"Stims/Figures/84-J-0-2.bmp\",\"pa:kata\",\"Left\",\"37\",\"9\",\"13\",\"7\",\"P\",\"C\",\"141\"
\"\",\"\",\"approach-retreat\",\"145\",\"962862\",\"0.0-145.0\",\"\",\"\",\"3-1\",\"4581\",\"40\",\"1\",\"Training\",\"Stims/Figures/144-J-10-3.bmp\",\"na:la:na\",\"Down\",\"40\",\"9\",\"14\",\"7\",\"S\",\"C\",\"142\"
\"\",\"\",\"approach-retreat\",\"146\",\"968788\",\"0.0-146.0\",\"\",\"\",\"3-1\",\"4417\",\"38\",\"0\",\"Training\",\"Stims/Figures/44-J-10-3.bmp\",\"mama:na\",\"Down\",\"40\",\"9\",\"15\",\"7\",\"S\",\"C\",\"143\"
\"\",\"\",\"approach-retreat\",\"147\",\"974665\",\"0.0-147.0\",\"\",\"\",\"3-1\",\"4368\",\"37\",\"0\",\"Training\",\"Stims/Figures/139-C-20-2.bmp\",\"paka:ka\",\"Left\",\"39\",\"9\",\"16\",\"7\",\"P\",\"C\",\"144\"
\"6022\",\"\",\"instructions\",\"148\",\"980688\",\"0.0-148.0\",\"[{\"\"page_index\"\":0,\"\"viewing_time\"\":6022}]\",\"\",\"\",\"\",\"\",\"\",\"\",\"\",\"\",\"\",\"\",\"\",\"\",\"\",\"\",\"\",\"\"
\"\",\"\",\"approach-retreat\",\"149\",\"987000\",\"0.0-149.0\",\"\",\"\",\"3-1\",\"4806\",\"39\",\"1\",\"Testing\",\"Stims/Figures/71-J-0-1.bmp\",\"ta:kata\",\"Right\",\"39\",\"1\",\"1\",\"7\",\"P\",\"C\",\"1\"
\"\",\"\",\"approach-retreat\",\"150\",\"992556\",\"0.0-150.0\",\"\",\"\",\"3-1\",\"4047\",\"37\",\"0\",\"Testing\",\"Stims/Figures/84-C-20-2.bmp\",\"papata\",\"Left\",\"39\",\"1\",\"2\",\"7\",\"P\",\"C\",\"2\"
\"\",\"\",\"approach-retreat\",\"151\",\"998516\",\"0.0-151.0\",\"\",\"\",\"3-1\",\"4452\",\"40\",\"0\",\"Testing\",\"Stims/Figures/144-C-30-3.bmp\",\"ma:la:na\",\"Down\",\"38\",\"1\",\"3\",\"7\",\"S\",\"C\",\"3\"
\"\",\"\",\"approach-retreat\",\"152\",\"1004583\",\"0.0-152.0\",\"\",\"\",\"3-1\",\"4559\",\"39\",\"0\",\"Testing\",\"Stims/Figures/85-J-0-2.bmp\",\"ta:paka\",\"Left\",\"37\",\"1\",\"4\",\"7\",\"P\",\"C\",\"4\"
\"\",\"\",\"approach-retreat\",\"153\",\"1010538\",\"0.0-153.0\",\"\",\"\",\"3-1\",\"4446\",\"37\",\"0\",\"Testing\",\"Stims/Figures/84-J-0-2.bmp\",\"pa:kata\",\"Right\",\"39\",\"1\",\"5\",\"7\",\"P\",\"C\",\"5\"
\"\",\"\",\"approach-retreat\",\"154\",\"1016443\",\"0.0-154.0\",\"\",\"\",\"3-1\",\"4397\",\"38\",\"1\",\"Testing\",\"Stims/Figures/44-J-10-3.bmp\",\"mama:na\",\"Up\",\"38\",\"1\",\"6\",\"7\",\"S\",\"C\",\"6\"
\"\",\"\",\"approach-retreat\",\"155\",\"1022301\",\"0.0-155.0\",\"\",\"\",\"3-1\",\"4351\",\"40\",\"1\",\"Testing\",\"Stims/Figures/85-C-20-2.bmp\",\"takata\",\"Up\",\"40\",\"1\",\"7\",\"7\",\"P\",\"C\",\"7\"
\"\",\"\",\"approach-retreat\",\"156\",\"1028275\",\"0.0-156.0\",\"\",\"\",\"3-1\",\"4466\",\"39\",\"0\",\"Testing\",\"Stims/Figures/74-C-20-4.bmp\",\"nala:na\",\"Right\",\"37\",\"1\",\"8\",\"7\",\"S\",\"C\",\"8\"
\"\",\"\",\"approach-retreat\",\"157\",\"1034292\",\"0.0-157.0\",\"\",\"\",\"3-1\",\"4508\",\"40\",\"1\",\"Testing\",\"Stims/Figures/86-J-0-1.bmp\",\"papa:ta\",\"Down\",\"40\",\"1\",\"9\",\"7\",\"P\",\"C\",\"9\"
\"\",\"\",\"approach-retreat\",\"158\",\"1040239\",\"0.0-158.0\",\"\",\"\",\"3-1\",\"4439\",\"38\",\"0\",\"Testing\",\"Stims/Figures/139-C-20-2.bmp\",\"paka:ka\",\"Up\",\"40\",\"1\",\"10\",\"7\",\"P\",\"C\",\"10\"
\"\",\"\",\"approach-retreat\",\"159\",\"1046092\",\"0.0-159.0\",\"\",\"\",\"3-1\",\"4340\",\"37\",\"1\",\"Testing\",\"Stims/Figures/57-C-30-1.bmp\",\"tapa:ka\",\"Right\",\"37\",\"1\",\"11\",\"7\",\"P\",\"C\",\"11\"
\"\",\"\",\"approach-retreat\",\"160\",\"1052041\",\"0.0-160.0\",\"\",\"\",\"3-1\",\"4441\",\"39\",\"0\",\"Testing\",\"Stims/Figures/139-J-0-2.bmp\",\"pa:pa:ta\",\"Left\",\"37\",\"1\",\"12\",\"7\",\"P\",\"C\",\"12\"
\"\",\"\",\"approach-retreat\",\"161\",\"1057899\",\"0.0-161.0\",\"\",\"\",\"3-1\",\"4350\",\"37\",\"1\",\"Testing\",\"Stims/Figures/44-C-30-3.bmp\",\"mamana\",\"Right\",\"37\",\"1\",\"13\",\"7\",\"S\",\"C\",\"13\"
\"\",\"\",\"approach-retreat\",\"162\",\"1063849\",\"0.0-162.0\",\"\",\"\",\"3-1\",\"4442\",\"39\",\"0\",\"Testing\",\"Stims/Figures/71-C-30-1.bmp\",\"pakata\",\"Right\",\"37\",\"1\",\"14\",\"7\",\"P\",\"C\",\"14\"
\"\",\"\",\"approach-retreat\",\"163\",\"1069825\",\"0.0-163.0\",\"\",\"\",\"3-1\",\"4468\",\"37\",\"1\",\"Testing\",\"Stims/Figures/74-J-10-4.bmp\",\"na:la:la\",\"Left\",\"37\",\"1\",\"15\",\"7\",\"S\",\"C\",\"15\"
\"\",\"\",\"approach-retreat\",\"164\",\"1076527\",\"0.0-164.0\",\"\",\"\",\"3-1\",\"5193\",\"38\",\"0\",\"Testing\",\"Stims/Figures/19-C-20-4.bmp\",\"mala:la\",\"Up\",\"40\",\"1\",\"16\",\"7\",\"S\",\"C\",\"16\"
\"\",\"\",\"approach-retreat\",\"165\",\"1082533\",\"0.0-165.0\",\"\",\"\",\"3-1\",\"4495\",\"40\",\"1\",\"Testing\",\"Stims/Figures/87-C-20-4.bmp\",\"na:ma:na\",\"Up\",\"40\",\"1\",\"17\",\"7\",\"S\",\"C\",\"17\"
\"\",\"\",\"approach-retreat\",\"166\",\"1088431\",\"0.0-166.0\",\"\",\"\",\"3-1\",\"4391\",\"37\",\"1\",\"Testing\",\"Stims/Figures/128-J-10-3.bmp\",\"na:mana\",\"Left\",\"37\",\"1\",\"18\",\"7\",\"S\",\"C\",\"18\"
\"\",\"\",\"approach-retreat\",\"167\",\"1094405\",\"0.0-167.0\",\"\",\"\",\"3-1\",\"4458\",\"40\",\"1\",\"Testing\",\"Stims/Figures/87-J-10-4.bmp\",\"malana\",\"Down\",\"40\",\"1\",\"19\",\"7\",\"S\",\"C\",\"19\"
\"\",\"\",\"approach-retreat\",\"168\",\"1100861\",\"0.0-168.0\",\"\",\"\",\"3-1\",\"4948\",\"38\",\"0\",\"Testing\",\"Stims/Figures/57-J-0-1.bmp\",\"tapaka\",\"Down\",\"40\",\"1\",\"20\",\"7\",\"P\",\"C\",\"20\"
\"\",\"\",\"approach-retreat\",\"169\",\"1106863\",\"0.0-169.0\",\"\",\"\",\"3-1\",\"4493\",\"39\",\"0\",\"Testing\",\"Stims/Figures/19-J-10-4.bmp\",\"namana\",\"Left\",\"37\",\"1\",\"21\",\"7\",\"S\",\"C\",\"21\"
\"\",\"\",\"approach-retreat\",\"170\",\"1113224\",\"0.0-170.0\",\"\",\"\",\"3-1\",\"4854\",\"38\",\"0\",\"Testing\",\"Stims/Figures/144-J-10-3.bmp\",\"na:la:na\",\"Down\",\"40\",\"1\",\"22\",\"7\",\"S\",\"C\",\"22\"
\"\",\"\",\"approach-retreat\",\"171\",\"1119267\",\"0.0-171.0\",\"\",\"\",\"3-1\",\"4536\",\"40\",\"1\",\"Testing\",\"Stims/Figures/86-C-30-1.bmp\",\"takaka\",\"Up\",\"40\",\"1\",\"23\",\"7\",\"P\",\"C\",\"23\"
\"\",\"\",\"approach-retreat\",\"172\",\"1125610\",\"0.0-172.0\",\"\",\"\",\"3-1\",\"4833\",\"40\",\"0\",\"Testing\",\"Stims/Figures/128-C-30-3.bmp\",\"ma:ma:la\",\"Down\",\"38\",\"1\",\"24\",\"7\",\"S\",\"C\",\"24\"
\"\",\"\",\"approach-retreat\",\"173\",\"1131739\",\"0.0-173.0\",\"\",\"\",\"3-1\",\"4620\",\"37\",\"1\",\"Testing\",\"Stims/Figures/74-J-10-4.bmp\",\"na:la:la\",\"Left\",\"37\",\"2\",\"1\",\"7\",\"S\",\"C\",\"25\"
\"\",\"\",\"approach-retreat\",\"174\",\"1137771\",\"0.0-174.0\",\"\",\"\",\"3-1\",\"4524\",\"39\",\"1\",\"Testing\",\"Stims/Figures/44-J-10-3.bmp\",\"mama:na\",\"Right\",\"39\",\"2\",\"2\",\"7\",\"S\",\"C\",\"26\"
\"\",\"\",\"approach-retreat\",\"175\",\"1143669\",\"0.0-175.0\",\"\",\"\",\"3-1\",\"4393\",\"37\",\"0\",\"Testing\",\"Stims/Figures/44-C-30-3.bmp\",\"mamana\",\"Left\",\"39\",\"2\",\"3\",\"7\",\"S\",\"C\",\"27\"
\"\",\"\",\"approach-retreat\",\"176\",\"1149709\",\"0.0-176.0\",\"\",\"\",\"3-1\",\"4531\",\"39\",\"1\",\"Testing\",\"Stims/Figures/71-C-30-1.bmp\",\"pakata\",\"Left\",\"39\",\"2\",\"4\",\"7\",\"P\",\"C\",\"28\"
\"\",\"\",\"approach-retreat\",\"177\",\"1155719\",\"0.0-177.0\",\"\",\"\",\"3-1\",\"4501\",\"37\",\"0\",\"Testing\",\"Stims/Figures/57-C-30-1.bmp\",\"tapa:ka\",\"Left\",\"39\",\"2\",\"5\",\"7\",\"P\",\"C\",\"29\"
\"\",\"\",\"approach-retreat\",\"178\",\"1161505\",\"0.0-178.0\",\"\",\"\",\"3-1\",\"4277\",\"40\",\"1\",\"Testing\",\"Stims/Figures/85-J-0-2.bmp\",\"ta:paka\",\"Down\",\"40\",\"2\",\"6\",\"7\",\"P\",\"C\",\"30\"
\"\",\"\",\"approach-retreat\",\"179\",\"1167593\",\"0.0-179.0\",\"\",\"\",\"3-1\",\"4579\",\"38\",\"1\",\"Testing\",\"Stims/Figures/144-C-30-3.bmp\",\"ma:la:na\",\"Down\",\"38\",\"2\",\"7\",\"7\",\"S\",\"C\",\"31\"
\"\",\"\",\"approach-retreat\",\"180\",\"1173517\",\"0.0-180.0\",\"\",\"\",\"3-1\",\"4417\",\"37\",\"1\",\"Testing\",\"Stims/Figures/128-J-10-3.bmp\",\"na:mana\",\"Left\",\"37\",\"2\",\"8\",\"7\",\"S\",\"C\",\"32\"
\"\",\"\",\"approach-retreat\",\"181\",\"1179540\",\"0.0-181.0\",\"\",\"\",\"3-1\",\"4516\",\"39\",\"0\",\"Testing\",\"Stims/Figures/84-C-20-2.bmp\",\"papata\",\"Right\",\"37\",\"2\",\"9\",\"7\",\"P\",\"C\",\"33\"
\"\",\"\",\"approach-retreat\",\"182\",\"1185373\",\"0.0-182.0\",\"\",\"\",\"3-1\",\"4325\",\"37\",\"1\",\"Testing\",\"Stims/Figures/87-C-20-4.bmp\",\"na:ma:na\",\"Right\",\"37\",\"2\",\"10\",\"7\",\"S\",\"C\",\"34\"
\"\",\"\",\"approach-retreat\",\"183\",\"1192213\",\"0.0-183.0\",\"\",\"\",\"3-1\",\"5332\",\"40\",\"1\",\"Testing\",\"Stims/Figures/57-J-0-1.bmp\",\"tapaka\",\"Down\",\"40\",\"2\",\"11\",\"7\",\"P\",\"C\",\"35\"
\"\",\"\",\"approach-retreat\",\"184\",\"1198229\",\"0.0-184.0\",\"\",\"\",\"3-1\",\"4508\",\"37\",\"1\",\"Testing\",\"Stims/Figures/19-C-20-4.bmp\",\"mala:la\",\"Right\",\"37\",\"2\",\"12\",\"7\",\"S\",\"C\",\"36\"
\"\",\"\",\"approach-retreat\",\"185\",\"1204041\",\"0.0-185.0\",\"\",\"\",\"3-1\",\"4304\",\"40\",\"1\",\"Testing\",\"Stims/Figures/86-C-30-1.bmp\",\"takaka\",\"Up\",\"40\",\"2\",\"13\",\"7\",\"P\",\"C\",\"37\"
\"\",\"\",\"approach-retreat\",\"186\",\"1209924\",\"0.0-186.0\",\"\",\"\",\"3-1\",\"4375\",\"40\",\"0\",\"Testing\",\"Stims/Figures/87-J-10-4.bmp\",\"malana\",\"Up\",\"38\",\"2\",\"14\",\"7\",\"S\",\"C\",\"38\"
\"\",\"\",\"approach-retreat\",\"187\",\"1215886\",\"0.0-187.0\",\"\",\"\",\"3-1\",\"4454\",\"40\",\"0\",\"Testing\",\"Stims/Figures/144-J-10-3.bmp\",\"na:la:na\",\"Up\",\"38\",\"2\",\"15\",\"7\",\"S\",\"C\",\"39\"
\"\",\"\",\"approach-retreat\",\"188\",\"1221666\",\"0.0-188.0\",\"\",\"\",\"3-1\",\"4272\",\"40\",\"1\",\"Testing\",\"Stims/Figures/74-C-20-4.bmp\",\"nala:na\",\"Up\",\"40\",\"2\",\"16\",\"7\",\"S\",\"C\",\"40\"
\"\",\"\",\"approach-retreat\",\"189\",\"1227317\",\"0.0-189.0\",\"\",\"\",\"3-1\",\"4143\",\"40\",\"0\",\"Testing\",\"Stims/Figures/139-J-0-2.bmp\",\"pa:pa:ta\",\"Up\",\"38\",\"2\",\"17\",\"7\",\"P\",\"C\",\"41\"
\"\",\"\",\"approach-retreat\",\"190\",\"1233507\",\"0.0-190.0\",\"\",\"\",\"3-1\",\"4685\",\"40\",\"1\",\"Testing\",\"Stims/Figures/84-J-0-2.bmp\",\"pa:kata\",\"Down\",\"40\",\"2\",\"18\",\"7\",\"P\",\"C\",\"42\"
\"\",\"\",\"approach-retreat\",\"191\",\"1239472\",\"0.0-191.0\",\"\",\"\",\"3-1\",\"4457\",\"39\",\"0\",\"Testing\",\"Stims/Figures/128-C-30-3.bmp\",\"ma:ma:la\",\"Right\",\"37\",\"2\",\"19\",\"7\",\"S\",\"C\",\"43\"
\"\",\"\",\"approach-retreat\",\"192\",\"1245413\",\"0.0-192.0\",\"\",\"\",\"3-1\",\"4434\",\"37\",\"1\",\"Testing\",\"Stims/Figures/71-J-0-1.bmp\",\"ta:kata\",\"Left\",\"37\",\"2\",\"20\",\"7\",\"P\",\"C\",\"44\"
\"\",\"\",\"approach-retreat\",\"193\",\"1251497\",\"0.0-193.0\",\"\",\"\",\"3-1\",\"4575\",\"38\",\"1\",\"Testing\",\"Stims/Figures/139-C-20-2.bmp\",\"paka:ka\",\"Down\",\"38\",\"2\",\"21\",\"7\",\"P\",\"C\",\"45\"
\"\",\"\",\"approach-retreat\",\"194\",\"1257742\",\"0.0-194.0\",\"\",\"\",\"3-1\",\"4740\",\"38\",\"1\",\"Testing\",\"Stims/Figures/86-J-0-1.bmp\",\"papa:ta\",\"Up\",\"38\",\"2\",\"22\",\"7\",\"P\",\"C\",\"46\"
\"\",\"\",\"approach-retreat\",\"195\",\"1263724\",\"0.0-195.0\",\"\",\"\",\"3-1\",\"4473\",\"39\",\"0\",\"Testing\",\"Stims/Figures/85-C-20-2.bmp\",\"takata\",\"Right\",\"37\",\"2\",\"23\",\"7\",\"P\",\"C\",\"47\"
\"\",\"\",\"approach-retreat\",\"196\",\"1270693\",\"0.0-196.0\",\"\",\"\",\"3-1\",\"5461\",\"40\",\"1\",\"Testing\",\"Stims/Figures/19-J-10-4.bmp\",\"namana\",\"Down\",\"40\",\"2\",\"24\",\"7\",\"S\",\"C\",\"48\"
\"\",\"\",\"approach-retreat\",\"197\",\"1276556\",\"0.0-197.0\",\"\",\"\",\"3-1\",\"4359\",\"38\",\"0\",\"Testing\",\"Stims/Figures/85-C-20-2.bmp\",\"takata\",\"Up\",\"40\",\"3\",\"1\",\"7\",\"P\",\"C\",\"49\"
\"\",\"\",\"approach-retreat\",\"198\",\"1282479\",\"0.0-198.0\",\"\",\"\",\"3-1\",\"4417\",\"40\",\"0\",\"Testing\",\"Stims/Figures/84-C-20-2.bmp\",\"papata\",\"Down\",\"38\",\"3\",\"2\",\"7\",\"P\",\"C\",\"50\"
\"\",\"\",\"approach-retreat\",\"199\",\"1288190\",\"0.0-199.0\",\"\",\"\",\"3-1\",\"4202\",\"39\",\"1\",\"Testing\",\"Stims/Figures/85-J-0-2.bmp\",\"ta:paka\",\"Right\",\"39\",\"3\",\"3\",\"7\",\"P\",\"C\",\"51\"
\"\",\"\",\"approach-retreat\",\"200\",\"1294040\",\"0.0-200.0\",\"\",\"\",\"3-1\",\"4347\",\"38\",\"1\",\"Testing\",\"Stims/Figures/86-J-0-1.bmp\",\"papa:ta\",\"Up\",\"38\",\"3\",\"4\",\"7\",\"P\",\"C\",\"52\"
\"\",\"\",\"approach-retreat\",\"201\",\"1300012\",\"0.0-201.0\",\"\",\"\",\"3-1\",\"4464\",\"39\",\"1\",\"Testing\",\"Stims/Figures/74-J-10-4.bmp\",\"na:la:la\",\"Right\",\"39\",\"3\",\"5\",\"7\",\"S\",\"C\",\"53\"
\"\",\"\",\"approach-retreat\",\"202\",\"1305686\",\"0.0-202.0\",\"\",\"\",\"3-1\",\"4167\",\"37\",\"0\",\"Testing\",\"Stims/Figures/144-J-10-3.bmp\",\"na:la:na\",\"Right\",\"39\",\"3\",\"6\",\"7\",\"S\",\"C\",\"54\"
\"\",\"\",\"approach-retreat\",\"203\",\"1311934\",\"0.0-203.0\",\"\",\"\",\"3-1\",\"4741\",\"37\",\"0\",\"Testing\",\"Stims/Figures/44-C-30-3.bmp\",\"mamana\",\"Left\",\"39\",\"3\",\"7\",\"7\",\"S\",\"C\",\"55\"
\"\",\"\",\"approach-retreat\",\"204\",\"1318001\",\"0.0-204.0\",\"\",\"\",\"3-1\",\"4558\",\"37\",\"1\",\"Testing\",\"Stims/Figures/84-J-0-2.bmp\",\"pa:kata\",\"Left\",\"37\",\"3\",\"8\",\"7\",\"P\",\"C\",\"56\"
\"\",\"\",\"approach-retreat\",\"205\",\"1323995\",\"0.0-205.0\",\"\",\"\",\"3-1\",\"4486\",\"39\",\"1\",\"Testing\",\"Stims/Figures/71-C-30-1.bmp\",\"pakata\",\"Left\",\"39\",\"3\",\"9\",\"7\",\"P\",\"C\",\"57\"
\"\",\"\",\"approach-retreat\",\"206\",\"1330546\",\"0.0-206.0\",\"\",\"\",\"3-1\",\"5043\",\"37\",\"1\",\"Testing\",\"Stims/Figures/87-C-20-4.bmp\",\"na:ma:na\",\"Right\",\"37\",\"3\",\"10\",\"7\",\"S\",\"C\",\"58\"
\"\",\"\",\"approach-retreat\",\"207\",\"1337122\",\"0.0-207.0\",\"\",\"\",\"3-1\",\"5068\",\"37\",\"1\",\"Testing\",\"Stims/Figures/57-C-30-1.bmp\",\"tapa:ka\",\"Right\",\"37\",\"3\",\"11\",\"7\",\"P\",\"C\",\"59\"
\"\",\"\",\"approach-retreat\",\"208\",\"1343237\",\"0.0-208.0\",\"\",\"\",\"3-1\",\"4607\",\"39\",\"0\",\"Testing\",\"Stims/Figures/128-J-10-3.bmp\",\"na:mana\",\"Left\",\"37\",\"3\",\"12\",\"7\",\"S\",\"C\",\"60\"
\"\",\"\",\"approach-retreat\",\"209\",\"1349160\",\"0.0-209.0\",\"\",\"\",\"3-1\",\"4415\",\"37\",\"0\",\"Testing\",\"Stims/Figures/144-C-30-3.bmp\",\"ma:la:na\",\"Left\",\"39\",\"3\",\"13\",\"7\",\"S\",\"C\",\"61\"
\"\",\"\",\"approach-retreat\",\"210\",\"1354987\",\"0.0-210.0\",\"\",\"\",\"3-1\",\"4319\",\"40\",\"0\",\"Testing\",\"Stims/Figures/128-C-30-3.bmp\",\"ma:ma:la\",\"Down\",\"38\",\"3\",\"14\",\"7\",\"S\",\"C\",\"62\"
\"\",\"\",\"approach-retreat\",\"211\",\"1360860\",\"0.0-211.0\",\"\",\"\",\"3-1\",\"4366\",\"39\",\"1\",\"Testing\",\"Stims/Figures/19-J-10-4.bmp\",\"namana\",\"Right\",\"39\",\"3\",\"15\",\"7\",\"S\",\"C\",\"63\"
\"\",\"\",\"approach-retreat\",\"212\",\"1367053\",\"0.0-212.0\",\"\",\"\",\"3-1\",\"4686\",\"37\",\"0\",\"Testing\",\"Stims/Figures/86-C-30-1.bmp\",\"takaka\",\"Left\",\"39\",\"3\",\"16\",\"7\",\"P\",\"C\",\"64\"
\"\",\"\",\"approach-retreat\",\"213\",\"1373328\",\"0.0-213.0\",\"\",\"\",\"3-1\",\"4769\",\"38\",\"0\",\"Testing\",\"Stims/Figures/139-C-20-2.bmp\",\"paka:ka\",\"Up\",\"40\",\"3\",\"17\",\"7\",\"P\",\"C\",\"65\"
\"\",\"\",\"approach-retreat\",\"214\",\"1379521\",\"0.0-214.0\",\"\",\"\",\"3-1\",\"4685\",\"40\",\"0\",\"Testing\",\"Stims/Figures/19-C-20-4.bmp\",\"mala:la\",\"Down\",\"38\",\"3\",\"18\",\"7\",\"S\",\"C\",\"66\"
\"\",\"\",\"approach-retreat\",\"215\",\"1385386\",\"0.0-215.0\",\"\",\"\",\"3-1\",\"4363\",\"40\",\"0\",\"Testing\",\"Stims/Figures/74-C-20-4.bmp\",\"nala:na\",\"Down\",\"38\",\"3\",\"19\",\"7\",\"S\",\"C\",\"67\"
\"\",\"\",\"approach-retreat\",\"216\",\"1391250\",\"0.0-216.0\",\"\",\"\",\"3-1\",\"4356\",\"38\",\"1\",\"Testing\",\"Stims/Figures/44-J-10-3.bmp\",\"mama:na\",\"Up\",\"38\",\"3\",\"20\",\"7\",\"S\",\"C\",\"68\"
\"\",\"\",\"approach-retreat\",\"217\",\"1397602\",\"0.0-217.0\",\"\",\"\",\"3-1\",\"4846\",\"40\",\"1\",\"Testing\",\"Stims/Figures/71-J-0-1.bmp\",\"ta:kata\",\"Down\",\"40\",\"3\",\"21\",\"7\",\"P\",\"C\",\"69\"
\"\",\"\",\"approach-retreat\",\"218\",\"1403746\",\"0.0-218.0\",\"\",\"\",\"3-1\",\"4636\",\"38\",\"1\",\"Testing\",\"Stims/Figures/139-J-0-2.bmp\",\"pa:pa:ta\",\"Up\",\"38\",\"3\",\"22\",\"7\",\"P\",\"C\",\"70\"
\"\",\"\",\"approach-retreat\",\"219\",\"1409654\",\"0.0-219.0\",\"\",\"\",\"3-1\",\"4399\",\"40\",\"1\",\"Testing\",\"Stims/Figures/57-J-0-1.bmp\",\"tapaka\",\"Down\",\"40\",\"3\",\"23\",\"7\",\"P\",\"C\",\"71\"
\"\",\"\",\"approach-retreat\",\"220\",\"1415742\",\"0.0-220.0\",\"\",\"\",\"3-1\",\"4580\",\"38\",\"1\",\"Testing\",\"Stims/Figures/87-J-10-4.bmp\",\"malana\",\"Up\",\"38\",\"3\",\"24\",\"7\",\"S\",\"C\",\"72\"
\"\",\"\",\"approach-retreat\",\"221\",\"1421834\",\"0.0-221.0\",\"\",\"\",\"3-1\",\"4585\",\"39\",\"1\",\"Testing\",\"Stims/Figures/144-J-10-3.bmp\",\"na:la:na\",\"Right\",\"39\",\"4\",\"1\",\"7\",\"S\",\"C\",\"73\"
\"\",\"\",\"approach-retreat\",\"222\",\"1428107\",\"0.0-222.0\",\"\",\"\",\"3-1\",\"4766\",\"40\",\"0\",\"Testing\",\"Stims/Figures/85-C-20-2.bmp\",\"takata\",\"Down\",\"38\",\"4\",\"2\",\"7\",\"P\",\"C\",\"74\"
\"\",\"\",\"approach-retreat\",\"223\",\"1434063\",\"0.0-223.0\",\"\",\"\",\"3-1\",\"4448\",\"40\",\"1\",\"Testing\",\"Stims/Figures/74-J-10-4.bmp\",\"na:la:la\",\"Down\",\"40\",\"4\",\"3\",\"7\",\"S\",\"C\",\"75\"
\"\",\"\",\"approach-retreat\",\"224\",\"1440054\",\"0.0-224.0\",\"\",\"\",\"3-1\",\"4483\",\"37\",\"1\",\"Testing\",\"Stims/Figures/74-C-20-4.bmp\",\"nala:na\",\"Right\",\"37\",\"4\",\"4\",\"7\",\"S\",\"C\",\"76\"
\"\",\"\",\"approach-retreat\",\"225\",\"1446051\",\"0.0-225.0\",\"\",\"\",\"3-1\",\"4490\",\"37\",\"1\",\"Testing\",\"Stims/Figures/57-J-0-1.bmp\",\"tapaka\",\"Left\",\"37\",\"4\",\"5\",\"7\",\"P\",\"C\",\"77\"
\"\",\"\",\"approach-retreat\",\"226\",\"1452146\",\"0.0-226.0\",\"\",\"\",\"3-1\",\"4587\",\"37\",\"0\",\"Testing\",\"Stims/Figures/139-C-20-2.bmp\",\"paka:ka\",\"Left\",\"39\",\"4\",\"6\",\"7\",\"P\",\"C\",\"78\"
\"\",\"\",\"approach-retreat\",\"227\",\"1458168\",\"0.0-227.0\",\"\",\"\",\"3-1\",\"4516\",\"38\",\"1\",\"Testing\",\"Stims/Figures/44-J-10-3.bmp\",\"mama:na\",\"Up\",\"38\",\"4\",\"7\",\"7\",\"S\",\"C\",\"79\"
\"\",\"\",\"approach-retreat\",\"228\",\"1464020\",\"0.0-228.0\",\"\",\"\",\"3-1\",\"4344\",\"40\",\"1\",\"Testing\",\"Stims/Figures/19-J-10-4.bmp\",\"namana\",\"Down\",\"40\",\"4\",\"8\",\"7\",\"S\",\"C\",\"80\"
\"\",\"\",\"approach-retreat\",\"229\",\"1470487\",\"0.0-229.0\",\"\",\"\",\"3-1\",\"4965\",\"40\",\"1\",\"Testing\",\"Stims/Figures/71-J-0-1.bmp\",\"ta:kata\",\"Down\",\"40\",\"4\",\"9\",\"7\",\"P\",\"C\",\"81\"
\"\",\"\",\"approach-retreat\",\"230\",\"1476729\",\"0.0-230.0\",\"\",\"\",\"3-1\",\"4732\",\"40\",\"0\",\"Testing\",\"Stims/Figures/128-C-30-3.bmp\",\"ma:ma:la\",\"Down\",\"38\",\"4\",\"10\",\"7\",\"S\",\"C\",\"82\"
\"\",\"\",\"approach-retreat\",\"231\",\"1482774\",\"0.0-231.0\",\"\",\"\",\"3-1\",\"4539\",\"40\",\"0\",\"Testing\",\"Stims/Figures/71-C-30-1.bmp\",\"pakata\",\"Down\",\"38\",\"4\",\"11\",\"7\",\"P\",\"C\",\"83\"
\"\",\"\",\"approach-retreat\",\"232\",\"1488626\",\"0.0-232.0\",\"\",\"\",\"3-1\",\"4344\",\"37\",\"0\",\"Testing\",\"Stims/Figures/44-C-30-3.bmp\",\"mamana\",\"Left\",\"39\",\"4\",\"12\",\"7\",\"S\",\"C\",\"84\"
\"\",\"\",\"approach-retreat\",\"233\",\"1494629\",\"0.0-233.0\",\"\",\"\",\"3-1\",\"4493\",\"37\",\"0\",\"Testing\",\"Stims/Figures/87-C-20-4.bmp\",\"na:ma:na\",\"Left\",\"39\",\"4\",\"13\",\"7\",\"S\",\"C\",\"85\"
\"\",\"\",\"approach-retreat\",\"234\",\"1500884\",\"0.0-234.0\",\"\",\"\",\"3-1\",\"4748\",\"38\",\"0\",\"Testing\",\"Stims/Figures/84-C-20-2.bmp\",\"papata\",\"Up\",\"40\",\"4\",\"14\",\"7\",\"P\",\"C\",\"86\"
\"\",\"\",\"approach-retreat\",\"235\",\"1507096\",\"0.0-235.0\",\"\",\"\",\"3-1\",\"4706\",\"40\",\"0\",\"Testing\",\"Stims/Figures/84-J-0-2.bmp\",\"pa:kata\",\"Up\",\"38\",\"4\",\"15\",\"7\",\"P\",\"C\",\"87\"
\"\",\"\",\"approach-retreat\",\"236\",\"1513433\",\"0.0-236.0\",\"\",\"\",\"3-1\",\"4829\",\"39\",\"1\",\"Testing\",\"Stims/Figures/139-J-0-2.bmp\",\"pa:pa:ta\",\"Right\",\"39\",\"4\",\"16\",\"7\",\"P\",\"C\",\"88\"
\"\",\"\",\"approach-retreat\",\"237\",\"1519468\",\"0.0-237.0\",\"\",\"\",\"3-1\",\"4527\",\"37\",\"0\",\"Testing\",\"Stims/Figures/57-C-30-1.bmp\",\"tapa:ka\",\"Left\",\"39\",\"4\",\"17\",\"7\",\"P\",\"C\",\"89\"
\"\",\"\",\"approach-retreat\",\"238\",\"1525288\",\"0.0-238.0\",\"\",\"\",\"3-1\",\"4317\",\"39\",\"0\",\"Testing\",\"Stims/Figures/19-C-20-4.bmp\",\"mala:la\",\"Right\",\"37\",\"4\",\"18\",\"7\",\"S\",\"C\",\"90\"
\"\",\"\",\"approach-retreat\",\"239\",\"1531256\",\"0.0-239.0\",\"\",\"\",\"3-1\",\"4463\",\"37\",\"0\",\"Testing\",\"Stims/Figures/85-J-0-2.bmp\",\"ta:paka\",\"Right\",\"39\",\"4\",\"19\",\"7\",\"P\",\"C\",\"91\"
\"\",\"\",\"approach-retreat\",\"240\",\"1537192\",\"0.0-240.0\",\"\",\"\",\"3-1\",\"4432\",\"38\",\"1\",\"Testing\",\"Stims/Figures/87-J-10-4.bmp\",\"malana\",\"Up\",\"38\",\"4\",\"20\",\"7\",\"S\",\"C\",\"92\"
\"\",\"\",\"approach-retreat\",\"241\",\"1543430\",\"0.0-241.0\",\"\",\"\",\"3-1\",\"4735\",\"40\",\"1\",\"Testing\",\"Stims/Figures/86-C-30-1.bmp\",\"takaka\",\"Up\",\"40\",\"4\",\"21\",\"7\",\"P\",\"C\",\"93\"
\"\",\"\",\"approach-retreat\",\"242\",\"1549232\",\"0.0-242.0\",\"\",\"\",\"3-1\",\"4298\",\"39\",\"1\",\"Testing\",\"Stims/Figures/86-J-0-1.bmp\",\"papa:ta\",\"Right\",\"39\",\"4\",\"22\",\"7\",\"P\",\"C\",\"94\"
\"\",\"\",\"approach-retreat\",\"243\",\"1555310\",\"0.0-243.0\",\"\",\"\",\"3-1\",\"4574\",\"40\",\"1\",\"Testing\",\"Stims/Figures/144-C-30-3.bmp\",\"ma:la:na\",\"Up\",\"40\",\"4\",\"23\",\"7\",\"S\",\"C\",\"95\"
\"\",\"\",\"approach-retreat\",\"244\",\"1561057\",\"0.0-244.0\",\"\",\"\",\"3-1\",\"4244\",\"37\",\"1\",\"Testing\",\"Stims/Figures/128-J-10-3.bmp\",\"na:mana\",\"Left\",\"37\",\"4\",\"24\",\"7\",\"S\",\"C\",\"96\"
\"34722\",\"\",\"survey-text\",\"245\",\"1595782\",\"0.0-245.0\",\"\",\"{\"\"Q0\"\":\"\"PS160013\"\"}\",\"\",\"\",\"\",\"\",\"\",\"\",\"\",\"\",\"\",\"\",\"\",\"\",\"\",\"\",\"\"
