"rt","key_press","trial_type","trial_index","time_elapsed","internal_node_id","view_history","responses","Id","Rt","ResKeyCode","ResCorr","TrialType2","Image","Label","Location","CorrectResponse","Block","BlockTrial","Condition","LabelType","Subcondition","trialNum"
"48486","32","text","0","48488","0.0-0.0-0.0","","","","","","","","","","","","","","","","",""
"94326","","instructions","1","142816","0.0-1.0","[{""page_index"":0,""viewing_time"":94326}]","","","","","","","","","","","","","","","",""
"83329","","survey-multi-choice","2","226161","0.0-2.0","","{""Q0"":""Da"",""Q1"":""Da"",""Q2"":""Da"",""Q3"":""Da"",""Q4"":""Da"",""Q5"":""Da""}","","","","","","","","","","","","","","",""
"","","bio","3","240951","0.0-3.0","","{""age"":""18"",""gender"":""f"",""specify"":""""}","","","","","","","","","","","","","","",""
"","","approach-retreat","4","258564","0.0-4.0","","","1-1","16109","39","1","Training","Stims/Figures/27-C-30-1.bmp","vafa:va","Right","39","1","1","6B","C1","J","1"
"","","approach-retreat","5","266916","0.0-5.0","","","1-1","6848","39","0","Training","Stims/Figures/7-C-20-4.bmp","vafa:sha","Left","37","1","2","6B","C1","J","2"
"","","approach-retreat","6","277332","0.0-6.0","","","1-1","8913","38","1","Training","Stims/Figures/144-C-30-3.bmp","fa:sha:va","Up","38","1","3","6B","C1","J","3"
"","","approach-retreat","7","285165","0.0-7.0","","","1-1","6329","39","1","Training","Stims/Figures/57-J-0-1.bmp","za:ha:ha","Left","39","1","4","6B","C2","J","4"
"","","approach-retreat","8","292708","0.0-8.0","","","1-1","6041","40","1","Training","Stims/Figures/27-J-0-1.bmp","zasa:ha","Up","40","1","5","6B","C2","J","5"
"","","approach-retreat","9","300092","0.0-9.0","","","1-1","5880","38","1","Training","Stims/Figures/84-C-20-2.bmp","va:fasha","Up","38","1","6","6B","C1","J","6"
"","","approach-retreat","10","307109","0.0-10.0","","","1-1","5512","40","1","Training","Stims/Figures/74-C-20-4.bmp","va:sha:sha","Down","40","1","7","6B","C1","J","7"
"","","approach-retreat","11","313468","0.0-11.0","","","1-1","4855","37","1","Training","Stims/Figures/74-J-10-4.bmp","sasaza","Right","37","1","8","6B","C2","J","8"
"","","approach-retreat","12","321396","0.0-12.0","","","1-1","6425","39","1","Training","Stims/Figures/84-J-0-2.bmp","sasa:za","Left","39","1","9","6B","C2","J","9"
"","","approach-retreat","13","328739","0.0-13.0","","","1-1","5839","39","0","Training","Stims/Figures/144-J-10-3.bmp","sa:ha:ha","Right","37","1","10","6B","C2","J","10"
"","","approach-retreat","14","335853","0.0-14.0","","","1-1","5609","40","1","Training","Stims/Figures/111-J-10-3.bmp","saha:ha","Up","40","1","11","6B","C2","J","11"
"","","approach-retreat","15","344044","0.0-15.0","","","1-1","6687","37","1","Training","Stims/Figures/57-C-30-1.bmp","va:shava","Left","37","1","12","6B","C1","J","12"
"","","approach-retreat","16","352157","0.0-16.0","","","1-1","6608","37","1","Training","Stims/Figures/7-J-10-4.bmp","sa:haha","Right","37","1","13","6B","C2","J","13"
"","","approach-retreat","17","361060","0.0-17.0","","","1-1","7399","38","1","Training","Stims/Figures/85-J-0-2.bmp","za:haha","Down","38","1","14","6B","C2","J","14"
"","","approach-retreat","18","369157","0.0-18.0","","","1-1","6592","40","1","Training","Stims/Figures/85-C-20-2.bmp","fa:sha:sha","Down","40","1","15","6B","C1","J","15"
"","","approach-retreat","19","375171","0.0-19.0","","","1-1","4511","40","1","Training","Stims/Figures/111-C-30-3.bmp","fafa:va","Down","40","1","16","6B","C1","J","16"
"","","approach-retreat","20","384067","0.0-20.0","","","1-1","7392","38","0","Training","Stims/Figures/84-C-20-2.bmp","va:fasha","Down","40","2","1","6B","C1","J","17"
"","","approach-retreat","21","391028","0.0-21.0","","","1-1","5457","40","1","Training","Stims/Figures/27-J-0-1.bmp","zasa:ha","Up","40","2","2","6B","C2","J","18"
"","","approach-retreat","22","397132","0.0-22.0","","","1-1","4601","39","1","Training","Stims/Figures/144-J-10-3.bmp","sa:ha:ha","Left","39","2","3","6B","C2","J","19"
"","","approach-retreat","23","403389","0.0-23.0","","","1-1","4752","38","1","Training","Stims/Figures/84-J-0-2.bmp","sasa:za","Down","38","2","4","6B","C2","J","20"
"","","approach-retreat","24","410036","0.0-24.0","","","1-1","5143","39","1","Training","Stims/Figures/144-C-30-3.bmp","fa:sha:va","Right","39","2","5","6B","C1","J","21"
"","","approach-retreat","25","416036","0.0-25.0","","","1-1","4496","39","1","Training","Stims/Figures/7-C-20-4.bmp","vafa:sha","Right","39","2","6","6B","C1","J","22"
"","","approach-retreat","26","424356","0.0-26.0","","","1-1","6816","39","1","Training","Stims/Figures/74-C-20-4.bmp","va:sha:sha","Right","39","2","7","6B","C1","J","23"
"","","approach-retreat","27","431316","0.0-27.0","","","1-1","5455","40","1","Training","Stims/Figures/7-J-10-4.bmp","sa:haha","Up","40","2","8","6B","C2","J","24"
"","","approach-retreat","28","437524","0.0-28.0","","","1-1","4705","40","1","Training","Stims/Figures/111-J-10-3.bmp","saha:ha","Up","40","2","9","6B","C2","J","25"
"","","approach-retreat","29","444219","0.0-29.0","","","1-1","5193","38","1","Training","Stims/Figures/57-J-0-1.bmp","za:ha:ha","Down","38","2","10","6B","C2","J","26"
"","","approach-retreat","30","450196","0.0-30.0","","","1-1","4473","40","1","Training","Stims/Figures/74-J-10-4.bmp","sasaza","Up","40","2","11","6B","C2","J","27"
"","","approach-retreat","31","460429","0.0-31.0","","","1-1","8729","37","1","Training","Stims/Figures/27-C-30-1.bmp","vafa:va","Left","37","2","12","6B","C1","J","28"
"","","approach-retreat","32","466292","0.0-32.0","","","1-1","4359","40","1","Training","Stims/Figures/111-C-30-3.bmp","fafa:va","Down","40","2","13","6B","C1","J","29"
"","","approach-retreat","33","472469","0.0-33.0","","","1-1","4672","37","1","Training","Stims/Figures/57-C-30-1.bmp","va:shava","Left","37","2","14","6B","C1","J","30"
"","","approach-retreat","34","480341","0.0-34.0","","","1-1","6369","37","1","Training","Stims/Figures/85-J-0-2.bmp","za:haha","Right","37","2","15","6B","C2","J","31"
"","","approach-retreat","35","487348","0.0-35.0","","","1-1","5504","37","1","Training","Stims/Figures/85-C-20-2.bmp","fa:sha:sha","Left","37","2","16","6B","C1","J","32"
"","","approach-retreat","36","494772","0.0-36.0","","","1-1","5920","38","1","Training","Stims/Figures/7-C-20-4.bmp","vafa:sha","Up","38","3","1","6B","C1","J","33"
"","","approach-retreat","37","500347","0.0-37.0","","","1-1","4071","38","1","Training","Stims/Figures/111-C-30-3.bmp","fafa:va","Up","38","3","2","6B","C1","J","34"
"","","approach-retreat","38","506972","0.0-38.0","","","1-1","5120","38","1","Training","Stims/Figures/111-J-10-3.bmp","saha:ha","Down","38","3","3","6B","C2","J","35"
"","","approach-retreat","39","513181","0.0-39.0","","","1-1","4705","40","1","Training","Stims/Figures/84-J-0-2.bmp","sasa:za","Up","40","3","4","6B","C2","J","36"
"","","approach-retreat","40","520653","0.0-40.0","","","1-1","5968","37","0","Training","Stims/Figures/85-C-20-2.bmp","fa:sha:sha","Right","39","3","5","6B","C1","J","37"
"","","approach-retreat","41","527877","0.0-41.0","","","1-1","5721","38","1","Training","Stims/Figures/85-J-0-2.bmp","za:haha","Down","38","3","6","6B","C2","J","38"
"","","approach-retreat","42","535852","0.0-42.0","","","1-1","6471","37","0","Training","Stims/Figures/74-J-10-4.bmp","sasaza","Left","39","3","7","6B","C2","J","39"
"","","approach-retreat","43","542069","0.0-43.0","","","1-1","4713","39","1","Training","Stims/Figures/74-C-20-4.bmp","va:sha:sha","Right","39","3","8","6B","C1","J","40"
"","","approach-retreat","44","547805","0.0-44.0","","","1-1","4233","37","1","Training","Stims/Figures/84-C-20-2.bmp","va:fasha","Left","37","3","9","6B","C1","J","41"
"","","approach-retreat","45","553820","0.0-45.0","","","1-1","4511","39","1","Training","Stims/Figures/144-C-30-3.bmp","fa:sha:va","Right","39","3","10","6B","C1","J","42"
"","","approach-retreat","46","559668","0.0-46.0","","","1-1","4344","39","1","Training","Stims/Figures/27-J-0-1.bmp","zasa:ha","Left","39","3","11","6B","C2","J","43"
"","","approach-retreat","47","567365","0.0-47.0","","","1-1","6193","37","1","Training","Stims/Figures/144-J-10-3.bmp","sa:ha:ha","Right","37","3","12","6B","C2","J","44"
"","","approach-retreat","48","573420","0.0-48.0","","","1-1","4552","38","1","Training","Stims/Figures/27-C-30-1.bmp","vafa:va","Up","38","3","13","6B","C1","J","45"
"","","approach-retreat","49","580412","0.0-49.0","","","1-1","5487","37","1","Training","Stims/Figures/57-C-30-1.bmp","va:shava","Left","37","3","14","6B","C1","J","46"
"","","approach-retreat","50","586548","0.0-50.0","","","1-1","4632","38","1","Training","Stims/Figures/7-J-10-4.bmp","sa:haha","Down","38","3","15","6B","C2","J","47"
"","","approach-retreat","51","594780","0.0-51.0","","","1-1","6729","38","1","Training","Stims/Figures/57-J-0-1.bmp","za:ha:ha","Down","38","3","16","6B","C2","J","48"
"","","approach-retreat","52","600621","0.0-52.0","","","1-1","4337","38","1","Training","Stims/Figures/144-J-10-3.bmp","sa:ha:ha","Down","38","4","1","6B","C2","J","49"
"","","approach-retreat","53","611108","0.0-53.0","","","1-1","8984","39","1","Training","Stims/Figures/57-J-0-1.bmp","za:ha:ha","Left","39","4","2","6B","C2","J","50"
"","","approach-retreat","54","618557","0.0-54.0","","","1-1","5944","38","1","Training","Stims/Figures/111-J-10-3.bmp","saha:ha","Down","38","4","3","6B","C2","J","51"
"","","approach-retreat","55","625493","0.0-55.0","","","1-1","5431","38","1","Training","Stims/Figures/27-J-0-1.bmp","zasa:ha","Down","38","4","4","6B","C2","J","52"
"","","approach-retreat","56","631611","0.0-56.0","","","1-1","4615","40","1","Training","Stims/Figures/7-J-10-4.bmp","sa:haha","Up","40","4","5","6B","C2","J","53"
"","","approach-retreat","57","637716","0.0-57.0","","","1-1","4601","37","1","Training","Stims/Figures/57-C-30-1.bmp","va:shava","Left","37","4","6","6B","C1","J","54"
"","","approach-retreat","58","648044","0.0-58.0","","","1-1","8824","37","1","Training","Stims/Figures/74-J-10-4.bmp","sasaza","Right","37","4","7","6B","C2","J","55"
"","","approach-retreat","59","654837","0.0-59.0","","","1-1","5288","38","1","Training","Stims/Figures/144-C-30-3.bmp","fa:sha:va","Up","38","4","8","6B","C1","J","56"
"","","approach-retreat","60","660843","0.0-60.0","","","1-1","4505","38","1","Training","Stims/Figures/7-C-20-4.bmp","vafa:sha","Up","38","4","9","6B","C1","J","57"
"","","approach-retreat","61","667804","0.0-61.0","","","1-1","5457","37","1","Training","Stims/Figures/85-C-20-2.bmp","fa:sha:sha","Left","37","4","10","6B","C1","J","58"
"","","approach-retreat","62","675084","0.0-62.0","","","1-1","5775","40","1","Training","Stims/Figures/84-C-20-2.bmp","va:fasha","Down","40","4","11","6B","C1","J","59"
"","","approach-retreat","63","681348","0.0-63.0","","","1-1","4759","37","1","Training","Stims/Figures/27-C-30-1.bmp","vafa:va","Left","37","4","12","6B","C1","J","60"
"","","approach-retreat","64","687204","0.0-64.0","","","1-1","4352","39","1","Training","Stims/Figures/111-C-30-3.bmp","fafa:va","Right","39","4","13","6B","C1","J","61"
"","","approach-retreat","65","693452","0.0-65.0","","","1-1","4743","37","1","Training","Stims/Figures/84-J-0-2.bmp","sasa:za","Right","37","4","14","6B","C2","J","62"
"","","approach-retreat","66","699796","0.0-66.0","","","1-1","4841","38","1","Training","Stims/Figures/74-C-20-4.bmp","va:sha:sha","Up","38","4","15","6B","C1","J","63"
"","","approach-retreat","67","705948","0.0-67.0","","","1-1","4648","37","1","Training","Stims/Figures/85-J-0-2.bmp","za:haha","Right","37","4","16","6B","C2","J","64"
"","","approach-retreat","68","711604","0.0-68.0","","","1-1","4152","37","1","Training","Stims/Figures/111-J-10-3.bmp","saha:ha","Right","37","5","1","6B","C2","J","65"
"","","approach-retreat","69","717964","0.0-69.0","","","1-1","4857","38","1","Training","Stims/Figures/74-J-10-4.bmp","sasaza","Down","38","5","2","6B","C2","J","66"
"","","approach-retreat","70","723868","0.0-70.0","","","1-1","4400","40","1","Training","Stims/Figures/85-J-0-2.bmp","za:haha","Up","40","5","3","6B","C2","J","67"
"","","approach-retreat","71","729876","0.0-71.0","","","1-1","4503","40","1","Training","Stims/Figures/74-C-20-4.bmp","va:sha:sha","Down","40","5","4","6B","C1","J","68"
"","","approach-retreat","72","735604","0.0-72.0","","","1-1","4225","37","1","Training","Stims/Figures/144-C-30-3.bmp","fa:sha:va","Left","37","5","5","6B","C1","J","69"
"","","approach-retreat","73","741932","0.0-73.0","","","1-1","4824","39","1","Training","Stims/Figures/84-J-0-2.bmp","sasa:za","Left","39","5","6","6B","C2","J","70"
"","","approach-retreat","74","747796","0.0-74.0","","","1-1","4360","39","1","Training","Stims/Figures/7-C-20-4.bmp","vafa:sha","Right","39","5","7","6B","C1","J","71"
"","","approach-retreat","75","753955","0.0-75.0","","","1-1","4657","38","1","Training","Stims/Figures/57-C-30-1.bmp","va:shava","Up","38","5","8","6B","C1","J","72"
"","","approach-retreat","76","759837","0.0-76.0","","","1-1","4378","37","1","Training","Stims/Figures/27-C-30-1.bmp","vafa:va","Left","37","5","9","6B","C1","J","73"
"","","approach-retreat","77","768212","0.0-77.0","","","1-1","6871","37","1","Training","Stims/Figures/57-J-0-1.bmp","za:ha:ha","Right","37","5","10","6B","C2","J","74"
"","","approach-retreat","78","776204","0.0-78.0","","","1-1","6488","38","1","Training","Stims/Figures/84-C-20-2.bmp","va:fasha","Up","38","5","11","6B","C1","J","75"
"","","approach-retreat","79","785572","0.0-79.0","","","1-1","7862","38","1","Training","Stims/Figures/111-C-30-3.bmp","fafa:va","Up","38","5","12","6B","C1","J","76"
"","","approach-retreat","80","791373","0.0-80.0","","","1-1","4296","39","0","Training","Stims/Figures/144-J-10-3.bmp","sa:ha:ha","Right","37","5","13","6B","C2","J","77"
"","","approach-retreat","81","797564","0.0-81.0","","","1-1","4688","38","1","Training","Stims/Figures/27-J-0-1.bmp","zasa:ha","Down","38","5","14","6B","C2","J","78"
"","","approach-retreat","82","803692","0.0-82.0","","","1-1","4624","39","1","Training","Stims/Figures/7-J-10-4.bmp","sa:haha","Left","39","5","15","6B","C2","J","79"
"","","approach-retreat","83","810140","0.0-83.0","","","1-1","4944","40","1","Training","Stims/Figures/85-C-20-2.bmp","fa:sha:sha","Down","40","5","16","6B","C1","J","80"
"","","approach-retreat","84","816308","0.0-84.0","","","1-1","4664","37","1","Training","Stims/Figures/7-C-20-4.bmp","vafa:sha","Left","37","6","1","6B","C1","J","81"
"","","approach-retreat","85","822460","0.0-85.0","","","1-1","4649","39","1","Training","Stims/Figures/85-C-20-2.bmp","fa:sha:sha","Right","39","6","2","6B","C1","J","82"
"","","approach-retreat","86","830533","0.0-86.0","","","1-1","6567","38","1","Training","Stims/Figures/57-C-30-1.bmp","va:shava","Up","38","6","3","6B","C1","J","83"
"","","approach-retreat","87","838660","0.0-87.0","","","1-1","6625","38","1","Training","Stims/Figures/84-J-0-2.bmp","sasa:za","Down","38","6","4","6B","C2","J","84"
"","","approach-retreat","88","845029","0.0-88.0","","","1-1","4864","39","1","Training","Stims/Figures/74-C-20-4.bmp","va:sha:sha","Right","39","6","5","6B","C1","J","85"
"","","approach-retreat","89","851972","0.0-89.0","","","1-1","5440","40","1","Training","Stims/Figures/57-J-0-1.bmp","za:ha:ha","Up","40","6","6","6B","C2","J","86"
"","","approach-retreat","90","857740","0.0-90.0","","","1-1","4265","38","1","Training","Stims/Figures/111-C-30-3.bmp","fafa:va","Up","38","6","7","6B","C1","J","87"
"","","approach-retreat","91","863923","0.0-91.0","","","1-1","4679","39","1","Training","Stims/Figures/111-J-10-3.bmp","saha:ha","Left","39","6","8","6B","C2","J","88"
"","","approach-retreat","92","869683","0.0-92.0","","","1-1","4256","39","1","Training","Stims/Figures/144-C-30-3.bmp","fa:sha:va","Right","39","6","9","6B","C1","J","89"
"","","approach-retreat","93","875836","0.0-93.0","","","1-1","4648","37","1","Training","Stims/Figures/84-C-20-2.bmp","va:fasha","Left","37","6","10","6B","C1","J","90"
"","","approach-retreat","94","882325","0.0-94.0","","","1-1","4985","38","1","Training","Stims/Figures/85-J-0-2.bmp","za:haha","Down","38","6","11","6B","C2","J","91"
"","","approach-retreat","95","889277","0.0-95.0","","","1-1","5447","38","1","Training","Stims/Figures/74-J-10-4.bmp","sasaza","Down","38","6","12","6B","C2","J","92"
"","","approach-retreat","96","896444","0.0-96.0","","","1-1","5665","38","1","Training","Stims/Figures/7-J-10-4.bmp","sa:haha","Down","38","6","13","6B","C2","J","93"
"","","approach-retreat","97","907029","0.0-97.0","","","1-1","9081","37","1","Training","Stims/Figures/27-C-30-1.bmp","vafa:va","Left","37","6","14","6B","C1","J","94"
"","","approach-retreat","98","914933","0.0-98.0","","","1-1","6399","40","1","Training","Stims/Figures/27-J-0-1.bmp","zasa:ha","Up","40","6","15","6B","C2","J","95"
"","","approach-retreat","99","925764","0.0-99.0","","","1-1","9327","37","1","Training","Stims/Figures/144-J-10-3.bmp","sa:ha:ha","Right","37","6","16","6B","C2","J","96"
"","","approach-retreat","100","932076","0.0-100.0","","","1-1","4809","40","1","Training","Stims/Figures/84-J-0-2.bmp","sasa:za","Up","40","7","1","6B","C2","J","97"
"","","approach-retreat","101","939061","0.0-101.0","","","1-1","5481","37","1","Training","Stims/Figures/74-J-10-4.bmp","sasaza","Right","37","7","2","6B","C2","J","98"
"","","approach-retreat","102","946676","0.0-102.0","","","1-1","6111","37","1","Training","Stims/Figures/57-C-30-1.bmp","va:shava","Left","37","7","3","6B","C1","J","99"
"","","approach-retreat","103","953557","0.0-103.0","","","1-1","5377","40","1","Training","Stims/Figures/85-C-20-2.bmp","fa:sha:sha","Down","40","7","4","6B","C1","J","100"
"","","approach-retreat","104","960772","0.0-104.0","","","1-1","5712","40","1","Training","Stims/Figures/84-C-20-2.bmp","va:fasha","Down","40","7","5","6B","C1","J","101"
"","","approach-retreat","105","966348","0.0-105.0","","","1-1","4073","37","1","Training","Stims/Figures/111-J-10-3.bmp","saha:ha","Right","37","7","6","6B","C2","J","102"
"","","approach-retreat","106","972143","0.0-106.0","","","1-1","4290","40","1","Training","Stims/Figures/27-J-0-1.bmp","zasa:ha","Up","40","7","7","6B","C2","J","103"
"","","approach-retreat","107","980803","0.0-107.0","","","1-1","7157","40","1","Training","Stims/Figures/74-C-20-4.bmp","va:sha:sha","Down","40","7","8","6B","C1","J","104"
"","","approach-retreat","108","988626","0.0-108.0","","","1-1","6320","37","1","Training","Stims/Figures/144-C-30-3.bmp","fa:sha:va","Left","37","7","9","6B","C1","J","105"
"","","approach-retreat","109","994475","0.0-109.0","","","1-1","4346","38","1","Training","Stims/Figures/7-J-10-4.bmp","sa:haha","Down","38","7","10","6B","C2","J","106"
"","","approach-retreat","110","1000315","0.0-110.0","","","1-1","4336","40","1","Training","Stims/Figures/144-J-10-3.bmp","sa:ha:ha","Up","40","7","11","6B","C2","J","107"
"","","approach-retreat","111","1007501","0.0-111.0","","","1-1","5681","38","1","Training","Stims/Figures/27-C-30-1.bmp","vafa:va","Up","38","7","12","6B","C1","J","108"
"","","approach-retreat","112","1014388","0.0-112.0","","","1-1","5384","37","1","Training","Stims/Figures/7-C-20-4.bmp","vafa:sha","Left","37","7","13","6B","C1","J","109"
"","","approach-retreat","113","1021580","0.0-113.0","","","1-1","5689","39","1","Training","Stims/Figures/111-C-30-3.bmp","fafa:va","Right","39","7","14","6B","C1","J","110"
"","","approach-retreat","114","1028067","0.0-114.0","","","1-1","4983","37","1","Training","Stims/Figures/57-J-0-1.bmp","za:ha:ha","Right","37","7","15","6B","C2","J","111"
"","","approach-retreat","115","1035492","0.0-115.0","","","1-1","5921","39","1","Training","Stims/Figures/85-J-0-2.bmp","za:haha","Left","39","7","16","6B","C2","J","112"
"","","approach-retreat","116","1047428","0.0-116.0","","","1-1","10432","37","0","Training","Stims/Figures/85-C-20-2.bmp","fa:sha:sha","Right","39","8","1","6B","C1","J","113"
"","","approach-retreat","117","1054587","0.0-117.0","","","1-1","5655","40","1","Training","Stims/Figures/74-J-10-4.bmp","sasaza","Up","40","8","2","6B","C2","J","114"
"","","approach-retreat","118","1061044","0.0-118.0","","","1-1","4954","39","1","Training","Stims/Figures/144-C-30-3.bmp","fa:sha:va","Right","39","8","3","6B","C1","J","115"
"","","approach-retreat","119","1066883","0.0-119.0","","","1-1","4335","38","1","Training","Stims/Figures/84-J-0-2.bmp","sasa:za","Down","38","8","4","6B","C2","J","116"
"","","approach-retreat","120","1072660","0.0-120.0","","","1-1","4272","38","1","Training","Stims/Figures/27-J-0-1.bmp","zasa:ha","Down","38","8","5","6B","C2","J","117"
"","","approach-retreat","121","1079532","0.0-121.0","","","1-1","5367","39","1","Training","Stims/Figures/7-C-20-4.bmp","vafa:sha","Right","39","8","6","6B","C1","J","118"
"","","approach-retreat","122","1086460","0.0-122.0","","","1-1","5422","39","1","Training","Stims/Figures/111-J-10-3.bmp","saha:ha","Left","39","8","7","6B","C2","J","119"
"","","approach-retreat","123","1094060","0.0-123.0","","","1-1","6097","38","1","Training","Stims/Figures/27-C-30-1.bmp","vafa:va","Up","38","8","8","6B","C1","J","120"
"","","approach-retreat","124","1099668","0.0-124.0","","","1-1","4103","40","1","Training","Stims/Figures/7-J-10-4.bmp","sa:haha","Up","40","8","9","6B","C2","J","121"
"","","approach-retreat","125","1105556","0.0-125.0","","","1-1","4384","40","1","Training","Stims/Figures/57-J-0-1.bmp","za:ha:ha","Up","40","8","10","6B","C2","J","122"
"","","approach-retreat","126","1111972","0.0-126.0","","","1-1","4912","40","1","Training","Stims/Figures/57-C-30-1.bmp","va:shava","Down","40","8","11","6B","C1","J","123"
"","","approach-retreat","127","1117452","0.0-127.0","","","1-1","3975","39","1","Training","Stims/Figures/85-J-0-2.bmp","za:haha","Left","39","8","12","6B","C2","J","124"
"","","approach-retreat","128","1123101","0.0-128.0","","","1-1","4146","37","1","Training","Stims/Figures/84-C-20-2.bmp","va:fasha","Left","37","8","13","6B","C1","J","125"
"","","approach-retreat","129","1128789","0.0-129.0","","","1-1","4184","37","1","Training","Stims/Figures/144-J-10-3.bmp","sa:ha:ha","Right","37","8","14","6B","C2","J","126"
"","","approach-retreat","130","1135220","0.0-130.0","","","1-1","4926","40","1","Training","Stims/Figures/74-C-20-4.bmp","va:sha:sha","Down","40","8","15","6B","C1","J","127"
"","","approach-retreat","131","1141236","0.0-131.0","","","1-1","4512","37","1","Training","Stims/Figures/111-C-30-3.bmp","fafa:va","Left","37","8","16","6B","C1","J","128"
"","","approach-retreat","132","1147748","0.0-132.0","","","1-1","5007","39","1","Training","Stims/Figures/7-J-10-4.bmp","sa:haha","Left","39","9","1","6B","C2","J","129"
"","","approach-retreat","133","1155028","0.0-133.0","","","1-1","5775","39","1","Training","Stims/Figures/84-C-20-2.bmp","va:fasha","Right","39","9","2","6B","C1","J","130"
"","","approach-retreat","134","1161293","0.0-134.0","","","1-1","4759","40","1","Training","Stims/Figures/111-J-10-3.bmp","saha:ha","Up","40","9","3","6B","C2","J","131"
"","","approach-retreat","135","1167148","0.0-135.0","","","1-1","4353","40","1","Training","Stims/Figures/144-J-10-3.bmp","sa:ha:ha","Up","40","9","4","6B","C2","J","132"
"","","approach-retreat","136","1173180","0.0-136.0","","","1-1","4527","39","1","Training","Stims/Figures/57-C-30-1.bmp","va:shava","Right","39","9","5","6B","C1","J","133"
"","","approach-retreat","137","1179188","0.0-137.0","","","1-1","4504","40","1","Training","Stims/Figures/85-J-0-2.bmp","za:haha","Up","40","9","6","6B","C2","J","134"
"","","approach-retreat","138","1184925","0.0-138.0","","","1-1","4233","37","1","Training","Stims/Figures/111-C-30-3.bmp","fafa:va","Left","37","9","7","6B","C1","J","135"
"","","approach-retreat","139","1192021","0.0-139.0","","","1-1","5592","40","1","Training","Stims/Figures/144-C-30-3.bmp","fa:sha:va","Down","40","9","8","6B","C1","J","136"
"","","approach-retreat","140","1199036","0.0-140.0","","","1-1","5513","39","1","Training","Stims/Figures/74-J-10-4.bmp","sasaza","Left","39","9","9","6B","C2","J","137"
"","","approach-retreat","141","1205300","0.0-141.0","","","1-1","4759","37","1","Training","Stims/Figures/27-C-30-1.bmp","vafa:va","Left","37","9","10","6B","C1","J","138"
"","","approach-retreat","142","1212356","0.0-142.0","","","1-1","5552","37","1","Training","Stims/Figures/57-J-0-1.bmp","za:ha:ha","Right","37","9","11","6B","C2","J","139"
"","","approach-retreat","143","1219356","0.0-143.0","","","1-1","5496","38","1","Training","Stims/Figures/7-C-20-4.bmp","vafa:sha","Up","38","9","12","6B","C1","J","140"
"","","approach-retreat","144","1227588","0.0-144.0","","","1-1","6728","38","1","Training","Stims/Figures/84-J-0-2.bmp","sasa:za","Down","38","9","13","6B","C2","J","141"
"","","approach-retreat","145","1234972","0.0-145.0","","","1-1","5880","40","1","Training","Stims/Figures/85-C-20-2.bmp","fa:sha:sha","Down","40","9","14","6B","C1","J","142"
"","","approach-retreat","146","1241356","0.0-146.0","","","1-1","4879","39","1","Training","Stims/Figures/74-C-20-4.bmp","va:sha:sha","Right","39","9","15","6B","C1","J","143"
"","","approach-retreat","147","1247764","0.0-147.0","","","1-1","4904","38","1","Training","Stims/Figures/27-J-0-1.bmp","zasa:ha","Down","38","9","16","6B","C2","J","144"
"22557","","instructions","148","1270321","0.0-148.0","[{""page_index"":0,""viewing_time"":22556}]","","","","","","","","","","","","","","","",""
"","","approach-retreat","149","1278316","0.0-149.0","","","1-1","6490","37","1","Testing","Stims/Figures/7-J-10-4.bmp","sa:haha","Right","37","1","1","6B","C2","J","1"
"","","approach-retreat","150","1284524","0.0-150.0","","","1-1","4704","39","1","Testing","Stims/Figures/111-J-10-3.bmp","saha:ha","Left","39","1","2","6B","C2","J","2"
"","","approach-retreat","151","1290388","0.0-151.0","","","1-1","4360","40","1","Testing","Stims/Figures/86-J-0-1.bmp","zasaza","Up","40","1","3","6B","C2","J","3"
"","","approach-retreat","152","1296187","0.0-152.0","","","1-1","4297","40","1","Testing","Stims/Figures/84-J-0-2.bmp","sasa:za","Up","40","1","4","6B","C2","J","4"
"","","approach-retreat","153","1302250","0.0-153.0","","","1-1","4560","37","1","Testing","Stims/Figures/74-C-20-4.bmp","va:sha:sha","Left","37","1","5","6B","C1","J","5"
"","","approach-retreat","154","1309004","0.0-154.0","","","1-1","5249","37","1","Testing","Stims/Figures/57-J-0-1.bmp","za:ha:ha","Right","37","1","6","6B","C2","J","6"
"","","approach-retreat","155","1315541","0.0-155.0","","","1-1","5033","37","1","Testing","Stims/Figures/7-C-20-4.bmp","vafa:sha","Left","37","1","7","6B","C1","J","7"
"","","approach-retreat","156","1322124","0.0-156.0","","","1-1","5081","38","1","Testing","Stims/Figures/27-J-0-1.bmp","zasa:ha","Down","38","1","8","6B","C2","J","8"
"","","approach-retreat","157","1328444","0.0-157.0","","","1-1","4816","40","1","Testing","Stims/Figures/44-J-10-3.bmp","sasa:ha","Up","40","1","9","6B","C2","J","9"
"","","approach-retreat","158","1334421","0.0-158.0","","","1-1","4472","38","1","Testing","Stims/Figures/118-J-0-2.bmp","za:saza","Down","38","1","10","6B","C2","J","10"
"","","approach-retreat","159","1340860","0.0-159.0","","","1-1","4937","38","1","Testing","Stims/Figures/86-C-30-1.bmp","vasha:sha","Up","38","1","11","6B","C1","J","11"
"","","approach-retreat","160","1347604","0.0-160.0","","","1-1","5241","39","1","Testing","Stims/Figures/111-C-30-3.bmp","fafa:va","Right","39","1","12","6B","C1","J","12"
"","","approach-retreat","161","1353771","0.0-161.0","","","1-1","4664","40","1","Testing","Stims/Figures/44-C-30-3.bmp","fa:shava","Down","40","1","13","6B","C1","J","13"
"","","approach-retreat","162","1360195","0.0-162.0","","","1-1","4921","40","1","Testing","Stims/Figures/27-C-30-1.bmp","vafa:va","Down","40","1","14","6B","C1","J","14"
"","","approach-retreat","163","1366427","0.0-163.0","","","1-1","4728","40","1","Testing","Stims/Figures/85-J-0-2.bmp","za:haha","Up","40","1","15","6B","C2","J","15"
"","","approach-retreat","164","1378836","0.0-164.0","","","1-1","10906","39","0","Testing","Stims/Figures/85-C-20-2.bmp","fa:sha:sha","Left","37","1","16","6B","C1","J","16"
"","","approach-retreat","165","1384908","0.0-165.0","","","1-1","4567","38","1","Testing","Stims/Figures/144-J-10-3.bmp","sa:ha:ha","Down","38","1","17","6B","C2","J","17"
"","","approach-retreat","166","1392484","0.0-166.0","","","1-1","6072","39","1","Testing","Stims/Figures/57-C-30-1.bmp","va:shava","Right","39","1","18","6B","C1","J","18"
"","","approach-retreat","167","1398587","0.0-167.0","","","1-1","4600","37","1","Testing","Stims/Figures/87-C-20-4.bmp","va:shasha","Left","37","1","19","6B","C1","J","19"
"","","approach-retreat","168","1404580","0.0-168.0","","","1-1","4489","37","1","Testing","Stims/Figures/74-J-10-4.bmp","sasaza","Right","37","1","20","6B","C2","J","20"
"","","approach-retreat","169","1411420","0.0-169.0","","","1-1","5336","39","1","Testing","Stims/Figures/84-C-20-2.bmp","va:fasha","Right","39","1","21","6B","C1","J","21"
"","","approach-retreat","170","1417867","0.0-170.0","","","1-1","4945","40","0","Testing","Stims/Figures/144-C-30-3.bmp","fa:sha:va","Up","38","1","22","6B","C1","J","22"
"","","approach-retreat","171","1425011","0.0-171.0","","","1-1","5641","38","1","Testing","Stims/Figures/87-J-10-4.bmp","saha:za","Down","38","1","23","6B","C2","J","23"
"","","approach-retreat","172","1430981","0.0-172.0","","","1-1","4464","39","0","Testing","Stims/Figures/118-C-20-2.bmp","fasha:sha","Left","37","1","24","6B","C1","J","24"
"","","approach-retreat","173","1436588","0.0-173.0","","","1-1","4104","39","1","Testing","Stims/Figures/57-J-0-1.bmp","za:ha:ha","Left","39","2","1","6B","C2","J","25"
"","","approach-retreat","174","1442171","0.0-174.0","","","1-1","4081","37","1","Testing","Stims/Figures/7-C-20-4.bmp","vafa:sha","Left","37","2","2","6B","C1","J","26"
"","","approach-retreat","175","1447755","0.0-175.0","","","1-1","4082","37","1","Testing","Stims/Figures/57-C-30-1.bmp","va:shava","Left","37","2","3","6B","C1","J","27"
"","","approach-retreat","176","1454140","0.0-176.0","","","1-1","4880","40","1","Testing","Stims/Figures/84-C-20-2.bmp","va:fasha","Down","40","2","4","6B","C1","J","28"
"","","approach-retreat","177","1463212","0.0-177.0","","","1-1","7568","37","0","Testing","Stims/Figures/85-C-20-2.bmp","fa:sha:sha","Right","39","2","5","6B","C1","J","29"
"","","approach-retreat","178","1468884","0.0-178.0","","","1-1","4169","37","1","Testing","Stims/Figures/87-J-10-4.bmp","saha:za","Right","37","2","6","6B","C2","J","30"
"","","approach-retreat","179","1474484","0.0-179.0","","","1-1","4097","37","1","Testing","Stims/Figures/84-J-0-2.bmp","sasa:za","Right","37","2","7","6B","C2","J","31"
"","","approach-retreat","180","1481739","0.0-180.0","","","1-1","5753","39","1","Testing","Stims/Figures/86-C-30-1.bmp","vasha:sha","Right","39","2","8","6B","C1","J","32"
"","","approach-retreat","181","1487636","0.0-181.0","","","1-1","4392","37","1","Testing","Stims/Figures/27-C-30-1.bmp","vafa:va","Left","37","2","9","6B","C1","J","33"
"","","approach-retreat","182","1493477","0.0-182.0","","","1-1","4336","40","1","Testing","Stims/Figures/144-J-10-3.bmp","sa:ha:ha","Up","40","2","10","6B","C2","J","34"
"","","approach-retreat","183","1501597","0.0-183.0","","","1-1","6616","37","1","Testing","Stims/Figures/87-C-20-4.bmp","va:shasha","Left","37","2","11","6B","C1","J","35"
"","","approach-retreat","184","1507525","0.0-184.0","","","1-1","4425","39","1","Testing","Stims/Figures/74-J-10-4.bmp","sasaza","Left","39","2","12","6B","C2","J","36"
"","","approach-retreat","185","1514099","0.0-185.0","","","1-1","5070","38","1","Testing","Stims/Figures/111-J-10-3.bmp","saha:ha","Down","38","2","13","6B","C2","J","37"
"","","approach-retreat","186","1522212","0.0-186.0","","","1-1","6609","40","1","Testing","Stims/Figures/74-C-20-4.bmp","va:sha:sha","Down","40","2","14","6B","C1","J","38"
"","","approach-retreat","187","1528381","0.0-187.0","","","1-1","4663","40","1","Testing","Stims/Figures/7-J-10-4.bmp","sa:haha","Up","40","2","15","6B","C2","J","39"
"","","approach-retreat","188","1534197","0.0-188.0","","","1-1","4313","38","1","Testing","Stims/Figures/111-C-30-3.bmp","fafa:va","Up","38","2","16","6B","C1","J","40"
"","","approach-retreat","189","1539900","0.0-189.0","","","1-1","4199","40","1","Testing","Stims/Figures/44-C-30-3.bmp","fa:shava","Down","40","2","17","6B","C1","J","41"
"","","approach-retreat","190","1546125","0.0-190.0","","","1-1","4721","37","1","Testing","Stims/Figures/86-J-0-1.bmp","zasaza","Right","37","2","18","6B","C2","J","42"
"","","approach-retreat","191","1556300","0.0-191.0","","","1-1","8673","40","0","Testing","Stims/Figures/118-C-20-2.bmp","fasha:sha","Up","38","2","19","6B","C1","J","43"
"","","approach-retreat","192","1562036","0.0-192.0","","","1-1","4233","37","1","Testing","Stims/Figures/85-J-0-2.bmp","za:haha","Right","37","2","20","6B","C2","J","44"
"","","approach-retreat","193","1567827","0.0-193.0","","","1-1","4289","38","1","Testing","Stims/Figures/44-J-10-3.bmp","sasa:ha","Down","38","2","21","6B","C2","J","45"
"","","approach-retreat","194","1574844","0.0-194.0","","","1-1","5513","38","1","Testing","Stims/Figures/118-J-0-2.bmp","za:saza","Down","38","2","22","6B","C2","J","46"
"","","approach-retreat","195","1585740","0.0-195.0","","","1-1","9394","38","1","Testing","Stims/Figures/144-C-30-3.bmp","fa:sha:va","Up","38","2","23","6B","C1","J","47"
"","","approach-retreat","196","1594396","0.0-196.0","","","1-1","7152","40","1","Testing","Stims/Figures/27-J-0-1.bmp","zasa:ha","Up","40","2","24","6B","C2","J","48"
"","","approach-retreat","197","1600908","0.0-197.0","","","1-1","5008","38","1","Testing","Stims/Figures/27-J-0-1.bmp","zasa:ha","Down","38","3","1","6B","C2","J","49"
"","","approach-retreat","198","1609771","0.0-198.0","","","1-1","7360","39","0","Testing","Stims/Figures/85-C-20-2.bmp","fa:sha:sha","Left","37","3","2","6B","C1","J","50"
"","","approach-retreat","199","1615645","0.0-199.0","","","1-1","4370","37","1","Testing","Stims/Figures/44-C-30-3.bmp","fa:shava","Left","37","3","3","6B","C1","J","51"
"","","approach-retreat","200","1621197","0.0-200.0","","","1-1","4049","37","1","Testing","Stims/Figures/86-J-0-1.bmp","zasaza","Right","37","3","4","6B","C2","J","52"
"","","approach-retreat","201","1626702","0.0-201.0","","","1-1","4000","39","1","Testing","Stims/Figures/84-J-0-2.bmp","sasa:za","Left","39","3","5","6B","C2","J","53"
"","","approach-retreat","202","1632827","0.0-202.0","","","1-1","4623","39","1","Testing","Stims/Figures/144-J-10-3.bmp","sa:ha:ha","Left","39","3","6","6B","C2","J","54"
"","","approach-retreat","203","1638732","0.0-203.0","","","1-1","4401","39","1","Testing","Stims/Figures/87-J-10-4.bmp","saha:za","Left","39","3","7","6B","C2","J","55"
"","","approach-retreat","204","1644804","0.0-204.0","","","1-1","4569","40","1","Testing","Stims/Figures/144-C-30-3.bmp","fa:sha:va","Down","40","3","8","6B","C1","J","56"
"","","approach-retreat","205","1650725","0.0-205.0","","","1-1","4417","40","1","Testing","Stims/Figures/74-J-10-4.bmp","sasaza","Up","40","3","9","6B","C2","J","57"
"","","approach-retreat","206","1656388","0.0-206.0","","","1-1","4160","39","1","Testing","Stims/Figures/57-J-0-1.bmp","za:ha:ha","Left","39","3","10","6B","C2","J","58"
"","","approach-retreat","207","1662724","0.0-207.0","","","1-1","4833","37","1","Testing","Stims/Figures/111-J-10-3.bmp","saha:ha","Right","37","3","11","6B","C2","J","59"
"","","approach-retreat","208","1671092","0.0-208.0","","","1-1","6865","38","1","Testing","Stims/Figures/57-C-30-1.bmp","va:shava","Up","38","3","12","6B","C1","J","60"
"","","approach-retreat","209","1677061","0.0-209.0","","","1-1","4465","38","1","Testing","Stims/Figures/27-C-30-1.bmp","vafa:va","Up","38","3","13","6B","C1","J","61"
"","","approach-retreat","210","1682668","0.0-210.0","","","1-1","4104","40","1","Testing","Stims/Figures/111-C-30-3.bmp","fafa:va","Down","40","3","14","6B","C1","J","62"
"","","approach-retreat","211","1689981","0.0-211.0","","","1-1","5809","39","1","Testing","Stims/Figures/87-C-20-4.bmp","va:shasha","Right","39","3","15","6B","C1","J","63"
"","","approach-retreat","212","1696068","0.0-212.0","","","1-1","4584","39","1","Testing","Stims/Figures/84-C-20-2.bmp","va:fasha","Right","39","3","16","6B","C1","J","64"
"","","approach-retreat","213","1702668","0.0-213.0","","","1-1","5097","38","0","Testing","Stims/Figures/118-C-20-2.bmp","fasha:sha","Down","40","3","17","6B","C1","J","65"
"","","approach-retreat","214","1708325","0.0-214.0","","","1-1","4152","40","1","Testing","Stims/Figures/7-C-20-4.bmp","vafa:sha","Down","40","3","18","6B","C1","J","66"
"","","approach-retreat","215","1714012","0.0-215.0","","","1-1","4185","40","1","Testing","Stims/Figures/85-J-0-2.bmp","za:haha","Up","40","3","19","6B","C2","J","67"
"","","approach-retreat","216","1719715","0.0-216.0","","","1-1","4201","38","1","Testing","Stims/Figures/86-C-30-1.bmp","vasha:sha","Up","38","3","20","6B","C1","J","68"
"","","approach-retreat","217","1725941","0.0-217.0","","","1-1","4721","38","1","Testing","Stims/Figures/44-J-10-3.bmp","sasa:ha","Down","38","3","21","6B","C2","J","69"
"","","approach-retreat","218","1731508","0.0-218.0","","","1-1","4064","37","1","Testing","Stims/Figures/7-J-10-4.bmp","sa:haha","Right","37","3","22","6B","C2","J","70"
"","","approach-retreat","219","1737093","0.0-219.0","","","1-1","4081","37","1","Testing","Stims/Figures/118-J-0-2.bmp","za:saza","Right","37","3","23","6B","C2","J","71"
"","","approach-retreat","220","1742941","0.0-220.0","","","1-1","4344","38","1","Testing","Stims/Figures/74-C-20-4.bmp","va:sha:sha","Up","38","3","24","6B","C1","J","72"
"","","approach-retreat","221","1748565","0.0-221.0","","","1-1","4122","38","0","Testing","Stims/Figures/118-C-20-2.bmp","fasha:sha","Down","40","4","1","6B","C1","J","73"
"","","approach-retreat","222","1754445","0.0-222.0","","","1-1","4377","38","1","Testing","Stims/Figures/74-J-10-4.bmp","sasaza","Down","38","4","2","6B","C2","J","74"
"","","approach-retreat","223","1760885","0.0-223.0","","","1-1","4937","39","1","Testing","Stims/Figures/27-J-0-1.bmp","zasa:ha","Left","39","4","3","6B","C2","J","75"
"","","approach-retreat","224","1767140","0.0-224.0","","","1-1","4752","40","1","Testing","Stims/Figures/86-J-0-1.bmp","zasaza","Up","40","4","4","6B","C2","J","76"
"","","approach-retreat","225","1773068","0.0-225.0","","","1-1","4424","38","1","Testing","Stims/Figures/118-J-0-2.bmp","za:saza","Down","38","4","5","6B","C2","J","77"
"","","approach-retreat","226","1779084","0.0-226.0","","","1-1","4513","40","1","Testing","Stims/Figures/86-C-30-1.bmp","vasha:sha","Down","40","4","6","6B","C1","J","78"
"","","approach-retreat","227","1784940","0.0-227.0","","","1-1","4353","39","1","Testing","Stims/Figures/74-C-20-4.bmp","va:sha:sha","Right","39","4","7","6B","C1","J","79"
"","","approach-retreat","228","1790676","0.0-228.0","","","1-1","4232","37","1","Testing","Stims/Figures/57-J-0-1.bmp","za:ha:ha","Right","37","4","8","6B","C2","J","80"
"","","approach-retreat","229","1796573","0.0-229.0","","","1-1","4393","37","1","Testing","Stims/Figures/84-C-20-2.bmp","va:fasha","Left","37","4","9","6B","C1","J","81"
"","","approach-retreat","230","1802396","0.0-230.0","","","1-1","4319","39","1","Testing","Stims/Figures/144-C-30-3.bmp","fa:sha:va","Right","39","4","10","6B","C1","J","82"
"","","approach-retreat","231","1808429","0.0-231.0","","","1-1","4529","40","1","Testing","Stims/Figures/144-J-10-3.bmp","sa:ha:ha","Up","40","4","11","6B","C2","J","83"
"","","approach-retreat","232","1813980","0.0-232.0","","","1-1","4049","39","1","Testing","Stims/Figures/84-J-0-2.bmp","sasa:za","Left","39","4","12","6B","C2","J","84"
"","","approach-retreat","233","1819924","0.0-233.0","","","1-1","4441","39","1","Testing","Stims/Figures/44-J-10-3.bmp","sasa:ha","Left","39","4","13","6B","C2","J","85"
"","","approach-retreat","234","1825468","0.0-234.0","","","1-1","4041","38","1","Testing","Stims/Figures/27-C-30-1.bmp","vafa:va","Up","38","4","14","6B","C1","J","86"
"","","approach-retreat","235","1832460","0.0-235.0","","","1-1","5489","39","1","Testing","Stims/Figures/7-J-10-4.bmp","sa:haha","Left","39","4","15","6B","C2","J","87"
"","","approach-retreat","236","1839276","0.0-236.0","","","1-1","5312","37","1","Testing","Stims/Figures/85-J-0-2.bmp","za:haha","Right","37","4","16","6B","C2","J","88"
"","","approach-retreat","237","1844796","0.0-237.0","","","1-1","4017","38","1","Testing","Stims/Figures/111-C-30-3.bmp","fafa:va","Up","38","4","17","6B","C1","J","89"
"","","approach-retreat","238","1850797","0.0-238.0","","","1-1","4497","40","1","Testing","Stims/Figures/87-C-20-4.bmp","va:shasha","Down","40","4","18","6B","C1","J","90"
"","","approach-retreat","239","1856357","0.0-239.0","","","1-1","4056","39","1","Testing","Stims/Figures/57-C-30-1.bmp","va:shava","Right","39","4","19","6B","C1","J","91"
"","","approach-retreat","240","1865380","0.0-240.0","","","1-1","7520","39","0","Testing","Stims/Figures/85-C-20-2.bmp","fa:sha:sha","Left","37","4","20","6B","C1","J","92"
"","","approach-retreat","241","1871140","0.0-241.0","","","1-1","4258","38","1","Testing","Stims/Figures/7-C-20-4.bmp","vafa:sha","Up","38","4","21","6B","C1","J","93"
"","","approach-retreat","242","1877164","0.0-242.0","","","1-1","4520","40","1","Testing","Stims/Figures/111-J-10-3.bmp","saha:ha","Up","40","4","22","6B","C2","J","94"
"","","approach-retreat","243","1882949","0.0-243.0","","","1-1","4281","37","1","Testing","Stims/Figures/87-J-10-4.bmp","saha:za","Right","37","4","23","6B","C2","J","95"
"","","approach-retreat","244","1888588","0.0-244.0","","","1-1","4135","40","1","Testing","Stims/Figures/44-C-30-3.bmp","fa:shava","Down","40","4","24","6B","C1","J","96"
"336818","","survey-text","245","2225408","0.0-245.0","","{""Q0"":""1117/2018""}","","","","","","","","","","","","","","",""
