\"rt\",\"key_press\",\"trial_type\",\"trial_index\",\"time_elapsed\",\"internal_node_id\",\"view_history\",\"responses\",\"Id\",\"Rt\",\"ResKeyCode\",\"ResCorr\",\"TrialType2\",\"Image\",\"Label\",\"Location\",\"CorrectResponse\",\"Block\",\"BlockTrial\",\"Condition\",\"LabelType\",\"Subcondition\",\"trialNum\"
\"67134\",\"32\",\"text\",\"0\",\"67138\",\"0.0-0.0-0.0\",\"\",\"\",\"\",\"\",\"\",\"\",\"\",\"\",\"\",\"\",\"\",\"\",\"\",\"\",\"\",\"\",\"\"
\"82477\",\"\",\"instructions\",\"1\",\"149616\",\"0.0-1.0\",\"[{\"\"page_index\"\":0,\"\"viewing_time\"\":82476}]\",\"\",\"\",\"\",\"\",\"\",\"\",\"\",\"\",\"\",\"\",\"\",\"\",\"\",\"\",\"\",\"\"
\"31626\",\"\",\"survey-multi-choice\",\"2\",\"181288\",\"0.0-2.0\",\"\",\"{\"\"Q0\"\":\"\"Da\"\",\"\"Q1\"\":\"\"Da\"\",\"\"Q2\"\":\"\"Da\"\",\"\"Q3\"\":\"\"Da\"\",\"\"Q4\"\":\"\"Da\"\",\"\"Q5\"\":\"\"Da\"\"}\",\"\",\"\",\"\",\"\",\"\",\"\",\"\",\"\",\"\",\"\",\"\",\"\",\"\",\"\",\"\"
\"\",\"\",\"bio\",\"3\",\"190385\",\"0.0-3.0\",\"\",\"{\"\"age\"\":\"\"19\"\",\"\"gender\"\":\"\"f\"\",\"\"specify\"\":\"\"\"\"}\",\"\",\"\",\"\",\"\",\"\",\"\",\"\",\"\",\"\",\"\",\"\",\"\",\"\",\"\",\"\"
\"\",\"\",\"approach-retreat\",\"4\",\"197806\",\"0.0-4.0\",\"\",\"\",\"1-3\",\"5914\",\"37\",\"1\",\"Training\",\"Stims/Figures/100-C-30-3.bmp\",\"nala:na\",\"Right\",\"37\",\"1\",\"1\",\"1\",\"S\",\"C\",\"1\"
\"\",\"\",\"approach-retreat\",\"5\",\"205022\",\"0.0-5.0\",\"\",\"\",\"1-3\",\"5702\",\"38\",\"1\",\"Training\",\"Stims/Figures/27-C-30-1.bmp\",\"nala:na\",\"Down\",\"38\",\"1\",\"2\",\"1\",\"S\",\"C\",\"2\"
\"\",\"\",\"approach-retreat\",\"6\",\"211013\",\"0.0-6.0\",\"\",\"\",\"1-3\",\"4483\",\"39\",\"1\",\"Training\",\"Stims/Figures/87-C-20-4.bmp\",\"nala:na\",\"Left\",\"39\",\"1\",\"3\",\"1\",\"S\",\"C\",\"3\"
\"\",\"\",\"approach-retreat\",\"7\",\"216599\",\"0.0-7.0\",\"\",\"\",\"1-3\",\"4074\",\"38\",\"1\",\"Training\",\"Stims/Figures/144-C-30-3.bmp\",\"nala:na\",\"Down\",\"38\",\"1\",\"4\",\"1\",\"S\",\"C\",\"4\"
\"\",\"\",\"approach-retreat\",\"8\",\"222421\",\"0.0-8.0\",\"\",\"\",\"1-3\",\"4311\",\"40\",\"1\",\"Training\",\"Stims/Figures/94-J-0-2.bmp\",\"tapaka\",\"Down\",\"40\",\"1\",\"5\",\"1\",\"P\",\"C\",\"5\"
\"\",\"\",\"approach-retreat\",\"9\",\"228959\",\"0.0-9.0\",\"\",\"\",\"1-3\",\"5024\",\"39\",\"1\",\"Training\",\"Stims/Figures/27-J-0-1.bmp\",\"tapaka\",\"Right\",\"39\",\"1\",\"6\",\"1\",\"P\",\"C\",\"6\"
\"\",\"\",\"approach-retreat\",\"10\",\"235320\",\"0.0-10.0\",\"\",\"\",\"1-3\",\"4857\",\"40\",\"0\",\"Training\",\"Stims/Figures/71-C-30-1.bmp\",\"nala:na\",\"Down\",\"38\",\"1\",\"7\",\"1\",\"S\",\"C\",\"7\"
\"\",\"\",\"approach-retreat\",\"11\",\"241104\",\"0.0-11.0\",\"\",\"\",\"1-3\",\"4272\",\"38\",\"1\",\"Training\",\"Stims/Figures/74-J-10-4.bmp\",\"tapaka\",\"Up\",\"38\",\"1\",\"8\",\"1\",\"P\",\"C\",\"8\"
\"\",\"\",\"approach-retreat\",\"12\",\"247545\",\"0.0-12.0\",\"\",\"\",\"1-3\",\"4928\",\"40\",\"1\",\"Training\",\"Stims/Figures/94-C-20-2.bmp\",\"nala:na\",\"Up\",\"40\",\"1\",\"9\",\"1\",\"S\",\"C\",\"9\"
\"\",\"\",\"approach-retreat\",\"13\",\"254959\",\"0.0-13.0\",\"\",\"\",\"1-3\",\"5902\",\"40\",\"1\",\"Training\",\"Stims/Figures/84-C-20-2.bmp\",\"nala:na\",\"Up\",\"40\",\"1\",\"10\",\"1\",\"S\",\"C\",\"10\"
\"\",\"\",\"approach-retreat\",\"14\",\"260944\",\"0.0-14.0\",\"\",\"\",\"1-3\",\"4473\",\"37\",\"1\",\"Training\",\"Stims/Figures/71-J-0-1.bmp\",\"tapaka\",\"Left\",\"37\",\"1\",\"11\",\"1\",\"P\",\"C\",\"11\"
\"\",\"\",\"approach-retreat\",\"15\",\"266687\",\"0.0-15.0\",\"\",\"\",\"1-3\",\"4231\",\"37\",\"1\",\"Training\",\"Stims/Figures/144-J-10-3.bmp\",\"tapaka\",\"Left\",\"37\",\"1\",\"12\",\"1\",\"P\",\"C\",\"12\"
\"\",\"\",\"approach-retreat\",\"16\",\"272444\",\"0.0-16.0\",\"\",\"\",\"1-3\",\"4245\",\"39\",\"1\",\"Training\",\"Stims/Figures/87-J-10-4.bmp\",\"tapaka\",\"Right\",\"39\",\"1\",\"13\",\"1\",\"P\",\"C\",\"13\"
\"\",\"\",\"approach-retreat\",\"17\",\"278027\",\"0.0-17.0\",\"\",\"\",\"1-3\",\"4071\",\"39\",\"1\",\"Training\",\"Stims/Figures/100-J-10-3.bmp\",\"tapaka\",\"Right\",\"39\",\"1\",\"14\",\"1\",\"P\",\"C\",\"14\"
\"\",\"\",\"approach-retreat\",\"18\",\"283739\",\"0.0-18.0\",\"\",\"\",\"1-3\",\"4201\",\"38\",\"1\",\"Training\",\"Stims/Figures/84-J-0-2.bmp\",\"tapaka\",\"Up\",\"38\",\"1\",\"15\",\"1\",\"P\",\"C\",\"15\"
\"\",\"\",\"approach-retreat\",\"19\",\"289512\",\"0.0-19.0\",\"\",\"\",\"1-3\",\"4260\",\"39\",\"1\",\"Training\",\"Stims/Figures/74-C-20-4.bmp\",\"nala:na\",\"Left\",\"39\",\"1\",\"16\",\"1\",\"S\",\"C\",\"16\"
\"\",\"\",\"approach-retreat\",\"20\",\"295229\",\"0.0-20.0\",\"\",\"\",\"1-3\",\"4205\",\"37\",\"1\",\"Training\",\"Stims/Figures/71-C-30-1.bmp\",\"nala:na\",\"Right\",\"37\",\"2\",\"1\",\"1\",\"S\",\"C\",\"17\"
\"\",\"\",\"approach-retreat\",\"21\",\"300836\",\"0.0-21.0\",\"\",\"\",\"1-3\",\"4095\",\"37\",\"1\",\"Training\",\"Stims/Figures/74-J-10-4.bmp\",\"tapaka\",\"Left\",\"37\",\"2\",\"2\",\"1\",\"P\",\"C\",\"18\"
\"\",\"\",\"approach-retreat\",\"22\",\"306588\",\"0.0-22.0\",\"\",\"\",\"1-3\",\"4240\",\"37\",\"1\",\"Training\",\"Stims/Figures/87-J-10-4.bmp\",\"tapaka\",\"Left\",\"37\",\"2\",\"3\",\"1\",\"P\",\"C\",\"19\"
\"\",\"\",\"approach-retreat\",\"23\",\"312399\",\"0.0-23.0\",\"\",\"\",\"1-3\",\"4297\",\"38\",\"0\",\"Training\",\"Stims/Figures/87-C-20-4.bmp\",\"nala:na\",\"Up\",\"40\",\"2\",\"4\",\"1\",\"S\",\"C\",\"20\"
\"\",\"\",\"approach-retreat\",\"24\",\"319166\",\"0.0-24.0\",\"\",\"\",\"1-3\",\"5256\",\"38\",\"1\",\"Training\",\"Stims/Figures/100-C-30-3.bmp\",\"nala:na\",\"Down\",\"38\",\"2\",\"5\",\"1\",\"S\",\"C\",\"21\"
\"\",\"\",\"approach-retreat\",\"25\",\"325102\",\"0.0-25.0\",\"\",\"\",\"1-3\",\"4424\",\"40\",\"1\",\"Training\",\"Stims/Figures/94-C-20-2.bmp\",\"nala:na\",\"Up\",\"40\",\"2\",\"6\",\"1\",\"S\",\"C\",\"22\"
\"\",\"\",\"approach-retreat\",\"26\",\"331485\",\"0.0-26.0\",\"\",\"\",\"1-3\",\"4873\",\"37\",\"1\",\"Training\",\"Stims/Figures/27-C-30-1.bmp\",\"nala:na\",\"Right\",\"37\",\"2\",\"7\",\"1\",\"S\",\"C\",\"23\"
\"\",\"\",\"approach-retreat\",\"27\",\"337958\",\"0.0-27.0\",\"\",\"\",\"1-3\",\"4959\",\"40\",\"1\",\"Training\",\"Stims/Figures/84-J-0-2.bmp\",\"tapaka\",\"Down\",\"40\",\"2\",\"8\",\"1\",\"P\",\"C\",\"24\"
\"\",\"\",\"approach-retreat\",\"28\",\"343975\",\"0.0-28.0\",\"\",\"\",\"1-3\",\"4505\",\"38\",\"1\",\"Training\",\"Stims/Figures/94-J-0-2.bmp\",\"tapaka\",\"Up\",\"38\",\"2\",\"9\",\"1\",\"P\",\"C\",\"25\"
\"\",\"\",\"approach-retreat\",\"29\",\"349685\",\"0.0-29.0\",\"\",\"\",\"1-3\",\"4199\",\"39\",\"0\",\"Training\",\"Stims/Figures/74-C-20-4.bmp\",\"nala:na\",\"Right\",\"37\",\"2\",\"10\",\"1\",\"S\",\"C\",\"26\"
\"\",\"\",\"approach-retreat\",\"30\",\"356024\",\"0.0-30.0\",\"\",\"\",\"1-3\",\"4827\",\"40\",\"1\",\"Training\",\"Stims/Figures/71-J-0-1.bmp\",\"tapaka\",\"Down\",\"40\",\"2\",\"11\",\"1\",\"P\",\"C\",\"27\"
\"\",\"\",\"approach-retreat\",\"31\",\"362410\",\"0.0-31.0\",\"\",\"\",\"1-3\",\"4873\",\"40\",\"1\",\"Training\",\"Stims/Figures/84-C-20-2.bmp\",\"nala:na\",\"Up\",\"40\",\"2\",\"12\",\"1\",\"S\",\"C\",\"28\"
\"\",\"\",\"approach-retreat\",\"32\",\"368139\",\"0.0-32.0\",\"\",\"\",\"1-3\",\"4217\",\"39\",\"1\",\"Training\",\"Stims/Figures/100-J-10-3.bmp\",\"tapaka\",\"Right\",\"39\",\"2\",\"13\",\"1\",\"P\",\"C\",\"29\"
\"\",\"\",\"approach-retreat\",\"33\",\"373969\",\"0.0-33.0\",\"\",\"\",\"1-3\",\"4318\",\"39\",\"1\",\"Training\",\"Stims/Figures/144-C-30-3.bmp\",\"nala:na\",\"Left\",\"39\",\"2\",\"14\",\"1\",\"S\",\"C\",\"30\"
\"\",\"\",\"approach-retreat\",\"34\",\"380538\",\"0.0-34.0\",\"\",\"\",\"1-3\",\"5056\",\"40\",\"1\",\"Training\",\"Stims/Figures/27-J-0-1.bmp\",\"tapaka\",\"Down\",\"40\",\"2\",\"15\",\"1\",\"P\",\"C\",\"31\"
\"\",\"\",\"approach-retreat\",\"35\",\"386534\",\"0.0-35.0\",\"\",\"\",\"1-3\",\"4485\",\"37\",\"1\",\"Training\",\"Stims/Figures/144-J-10-3.bmp\",\"tapaka\",\"Left\",\"37\",\"2\",\"16\",\"1\",\"P\",\"C\",\"32\"
\"\",\"\",\"approach-retreat\",\"36\",\"392389\",\"0.0-36.0\",\"\",\"\",\"1-3\",\"4343\",\"37\",\"1\",\"Training\",\"Stims/Figures/71-C-30-1.bmp\",\"nala:na\",\"Right\",\"37\",\"3\",\"1\",\"1\",\"S\",\"C\",\"33\"
\"\",\"\",\"approach-retreat\",\"37\",\"398950\",\"0.0-37.0\",\"\",\"\",\"1-3\",\"5045\",\"38\",\"0\",\"Training\",\"Stims/Figures/71-J-0-1.bmp\",\"tapaka\",\"Down\",\"40\",\"3\",\"2\",\"1\",\"P\",\"C\",\"34\"
\"\",\"\",\"approach-retreat\",\"38\",\"404922\",\"0.0-38.0\",\"\",\"\",\"1-3\",\"4461\",\"40\",\"1\",\"Training\",\"Stims/Figures/84-J-0-2.bmp\",\"tapaka\",\"Down\",\"40\",\"3\",\"3\",\"1\",\"P\",\"C\",\"35\"
\"\",\"\",\"approach-retreat\",\"39\",\"410901\",\"0.0-39.0\",\"\",\"\",\"1-3\",\"4470\",\"40\",\"1\",\"Training\",\"Stims/Figures/144-J-10-3.bmp\",\"tapaka\",\"Down\",\"40\",\"3\",\"4\",\"1\",\"P\",\"C\",\"36\"
\"\",\"\",\"approach-retreat\",\"40\",\"417058\",\"0.0-40.0\",\"\",\"\",\"1-3\",\"4645\",\"38\",\"1\",\"Training\",\"Stims/Figures/74-C-20-4.bmp\",\"nala:na\",\"Down\",\"38\",\"3\",\"5\",\"1\",\"S\",\"C\",\"37\"
\"\",\"\",\"approach-retreat\",\"41\",\"423043\",\"0.0-41.0\",\"\",\"\",\"1-3\",\"4471\",\"40\",\"1\",\"Training\",\"Stims/Figures/94-C-20-2.bmp\",\"nala:na\",\"Up\",\"40\",\"3\",\"6\",\"1\",\"S\",\"C\",\"38\"
\"\",\"\",\"approach-retreat\",\"42\",\"428917\",\"0.0-42.0\",\"\",\"\",\"1-3\",\"4362\",\"39\",\"1\",\"Training\",\"Stims/Figures/27-C-30-1.bmp\",\"nala:na\",\"Left\",\"39\",\"3\",\"7\",\"1\",\"S\",\"C\",\"39\"
\"\",\"\",\"approach-retreat\",\"43\",\"434607\",\"0.0-43.0\",\"\",\"\",\"1-3\",\"4178\",\"39\",\"1\",\"Training\",\"Stims/Figures/94-J-0-2.bmp\",\"tapaka\",\"Right\",\"39\",\"3\",\"8\",\"1\",\"P\",\"C\",\"40\"
\"\",\"\",\"approach-retreat\",\"44\",\"441562\",\"0.0-44.0\",\"\",\"\",\"1-3\",\"5443\",\"40\",\"1\",\"Training\",\"Stims/Figures/87-C-20-4.bmp\",\"nala:na\",\"Up\",\"40\",\"3\",\"9\",\"1\",\"S\",\"C\",\"41\"
\"\",\"\",\"approach-retreat\",\"45\",\"447907\",\"0.0-45.0\",\"\",\"\",\"1-3\",\"4840\",\"38\",\"1\",\"Training\",\"Stims/Figures/74-J-10-4.bmp\",\"tapaka\",\"Up\",\"38\",\"3\",\"10\",\"1\",\"P\",\"C\",\"42\"
\"\",\"\",\"approach-retreat\",\"46\",\"453876\",\"0.0-46.0\",\"\",\"\",\"1-3\",\"4461\",\"37\",\"1\",\"Training\",\"Stims/Figures/27-J-0-1.bmp\",\"tapaka\",\"Left\",\"37\",\"3\",\"11\",\"1\",\"P\",\"C\",\"43\"
\"\",\"\",\"approach-retreat\",\"47\",\"459774\",\"0.0-47.0\",\"\",\"\",\"1-3\",\"4386\",\"37\",\"1\",\"Training\",\"Stims/Figures/100-J-10-3.bmp\",\"tapaka\",\"Left\",\"37\",\"3\",\"12\",\"1\",\"P\",\"C\",\"44\"
\"\",\"\",\"approach-retreat\",\"48\",\"466746\",\"0.0-48.0\",\"\",\"\",\"1-3\",\"5461\",\"40\",\"1\",\"Training\",\"Stims/Figures/84-C-20-2.bmp\",\"nala:na\",\"Up\",\"40\",\"3\",\"13\",\"1\",\"S\",\"C\",\"45\"
\"\",\"\",\"approach-retreat\",\"49\",\"473520\",\"0.0-49.0\",\"\",\"\",\"1-3\",\"5262\",\"37\",\"1\",\"Training\",\"Stims/Figures/144-C-30-3.bmp\",\"nala:na\",\"Right\",\"37\",\"3\",\"14\",\"1\",\"S\",\"C\",\"46\"
\"\",\"\",\"approach-retreat\",\"50\",\"479718\",\"0.0-50.0\",\"\",\"\",\"1-3\",\"4682\",\"39\",\"1\",\"Training\",\"Stims/Figures/87-J-10-4.bmp\",\"tapaka\",\"Right\",\"39\",\"3\",\"15\",\"1\",\"P\",\"C\",\"47\"
\"\",\"\",\"approach-retreat\",\"51\",\"486047\",\"0.0-51.0\",\"\",\"\",\"1-3\",\"4817\",\"39\",\"1\",\"Training\",\"Stims/Figures/100-C-30-3.bmp\",\"nala:na\",\"Left\",\"39\",\"3\",\"16\",\"1\",\"S\",\"C\",\"48\"
\"\",\"\",\"approach-retreat\",\"52\",\"492103\",\"0.0-52.0\",\"\",\"\",\"1-3\",\"4544\",\"39\",\"1\",\"Training\",\"Stims/Figures/94-J-0-2.bmp\",\"tapaka\",\"Right\",\"39\",\"4\",\"1\",\"1\",\"P\",\"C\",\"49\"
\"\",\"\",\"approach-retreat\",\"53\",\"498061\",\"0.0-53.0\",\"\",\"\",\"1-3\",\"4446\",\"39\",\"1\",\"Training\",\"Stims/Figures/27-C-30-1.bmp\",\"nala:na\",\"Left\",\"39\",\"4\",\"2\",\"1\",\"S\",\"C\",\"50\"
\"\",\"\",\"approach-retreat\",\"54\",\"503802\",\"0.0-54.0\",\"\",\"\",\"1-3\",\"4229\",\"40\",\"0\",\"Training\",\"Stims/Figures/27-J-0-1.bmp\",\"tapaka\",\"Up\",\"38\",\"4\",\"3\",\"1\",\"P\",\"C\",\"51\"
\"\",\"\",\"approach-retreat\",\"55\",\"511157\",\"0.0-55.0\",\"\",\"\",\"1-3\",\"5843\",\"38\",\"1\",\"Training\",\"Stims/Figures/71-C-30-1.bmp\",\"nala:na\",\"Down\",\"38\",\"4\",\"4\",\"1\",\"S\",\"C\",\"52\"
\"\",\"\",\"approach-retreat\",\"56\",\"516930\",\"0.0-56.0\",\"\",\"\",\"1-3\",\"4262\",\"40\",\"1\",\"Training\",\"Stims/Figures/87-C-20-4.bmp\",\"nala:na\",\"Up\",\"40\",\"4\",\"5\",\"1\",\"S\",\"C\",\"53\"
\"\",\"\",\"approach-retreat\",\"57\",\"522725\",\"0.0-57.0\",\"\",\"\",\"1-3\",\"4283\",\"37\",\"1\",\"Training\",\"Stims/Figures/74-C-20-4.bmp\",\"nala:na\",\"Right\",\"37\",\"4\",\"6\",\"1\",\"S\",\"C\",\"54\"
\"\",\"\",\"approach-retreat\",\"58\",\"528390\",\"0.0-58.0\",\"\",\"\",\"1-3\",\"4152\",\"38\",\"1\",\"Training\",\"Stims/Figures/144-J-10-3.bmp\",\"tapaka\",\"Up\",\"38\",\"4\",\"7\",\"1\",\"P\",\"C\",\"55\"
\"\",\"\",\"approach-retreat\",\"59\",\"534527\",\"0.0-59.0\",\"\",\"\",\"1-3\",\"4625\",\"38\",\"1\",\"Training\",\"Stims/Figures/94-C-20-2.bmp\",\"nala:na\",\"Down\",\"38\",\"4\",\"8\",\"1\",\"S\",\"C\",\"56\"
\"\",\"\",\"approach-retreat\",\"60\",\"540648\",\"0.0-60.0\",\"\",\"\",\"1-3\",\"4610\",\"37\",\"1\",\"Training\",\"Stims/Figures/74-J-10-4.bmp\",\"tapaka\",\"Left\",\"37\",\"4\",\"9\",\"1\",\"P\",\"C\",\"57\"
\"\",\"\",\"approach-retreat\",\"61\",\"547068\",\"0.0-61.0\",\"\",\"\",\"1-3\",\"4908\",\"39\",\"1\",\"Training\",\"Stims/Figures/71-J-0-1.bmp\",\"tapaka\",\"Right\",\"39\",\"4\",\"10\",\"1\",\"P\",\"C\",\"58\"
\"\",\"\",\"approach-retreat\",\"62\",\"555063\",\"0.0-62.0\",\"\",\"\",\"1-3\",\"6487\",\"37\",\"1\",\"Training\",\"Stims/Figures/87-J-10-4.bmp\",\"tapaka\",\"Left\",\"37\",\"4\",\"11\",\"1\",\"P\",\"C\",\"59\"
\"\",\"\",\"approach-retreat\",\"63\",\"561269\",\"0.0-63.0\",\"\",\"\",\"1-3\",\"4694\",\"37\",\"1\",\"Training\",\"Stims/Figures/144-C-30-3.bmp\",\"nala:na\",\"Right\",\"37\",\"4\",\"12\",\"1\",\"S\",\"C\",\"60\"
\"\",\"\",\"approach-retreat\",\"64\",\"567488\",\"0.0-64.0\",\"\",\"\",\"1-3\",\"4713\",\"38\",\"1\",\"Training\",\"Stims/Figures/84-C-20-2.bmp\",\"nala:na\",\"Down\",\"38\",\"4\",\"13\",\"1\",\"S\",\"C\",\"61\"
\"\",\"\",\"approach-retreat\",\"65\",\"573203\",\"0.0-65.0\",\"\",\"\",\"1-3\",\"4203\",\"40\",\"1\",\"Training\",\"Stims/Figures/84-J-0-2.bmp\",\"tapaka\",\"Down\",\"40\",\"4\",\"14\",\"1\",\"P\",\"C\",\"62\"
\"\",\"\",\"approach-retreat\",\"66\",\"578947\",\"0.0-66.0\",\"\",\"\",\"1-3\",\"4232\",\"37\",\"1\",\"Training\",\"Stims/Figures/100-J-10-3.bmp\",\"tapaka\",\"Left\",\"37\",\"4\",\"15\",\"1\",\"P\",\"C\",\"63\"
\"\",\"\",\"approach-retreat\",\"67\",\"585027\",\"0.0-67.0\",\"\",\"\",\"1-3\",\"4567\",\"40\",\"1\",\"Training\",\"Stims/Figures/100-C-30-3.bmp\",\"nala:na\",\"Up\",\"40\",\"4\",\"16\",\"1\",\"S\",\"C\",\"64\"
\"\",\"\",\"approach-retreat\",\"68\",\"591724\",\"0.0-68.0\",\"\",\"\",\"1-3\",\"5185\",\"38\",\"1\",\"Training\",\"Stims/Figures/100-J-10-3.bmp\",\"tapaka\",\"Up\",\"38\",\"5\",\"1\",\"1\",\"P\",\"C\",\"65\"
\"\",\"\",\"approach-retreat\",\"69\",\"597614\",\"0.0-69.0\",\"\",\"\",\"1-3\",\"4378\",\"39\",\"1\",\"Training\",\"Stims/Figures/27-J-0-1.bmp\",\"tapaka\",\"Right\",\"39\",\"5\",\"2\",\"1\",\"P\",\"C\",\"66\"
\"\",\"\",\"approach-retreat\",\"70\",\"603522\",\"0.0-70.0\",\"\",\"\",\"1-3\",\"4396\",\"40\",\"0\",\"Training\",\"Stims/Figures/144-C-30-3.bmp\",\"nala:na\",\"Down\",\"38\",\"5\",\"3\",\"1\",\"S\",\"C\",\"67\"
\"\",\"\",\"approach-retreat\",\"71\",\"609029\",\"0.0-71.0\",\"\",\"\",\"1-3\",\"3996\",\"38\",\"1\",\"Training\",\"Stims/Figures/71-C-30-1.bmp\",\"nala:na\",\"Down\",\"38\",\"5\",\"4\",\"1\",\"S\",\"C\",\"68\"
\"\",\"\",\"approach-retreat\",\"72\",\"615743\",\"0.0-72.0\",\"\",\"\",\"1-3\",\"5202\",\"37\",\"1\",\"Training\",\"Stims/Figures/94-J-0-2.bmp\",\"tapaka\",\"Left\",\"37\",\"5\",\"5\",\"1\",\"P\",\"C\",\"69\"
\"\",\"\",\"approach-retreat\",\"73\",\"621590\",\"0.0-73.0\",\"\",\"\",\"1-3\",\"4337\",\"38\",\"1\",\"Training\",\"Stims/Figures/144-J-10-3.bmp\",\"tapaka\",\"Up\",\"38\",\"5\",\"6\",\"1\",\"P\",\"C\",\"70\"
\"\",\"\",\"approach-retreat\",\"74\",\"628183\",\"0.0-74.0\",\"\",\"\",\"1-3\",\"5081\",\"37\",\"1\",\"Training\",\"Stims/Figures/74-C-20-4.bmp\",\"nala:na\",\"Right\",\"37\",\"5\",\"7\",\"1\",\"S\",\"C\",\"71\"
\"\",\"\",\"approach-retreat\",\"75\",\"635764\",\"0.0-75.0\",\"\",\"\",\"1-3\",\"6069\",\"40\",\"1\",\"Training\",\"Stims/Figures/87-C-20-4.bmp\",\"nala:na\",\"Up\",\"40\",\"5\",\"8\",\"1\",\"S\",\"C\",\"72\"
\"\",\"\",\"approach-retreat\",\"76\",\"642085\",\"0.0-76.0\",\"\",\"\",\"1-3\",\"4809\",\"39\",\"1\",\"Training\",\"Stims/Figures/74-J-10-4.bmp\",\"tapaka\",\"Right\",\"39\",\"5\",\"9\",\"1\",\"P\",\"C\",\"73\"
\"\",\"\",\"approach-retreat\",\"77\",\"648194\",\"0.0-77.0\",\"\",\"\",\"1-3\",\"4598\",\"37\",\"1\",\"Training\",\"Stims/Figures/87-J-10-4.bmp\",\"tapaka\",\"Left\",\"37\",\"5\",\"10\",\"1\",\"P\",\"C\",\"74\"
\"\",\"\",\"approach-retreat\",\"78\",\"653938\",\"0.0-78.0\",\"\",\"\",\"1-3\",\"4235\",\"37\",\"1\",\"Training\",\"Stims/Figures/84-J-0-2.bmp\",\"tapaka\",\"Left\",\"37\",\"5\",\"11\",\"1\",\"P\",\"C\",\"75\"
\"\",\"\",\"approach-retreat\",\"79\",\"661033\",\"0.0-79.0\",\"\",\"\",\"1-3\",\"5583\",\"38\",\"1\",\"Training\",\"Stims/Figures/100-C-30-3.bmp\",\"nala:na\",\"Down\",\"38\",\"5\",\"12\",\"1\",\"S\",\"C\",\"76\"
\"\",\"\",\"approach-retreat\",\"80\",\"667682\",\"0.0-80.0\",\"\",\"\",\"1-3\",\"5133\",\"38\",\"1\",\"Training\",\"Stims/Figures/84-C-20-2.bmp\",\"nala:na\",\"Down\",\"38\",\"5\",\"13\",\"1\",\"S\",\"C\",\"77\"
\"\",\"\",\"approach-retreat\",\"81\",\"673390\",\"0.0-81.0\",\"\",\"\",\"1-3\",\"4194\",\"40\",\"0\",\"Training\",\"Stims/Figures/71-J-0-1.bmp\",\"tapaka\",\"Up\",\"38\",\"5\",\"14\",\"1\",\"P\",\"C\",\"78\"
\"\",\"\",\"approach-retreat\",\"82\",\"680281\",\"0.0-82.0\",\"\",\"\",\"1-3\",\"5383\",\"37\",\"1\",\"Training\",\"Stims/Figures/94-C-20-2.bmp\",\"nala:na\",\"Right\",\"37\",\"5\",\"15\",\"1\",\"S\",\"C\",\"79\"
\"\",\"\",\"approach-retreat\",\"83\",\"686837\",\"0.0-83.0\",\"\",\"\",\"1-3\",\"5044\",\"39\",\"1\",\"Training\",\"Stims/Figures/27-C-30-1.bmp\",\"nala:na\",\"Left\",\"39\",\"5\",\"16\",\"1\",\"S\",\"C\",\"80\"
\"\",\"\",\"approach-retreat\",\"84\",\"692956\",\"0.0-84.0\",\"\",\"\",\"1-3\",\"4607\",\"40\",\"0\",\"Training\",\"Stims/Figures/94-C-20-2.bmp\",\"nala:na\",\"Down\",\"38\",\"6\",\"1\",\"1\",\"S\",\"C\",\"81\"
\"\",\"\",\"approach-retreat\",\"85\",\"699074\",\"0.0-85.0\",\"\",\"\",\"1-3\",\"4605\",\"38\",\"1\",\"Training\",\"Stims/Figures/87-C-20-4.bmp\",\"nala:na\",\"Down\",\"38\",\"6\",\"2\",\"1\",\"S\",\"C\",\"82\"
\"\",\"\",\"approach-retreat\",\"86\",\"704944\",\"0.0-86.0\",\"\",\"\",\"1-3\",\"4358\",\"39\",\"0\",\"Training\",\"Stims/Figures/144-J-10-3.bmp\",\"tapaka\",\"Left\",\"37\",\"6\",\"3\",\"1\",\"P\",\"C\",\"83\"
\"\",\"\",\"approach-retreat\",\"87\",\"710095\",\"0.0-87.0\",\"\",\"\",\"1-3\",\"3638\",\"37\",\"0\",\"Training\",\"Stims/Figures/74-J-10-4.bmp\",\"tapaka\",\"Right\",\"39\",\"6\",\"4\",\"1\",\"P\",\"C\",\"84\"
\"\",\"\",\"approach-retreat\",\"88\",\"715814\",\"0.0-88.0\",\"\",\"\",\"1-3\",\"4207\",\"39\",\"1\",\"Training\",\"Stims/Figures/71-J-0-1.bmp\",\"tapaka\",\"Right\",\"39\",\"6\",\"5\",\"1\",\"P\",\"C\",\"85\"
\"\",\"\",\"approach-retreat\",\"89\",\"722884\",\"0.0-89.0\",\"\",\"\",\"1-3\",\"5557\",\"37\",\"1\",\"Training\",\"Stims/Figures/27-J-0-1.bmp\",\"tapaka\",\"Left\",\"37\",\"6\",\"6\",\"1\",\"P\",\"C\",\"86\"
\"\",\"\",\"approach-retreat\",\"90\",\"729755\",\"0.0-90.0\",\"\",\"\",\"1-3\",\"5361\",\"37\",\"1\",\"Training\",\"Stims/Figures/74-C-20-4.bmp\",\"nala:na\",\"Right\",\"37\",\"6\",\"7\",\"1\",\"S\",\"C\",\"87\"
\"\",\"\",\"approach-retreat\",\"91\",\"736176\",\"0.0-91.0\",\"\",\"\",\"1-3\",\"4914\",\"40\",\"1\",\"Training\",\"Stims/Figures/100-C-30-3.bmp\",\"nala:na\",\"Up\",\"40\",\"6\",\"8\",\"1\",\"S\",\"C\",\"88\"
\"\",\"\",\"approach-retreat\",\"92\",\"742458\",\"0.0-92.0\",\"\",\"\",\"1-3\",\"4770\",\"37\",\"1\",\"Training\",\"Stims/Figures/94-J-0-2.bmp\",\"tapaka\",\"Left\",\"37\",\"6\",\"9\",\"1\",\"P\",\"C\",\"89\"
\"\",\"\",\"approach-retreat\",\"93\",\"750351\",\"0.0-93.0\",\"\",\"\",\"1-3\",\"6382\",\"37\",\"1\",\"Training\",\"Stims/Figures/84-C-20-2.bmp\",\"nala:na\",\"Right\",\"37\",\"6\",\"10\",\"1\",\"S\",\"C\",\"90\"
\"\",\"\",\"approach-retreat\",\"94\",\"757229\",\"0.0-94.0\",\"\",\"\",\"1-3\",\"5366\",\"40\",\"1\",\"Training\",\"Stims/Figures/100-J-10-3.bmp\",\"tapaka\",\"Down\",\"40\",\"6\",\"11\",\"1\",\"P\",\"C\",\"91\"
\"\",\"\",\"approach-retreat\",\"95\",\"764210\",\"0.0-95.0\",\"\",\"\",\"1-3\",\"5468\",\"39\",\"1\",\"Training\",\"Stims/Figures/144-C-30-3.bmp\",\"nala:na\",\"Left\",\"39\",\"6\",\"12\",\"1\",\"S\",\"C\",\"92\"
\"\",\"\",\"approach-retreat\",\"96\",\"770813\",\"0.0-96.0\",\"\",\"\",\"1-3\",\"5090\",\"38\",\"1\",\"Training\",\"Stims/Figures/84-J-0-2.bmp\",\"tapaka\",\"Up\",\"38\",\"6\",\"13\",\"1\",\"P\",\"C\",\"93\"
\"\",\"\",\"approach-retreat\",\"97\",\"778271\",\"0.0-97.0\",\"\",\"\",\"1-3\",\"5952\",\"40\",\"1\",\"Training\",\"Stims/Figures/71-C-30-1.bmp\",\"nala:na\",\"Up\",\"40\",\"6\",\"14\",\"1\",\"S\",\"C\",\"94\"
\"\",\"\",\"approach-retreat\",\"98\",\"785139\",\"0.0-98.0\",\"\",\"\",\"1-3\",\"5363\",\"40\",\"1\",\"Training\",\"Stims/Figures/87-J-10-4.bmp\",\"tapaka\",\"Down\",\"40\",\"6\",\"15\",\"1\",\"P\",\"C\",\"95\"
\"\",\"\",\"approach-retreat\",\"99\",\"792831\",\"0.0-99.0\",\"\",\"\",\"1-3\",\"6179\",\"40\",\"1\",\"Training\",\"Stims/Figures/27-C-30-1.bmp\",\"nala:na\",\"Up\",\"40\",\"6\",\"16\",\"1\",\"S\",\"C\",\"96\"
\"\",\"\",\"approach-retreat\",\"100\",\"800296\",\"0.0-100.0\",\"\",\"\",\"1-3\",\"5953\",\"38\",\"1\",\"Training\",\"Stims/Figures/74-C-20-4.bmp\",\"nala:na\",\"Down\",\"38\",\"7\",\"1\",\"1\",\"S\",\"C\",\"97\"
\"\",\"\",\"approach-retreat\",\"101\",\"806854\",\"0.0-101.0\",\"\",\"\",\"1-3\",\"5047\",\"38\",\"1\",\"Training\",\"Stims/Figures/71-C-30-1.bmp\",\"nala:na\",\"Down\",\"38\",\"7\",\"2\",\"1\",\"S\",\"C\",\"98\"
\"\",\"\",\"approach-retreat\",\"102\",\"813300\",\"0.0-102.0\",\"\",\"\",\"1-3\",\"4934\",\"38\",\"1\",\"Training\",\"Stims/Figures/100-J-10-3.bmp\",\"tapaka\",\"Up\",\"38\",\"7\",\"3\",\"1\",\"P\",\"C\",\"99\"
\"\",\"\",\"approach-retreat\",\"103\",\"819582\",\"0.0-103.0\",\"\",\"\",\"1-3\",\"4771\",\"37\",\"1\",\"Training\",\"Stims/Figures/144-C-30-3.bmp\",\"nala:na\",\"Right\",\"37\",\"7\",\"4\",\"1\",\"S\",\"C\",\"100\"
\"\",\"\",\"approach-retreat\",\"104\",\"825637\",\"0.0-104.0\",\"\",\"\",\"1-3\",\"4543\",\"40\",\"1\",\"Training\",\"Stims/Figures/84-J-0-2.bmp\",\"tapaka\",\"Down\",\"40\",\"7\",\"5\",\"1\",\"P\",\"C\",\"101\"
\"\",\"\",\"approach-retreat\",\"105\",\"833910\",\"0.0-105.0\",\"\",\"\",\"1-3\",\"6761\",\"39\",\"1\",\"Training\",\"Stims/Figures/87-C-20-4.bmp\",\"nala:na\",\"Left\",\"39\",\"7\",\"6\",\"1\",\"S\",\"C\",\"102\"
\"\",\"\",\"approach-retreat\",\"106\",\"840783\",\"0.0-106.0\",\"\",\"\",\"1-3\",\"5363\",\"37\",\"1\",\"Training\",\"Stims/Figures/74-J-10-4.bmp\",\"tapaka\",\"Left\",\"37\",\"7\",\"7\",\"1\",\"P\",\"C\",\"103\"
\"\",\"\",\"approach-retreat\",\"107\",\"847231\",\"0.0-107.0\",\"\",\"\",\"1-3\",\"4936\",\"38\",\"1\",\"Training\",\"Stims/Figures/144-J-10-3.bmp\",\"tapaka\",\"Up\",\"38\",\"7\",\"8\",\"1\",\"P\",\"C\",\"104\"
\"\",\"\",\"approach-retreat\",\"108\",\"853470\",\"0.0-108.0\",\"\",\"\",\"1-3\",\"4728\",\"38\",\"1\",\"Training\",\"Stims/Figures/71-J-0-1.bmp\",\"tapaka\",\"Up\",\"38\",\"7\",\"9\",\"1\",\"P\",\"C\",\"105\"
\"\",\"\",\"approach-retreat\",\"109\",\"860120\",\"0.0-109.0\",\"\",\"\",\"1-3\",\"5138\",\"37\",\"1\",\"Training\",\"Stims/Figures/94-J-0-2.bmp\",\"tapaka\",\"Left\",\"37\",\"7\",\"10\",\"1\",\"P\",\"C\",\"106\"
\"\",\"\",\"approach-retreat\",\"110\",\"866560\",\"0.0-110.0\",\"\",\"\",\"1-3\",\"4929\",\"38\",\"1\",\"Training\",\"Stims/Figures/84-C-20-2.bmp\",\"nala:na\",\"Down\",\"38\",\"7\",\"11\",\"1\",\"S\",\"C\",\"107\"
\"\",\"\",\"approach-retreat\",\"111\",\"872797\",\"0.0-111.0\",\"\",\"\",\"1-3\",\"4730\",\"39\",\"1\",\"Training\",\"Stims/Figures/27-J-0-1.bmp\",\"tapaka\",\"Right\",\"39\",\"7\",\"12\",\"1\",\"P\",\"C\",\"108\"
\"\",\"\",\"approach-retreat\",\"112\",\"878934\",\"0.0-112.0\",\"\",\"\",\"1-3\",\"4623\",\"37\",\"1\",\"Training\",\"Stims/Figures/27-C-30-1.bmp\",\"nala:na\",\"Right\",\"37\",\"7\",\"13\",\"1\",\"S\",\"C\",\"109\"
\"\",\"\",\"approach-retreat\",\"113\",\"884626\",\"0.0-113.0\",\"\",\"\",\"1-3\",\"4180\",\"39\",\"1\",\"Training\",\"Stims/Figures/94-C-20-2.bmp\",\"nala:na\",\"Left\",\"39\",\"7\",\"14\",\"1\",\"S\",\"C\",\"110\"
\"\",\"\",\"approach-retreat\",\"114\",\"890982\",\"0.0-114.0\",\"\",\"\",\"1-3\",\"4843\",\"38\",\"1\",\"Training\",\"Stims/Figures/87-J-10-4.bmp\",\"tapaka\",\"Up\",\"38\",\"7\",\"15\",\"1\",\"P\",\"C\",\"111\"
\"\",\"\",\"approach-retreat\",\"115\",\"897193\",\"0.0-115.0\",\"\",\"\",\"1-3\",\"4697\",\"37\",\"1\",\"Training\",\"Stims/Figures/100-C-30-3.bmp\",\"nala:na\",\"Right\",\"37\",\"7\",\"16\",\"1\",\"S\",\"C\",\"112\"
\"\",\"\",\"approach-retreat\",\"116\",\"903517\",\"0.0-116.0\",\"\",\"\",\"1-3\",\"4814\",\"37\",\"1\",\"Training\",\"Stims/Figures/84-C-20-2.bmp\",\"nala:na\",\"Right\",\"37\",\"8\",\"1\",\"1\",\"S\",\"C\",\"113\"
\"\",\"\",\"approach-retreat\",\"117\",\"909460\",\"0.0-117.0\",\"\",\"\",\"1-3\",\"4433\",\"37\",\"1\",\"Training\",\"Stims/Figures/144-J-10-3.bmp\",\"tapaka\",\"Left\",\"37\",\"8\",\"2\",\"1\",\"P\",\"C\",\"114\"
\"\",\"\",\"approach-retreat\",\"118\",\"916316\",\"0.0-118.0\",\"\",\"\",\"1-3\",\"5345\",\"37\",\"1\",\"Training\",\"Stims/Figures/87-C-20-4.bmp\",\"nala:na\",\"Right\",\"37\",\"8\",\"3\",\"1\",\"S\",\"C\",\"115\"
\"\",\"\",\"approach-retreat\",\"119\",\"923054\",\"0.0-119.0\",\"\",\"\",\"1-3\",\"5227\",\"37\",\"1\",\"Training\",\"Stims/Figures/84-J-0-2.bmp\",\"tapaka\",\"Left\",\"37\",\"8\",\"4\",\"1\",\"P\",\"C\",\"116\"
\"\",\"\",\"approach-retreat\",\"120\",\"928876\",\"0.0-120.0\",\"\",\"\",\"1-3\",\"4312\",\"40\",\"0\",\"Training\",\"Stims/Figures/71-J-0-1.bmp\",\"tapaka\",\"Up\",\"38\",\"8\",\"5\",\"1\",\"P\",\"C\",\"117\"
\"\",\"\",\"approach-retreat\",\"121\",\"934397\",\"0.0-121.0\",\"\",\"\",\"1-3\",\"4007\",\"38\",\"0\",\"Training\",\"Stims/Figures/94-J-0-2.bmp\",\"tapaka\",\"Down\",\"40\",\"8\",\"6\",\"1\",\"P\",\"C\",\"118\"
\"\",\"\",\"approach-retreat\",\"122\",\"940075\",\"0.0-122.0\",\"\",\"\",\"1-3\",\"4168\",\"37\",\"1\",\"Training\",\"Stims/Figures/94-C-20-2.bmp\",\"nala:na\",\"Right\",\"37\",\"8\",\"7\",\"1\",\"S\",\"C\",\"119\"
\"\",\"\",\"approach-retreat\",\"123\",\"946279\",\"0.0-123.0\",\"\",\"\",\"1-3\",\"4692\",\"40\",\"1\",\"Training\",\"Stims/Figures/27-C-30-1.bmp\",\"nala:na\",\"Up\",\"40\",\"8\",\"8\",\"1\",\"S\",\"C\",\"120\"
\"\",\"\",\"approach-retreat\",\"124\",\"952426\",\"0.0-124.0\",\"\",\"\",\"1-3\",\"4636\",\"38\",\"1\",\"Training\",\"Stims/Figures/100-J-10-3.bmp\",\"tapaka\",\"Up\",\"38\",\"8\",\"9\",\"1\",\"P\",\"C\",\"121\"
\"\",\"\",\"approach-retreat\",\"125\",\"958927\",\"0.0-125.0\",\"\",\"\",\"1-3\",\"4988\",\"38\",\"1\",\"Training\",\"Stims/Figures/100-C-30-3.bmp\",\"nala:na\",\"Down\",\"38\",\"8\",\"10\",\"1\",\"S\",\"C\",\"122\"
\"\",\"\",\"approach-retreat\",\"126\",\"965581\",\"0.0-126.0\",\"\",\"\",\"1-3\",\"5141\",\"37\",\"1\",\"Training\",\"Stims/Figures/144-C-30-3.bmp\",\"nala:na\",\"Right\",\"37\",\"8\",\"11\",\"1\",\"S\",\"C\",\"123\"
\"\",\"\",\"approach-retreat\",\"127\",\"971420\",\"0.0-127.0\",\"\",\"\",\"1-3\",\"4327\",\"40\",\"1\",\"Training\",\"Stims/Figures/74-J-10-4.bmp\",\"tapaka\",\"Down\",\"40\",\"8\",\"12\",\"1\",\"P\",\"C\",\"124\"
\"\",\"\",\"approach-retreat\",\"128\",\"977383\",\"0.0-128.0\",\"\",\"\",\"1-3\",\"4451\",\"40\",\"1\",\"Training\",\"Stims/Figures/74-C-20-4.bmp\",\"nala:na\",\"Up\",\"40\",\"8\",\"13\",\"1\",\"S\",\"C\",\"125\"
\"\",\"\",\"approach-retreat\",\"129\",\"983359\",\"0.0-129.0\",\"\",\"\",\"1-3\",\"4465\",\"39\",\"0\",\"Training\",\"Stims/Figures/27-J-0-1.bmp\",\"tapaka\",\"Left\",\"37\",\"8\",\"14\",\"1\",\"P\",\"C\",\"126\"
\"\",\"\",\"approach-retreat\",\"130\",\"988832\",\"0.0-130.0\",\"\",\"\",\"1-3\",\"3961\",\"39\",\"0\",\"Training\",\"Stims/Figures/87-J-10-4.bmp\",\"tapaka\",\"Left\",\"37\",\"8\",\"15\",\"1\",\"P\",\"C\",\"127\"
\"\",\"\",\"approach-retreat\",\"131\",\"994798\",\"0.0-131.0\",\"\",\"\",\"1-3\",\"4454\",\"40\",\"0\",\"Training\",\"Stims/Figures/71-C-30-1.bmp\",\"nala:na\",\"Down\",\"38\",\"8\",\"16\",\"1\",\"S\",\"C\",\"128\"
\"\",\"\",\"approach-retreat\",\"132\",\"1000280\",\"0.0-132.0\",\"\",\"\",\"1-3\",\"3967\",\"37\",\"0\",\"Training\",\"Stims/Figures/27-C-30-1.bmp\",\"nala:na\",\"Left\",\"39\",\"9\",\"1\",\"1\",\"S\",\"C\",\"129\"
\"\",\"\",\"approach-retreat\",\"133\",\"1005584\",\"0.0-133.0\",\"\",\"\",\"1-3\",\"3793\",\"40\",\"1\",\"Training\",\"Stims/Figures/84-C-20-2.bmp\",\"nala:na\",\"Up\",\"40\",\"9\",\"2\",\"1\",\"S\",\"C\",\"130\"
\"\",\"\",\"approach-retreat\",\"134\",\"1010888\",\"0.0-134.0\",\"\",\"\",\"1-3\",\"3793\",\"39\",\"1\",\"Training\",\"Stims/Figures/94-C-20-2.bmp\",\"nala:na\",\"Left\",\"39\",\"9\",\"3\",\"1\",\"S\",\"C\",\"131\"
\"\",\"\",\"approach-retreat\",\"135\",\"1015984\",\"0.0-135.0\",\"\",\"\",\"1-3\",\"3580\",\"37\",\"1\",\"Training\",\"Stims/Figures/144-C-30-3.bmp\",\"nala:na\",\"Right\",\"37\",\"9\",\"4\",\"1\",\"S\",\"C\",\"132\"
\"\",\"\",\"approach-retreat\",\"136\",\"1021103\",\"0.0-136.0\",\"\",\"\",\"1-3\",\"3608\",\"40\",\"0\",\"Training\",\"Stims/Figures/74-J-10-4.bmp\",\"tapaka\",\"Up\",\"38\",\"9\",\"5\",\"1\",\"P\",\"C\",\"133\"
\"\",\"\",\"approach-retreat\",\"137\",\"1026597\",\"0.0-137.0\",\"\",\"\",\"1-3\",\"3988\",\"38\",\"1\",\"Training\",\"Stims/Figures/71-J-0-1.bmp\",\"tapaka\",\"Up\",\"38\",\"9\",\"6\",\"1\",\"P\",\"C\",\"134\"
\"\",\"\",\"approach-retreat\",\"138\",\"1033595\",\"0.0-138.0\",\"\",\"\",\"1-3\",\"5488\",\"40\",\"1\",\"Training\",\"Stims/Figures/94-J-0-2.bmp\",\"tapaka\",\"Down\",\"40\",\"9\",\"7\",\"1\",\"P\",\"C\",\"135\"
\"\",\"\",\"approach-retreat\",\"139\",\"1039577\",\"0.0-139.0\",\"\",\"\",\"1-3\",\"4471\",\"38\",\"1\",\"Training\",\"Stims/Figures/71-C-30-1.bmp\",\"nala:na\",\"Down\",\"38\",\"9\",\"8\",\"1\",\"S\",\"C\",\"136\"
\"\",\"\",\"approach-retreat\",\"140\",\"1045353\",\"0.0-140.0\",\"\",\"\",\"1-3\",\"4265\",\"40\",\"1\",\"Training\",\"Stims/Figures/87-C-20-4.bmp\",\"nala:na\",\"Up\",\"40\",\"9\",\"9\",\"1\",\"S\",\"C\",\"137\"
\"\",\"\",\"approach-retreat\",\"141\",\"1051099\",\"0.0-141.0\",\"\",\"\",\"1-3\",\"4236\",\"37\",\"1\",\"Training\",\"Stims/Figures/144-J-10-3.bmp\",\"tapaka\",\"Left\",\"37\",\"9\",\"10\",\"1\",\"P\",\"C\",\"138\"
\"\",\"\",\"approach-retreat\",\"142\",\"1056989\",\"0.0-142.0\",\"\",\"\",\"1-3\",\"4380\",\"39\",\"1\",\"Training\",\"Stims/Figures/87-J-10-4.bmp\",\"tapaka\",\"Right\",\"39\",\"9\",\"11\",\"1\",\"P\",\"C\",\"139\"
\"\",\"\",\"approach-retreat\",\"143\",\"1062737\",\"0.0-143.0\",\"\",\"\",\"1-3\",\"4235\",\"38\",\"0\",\"Training\",\"Stims/Figures/100-J-10-3.bmp\",\"tapaka\",\"Down\",\"40\",\"9\",\"12\",\"1\",\"P\",\"C\",\"140\"
\"\",\"\",\"approach-retreat\",\"144\",\"1068813\",\"0.0-144.0\",\"\",\"\",\"1-3\",\"4568\",\"38\",\"1\",\"Training\",\"Stims/Figures/100-C-30-3.bmp\",\"nala:na\",\"Down\",\"38\",\"9\",\"13\",\"1\",\"S\",\"C\",\"141\"
\"\",\"\",\"approach-retreat\",\"145\",\"1075425\",\"0.0-145.0\",\"\",\"\",\"1-3\",\"5099\",\"39\",\"1\",\"Training\",\"Stims/Figures/74-C-20-4.bmp\",\"nala:na\",\"Left\",\"39\",\"9\",\"14\",\"1\",\"S\",\"C\",\"142\"
\"\",\"\",\"approach-retreat\",\"146\",\"1080966\",\"0.0-146.0\",\"\",\"\",\"1-3\",\"4028\",\"39\",\"1\",\"Training\",\"Stims/Figures/84-J-0-2.bmp\",\"tapaka\",\"Right\",\"39\",\"9\",\"15\",\"1\",\"P\",\"C\",\"143\"
\"\",\"\",\"approach-retreat\",\"147\",\"1088053\",\"0.0-147.0\",\"\",\"\",\"1-3\",\"5576\",\"39\",\"1\",\"Training\",\"Stims/Figures/27-J-0-1.bmp\",\"tapaka\",\"Right\",\"39\",\"9\",\"16\",\"1\",\"P\",\"C\",\"144\"
\"20086\",\"\",\"instructions\",\"148\",\"1108139\",\"0.0-148.0\",\"[{\"\"page_index\"\":0,\"\"viewing_time\"\":20085}]\",\"\",\"\",\"\",\"\",\"\",\"\",\"\",\"\",\"\",\"\",\"\",\"\",\"\",\"\",\"\",\"\"
\"\",\"\",\"approach-retreat\",\"149\",\"1114342\",\"0.0-149.0\",\"\",\"\",\"1-3\",\"4693\",\"37\",\"1\",\"Testing\",\"Stims/Figures/84-J-0-2.bmp\",\"tapaka\",\"Left\",\"37\",\"1\",\"1\",\"1\",\"P\",\"C\",\"1\"
\"\",\"\",\"approach-retreat\",\"150\",\"1120949\",\"0.0-150.0\",\"\",\"\",\"1-3\",\"5097\",\"40\",\"1\",\"Testing\",\"Stims/Figures/100-J-10-3.bmp\",\"tapaka\",\"Down\",\"40\",\"1\",\"2\",\"1\",\"P\",\"C\",\"2\"
\"\",\"\",\"approach-retreat\",\"151\",\"1126542\",\"0.0-151.0\",\"\",\"\",\"1-3\",\"4084\",\"37\",\"1\",\"Testing\",\"Stims/Figures/7-C-20-4.bmp\",\"nala:na\",\"Right\",\"37\",\"1\",\"3\",\"1\",\"S\",\"C\",\"3\"
\"\",\"\",\"approach-retreat\",\"152\",\"1132746\",\"0.0-152.0\",\"\",\"\",\"1-3\",\"4695\",\"38\",\"1\",\"Testing\",\"Stims/Figures/7-J-10-4.bmp\",\"tapaka\",\"Up\",\"38\",\"1\",\"4\",\"1\",\"P\",\"C\",\"4\"
\"\",\"\",\"approach-retreat\",\"153\",\"1138365\",\"0.0-153.0\",\"\",\"\",\"1-3\",\"4108\",\"37\",\"1\",\"Testing\",\"Stims/Figures/128-C-30-3.bmp\",\"nala:na\",\"Right\",\"37\",\"1\",\"5\",\"1\",\"S\",\"C\",\"5\"
\"\",\"\",\"approach-retreat\",\"154\",\"1144040\",\"0.0-154.0\",\"\",\"\",\"1-3\",\"4166\",\"37\",\"1\",\"Testing\",\"Stims/Figures/85-C-20-2.bmp\",\"nala:na\",\"Right\",\"37\",\"1\",\"6\",\"1\",\"S\",\"C\",\"6\"
\"\",\"\",\"approach-retreat\",\"155\",\"1149769\",\"0.0-155.0\",\"\",\"\",\"1-3\",\"4219\",\"39\",\"1\",\"Testing\",\"Stims/Figures/100-C-30-3.bmp\",\"nala:na\",\"Left\",\"39\",\"1\",\"7\",\"1\",\"S\",\"C\",\"7\"
\"\",\"\",\"approach-retreat\",\"156\",\"1155243\",\"0.0-156.0\",\"\",\"\",\"1-3\",\"3966\",\"37\",\"0\",\"Testing\",\"Stims/Figures/128-J-10-3.bmp\",\"tapaka\",\"Right\",\"39\",\"1\",\"8\",\"1\",\"P\",\"C\",\"8\"
\"\",\"\",\"approach-retreat\",\"157\",\"1160988\",\"0.0-157.0\",\"\",\"\",\"1-3\",\"4234\",\"38\",\"1\",\"Testing\",\"Stims/Figures/27-J-0-1.bmp\",\"tapaka\",\"Up\",\"38\",\"1\",\"9\",\"1\",\"P\",\"C\",\"9\"
\"\",\"\",\"approach-retreat\",\"158\",\"1166479\",\"0.0-158.0\",\"\",\"\",\"1-3\",\"3979\",\"38\",\"1\",\"Testing\",\"Stims/Figures/71-J-0-1.bmp\",\"tapaka\",\"Up\",\"38\",\"1\",\"10\",\"1\",\"P\",\"C\",\"10\"
\"\",\"\",\"approach-retreat\",\"159\",\"1172147\",\"0.0-159.0\",\"\",\"\",\"1-3\",\"4158\",\"40\",\"1\",\"Testing\",\"Stims/Figures/74-C-20-4.bmp\",\"nala:na\",\"Up\",\"40\",\"1\",\"11\",\"1\",\"S\",\"C\",\"11\"
\"\",\"\",\"approach-retreat\",\"160\",\"1177863\",\"0.0-160.0\",\"\",\"\",\"1-3\",\"4205\",\"38\",\"1\",\"Testing\",\"Stims/Figures/27-C-30-1.bmp\",\"nala:na\",\"Down\",\"38\",\"1\",\"12\",\"1\",\"S\",\"C\",\"12\"
\"\",\"\",\"approach-retreat\",\"161\",\"1183626\",\"0.0-161.0\",\"\",\"\",\"1-3\",\"4254\",\"40\",\"1\",\"Testing\",\"Stims/Figures/86-J-0-1.bmp\",\"tapaka\",\"Down\",\"40\",\"1\",\"13\",\"1\",\"P\",\"C\",\"13\"
\"\",\"\",\"approach-retreat\",\"162\",\"1191624\",\"0.0-162.0\",\"\",\"\",\"1-3\",\"6490\",\"37\",\"0\",\"Testing\",\"Stims/Figures/74-J-10-4.bmp\",\"tapaka\",\"Right\",\"39\",\"1\",\"14\",\"1\",\"P\",\"C\",\"14\"
\"\",\"\",\"approach-retreat\",\"163\",\"1197328\",\"0.0-163.0\",\"\",\"\",\"1-3\",\"4194\",\"40\",\"1\",\"Testing\",\"Stims/Figures/87-C-20-4.bmp\",\"nala:na\",\"Up\",\"40\",\"1\",\"15\",\"1\",\"S\",\"C\",\"15\"
\"\",\"\",\"approach-retreat\",\"164\",\"1203109\",\"0.0-164.0\",\"\",\"\",\"1-3\",\"4271\",\"39\",\"1\",\"Testing\",\"Stims/Figures/71-C-30-1.bmp\",\"nala:na\",\"Left\",\"39\",\"1\",\"16\",\"1\",\"S\",\"C\",\"16\"
\"\",\"\",\"approach-retreat\",\"165\",\"1209473\",\"0.0-165.0\",\"\",\"\",\"1-3\",\"4851\",\"38\",\"1\",\"Testing\",\"Stims/Figures/94-C-20-2.bmp\",\"nala:na\",\"Down\",\"38\",\"1\",\"17\",\"1\",\"S\",\"C\",\"17\"
\"\",\"\",\"approach-retreat\",\"166\",\"1216579\",\"0.0-166.0\",\"\",\"\",\"1-3\",\"5596\",\"38\",\"1\",\"Testing\",\"Stims/Figures/144-C-30-3.bmp\",\"nala:na\",\"Down\",\"38\",\"1\",\"18\",\"1\",\"S\",\"C\",\"18\"
\"\",\"\",\"approach-retreat\",\"167\",\"1222319\",\"0.0-167.0\",\"\",\"\",\"1-3\",\"4222\",\"38\",\"1\",\"Testing\",\"Stims/Figures/84-C-20-2.bmp\",\"nala:na\",\"Down\",\"38\",\"1\",\"19\",\"1\",\"S\",\"C\",\"19\"
\"\",\"\",\"approach-retreat\",\"168\",\"1227756\",\"0.0-168.0\",\"\",\"\",\"1-3\",\"3927\",\"37\",\"1\",\"Testing\",\"Stims/Figures/144-J-10-3.bmp\",\"tapaka\",\"Left\",\"37\",\"1\",\"20\",\"1\",\"P\",\"C\",\"20\"
\"\",\"\",\"approach-retreat\",\"169\",\"1233085\",\"0.0-169.0\",\"\",\"\",\"1-3\",\"3821\",\"37\",\"1\",\"Testing\",\"Stims/Figures/87-J-10-4.bmp\",\"tapaka\",\"Left\",\"37\",\"1\",\"21\",\"1\",\"P\",\"C\",\"21\"
\"\",\"\",\"approach-retreat\",\"170\",\"1238452\",\"0.0-170.0\",\"\",\"\",\"1-3\",\"3855\",\"37\",\"1\",\"Testing\",\"Stims/Figures/94-J-0-2.bmp\",\"tapaka\",\"Left\",\"37\",\"1\",\"22\",\"1\",\"P\",\"C\",\"22\"
\"\",\"\",\"approach-retreat\",\"171\",\"1243776\",\"0.0-171.0\",\"\",\"\",\"1-3\",\"3813\",\"38\",\"0\",\"Testing\",\"Stims/Figures/86-C-30-1.bmp\",\"nala:na\",\"Up\",\"40\",\"1\",\"23\",\"1\",\"S\",\"C\",\"23\"
\"\",\"\",\"approach-retreat\",\"172\",\"1249216\",\"0.0-172.0\",\"\",\"\",\"1-3\",\"3933\",\"37\",\"0\",\"Testing\",\"Stims/Figures/85-J-0-2.bmp\",\"tapaka\",\"Right\",\"39\",\"1\",\"24\",\"1\",\"P\",\"C\",\"24\"
\"\",\"\",\"approach-retreat\",\"173\",\"1255037\",\"0.0-173.0\",\"\",\"\",\"1-3\",\"4317\",\"40\",\"0\",\"Testing\",\"Stims/Figures/144-J-10-3.bmp\",\"tapaka\",\"Up\",\"38\",\"2\",\"1\",\"1\",\"P\",\"C\",\"25\"
\"\",\"\",\"approach-retreat\",\"174\",\"1260698\",\"0.0-174.0\",\"\",\"\",\"1-3\",\"4153\",\"39\",\"0\",\"Testing\",\"Stims/Figures/74-J-10-4.bmp\",\"tapaka\",\"Left\",\"37\",\"2\",\"2\",\"1\",\"P\",\"C\",\"26\"
\"\",\"\",\"approach-retreat\",\"175\",\"1266654\",\"0.0-175.0\",\"\",\"\",\"1-3\",\"4447\",\"37\",\"1\",\"Testing\",\"Stims/Figures/87-C-20-4.bmp\",\"nala:na\",\"Right\",\"37\",\"2\",\"3\",\"1\",\"S\",\"C\",\"27\"
\"\",\"\",\"approach-retreat\",\"176\",\"1272345\",\"0.0-176.0\",\"\",\"\",\"1-3\",\"4183\",\"38\",\"1\",\"Testing\",\"Stims/Figures/71-J-0-1.bmp\",\"tapaka\",\"Up\",\"38\",\"2\",\"4\",\"1\",\"P\",\"C\",\"28\"
\"\",\"\",\"approach-retreat\",\"177\",\"1277971\",\"0.0-177.0\",\"\",\"\",\"1-3\",\"4116\",\"39\",\"1\",\"Testing\",\"Stims/Figures/128-C-30-3.bmp\",\"nala:na\",\"Left\",\"39\",\"2\",\"5\",\"1\",\"S\",\"C\",\"29\"
\"\",\"\",\"approach-retreat\",\"178\",\"1283573\",\"0.0-178.0\",\"\",\"\",\"1-3\",\"4092\",\"40\",\"1\",\"Testing\",\"Stims/Figures/85-J-0-2.bmp\",\"tapaka\",\"Down\",\"40\",\"2\",\"6\",\"1\",\"P\",\"C\",\"30\"
\"\",\"\",\"approach-retreat\",\"179\",\"1289258\",\"0.0-179.0\",\"\",\"\",\"1-3\",\"4177\",\"38\",\"1\",\"Testing\",\"Stims/Figures/85-C-20-2.bmp\",\"nala:na\",\"Down\",\"38\",\"2\",\"7\",\"1\",\"S\",\"C\",\"31\"
\"\",\"\",\"approach-retreat\",\"180\",\"1294851\",\"0.0-180.0\",\"\",\"\",\"1-3\",\"4078\",\"37\",\"1\",\"Testing\",\"Stims/Figures/100-J-10-3.bmp\",\"tapaka\",\"Left\",\"37\",\"2\",\"8\",\"1\",\"P\",\"C\",\"32\"
\"\",\"\",\"approach-retreat\",\"181\",\"1300346\",\"0.0-181.0\",\"\",\"\",\"1-3\",\"3985\",\"39\",\"0\",\"Testing\",\"Stims/Figures/74-C-20-4.bmp\",\"nala:na\",\"Right\",\"37\",\"2\",\"9\",\"1\",\"S\",\"C\",\"33\"
\"\",\"\",\"approach-retreat\",\"182\",\"1306385\",\"0.0-182.0\",\"\",\"\",\"1-3\",\"4528\",\"40\",\"0\",\"Testing\",\"Stims/Figures/100-C-30-3.bmp\",\"nala:na\",\"Down\",\"38\",\"2\",\"10\",\"1\",\"S\",\"C\",\"34\"
\"\",\"\",\"approach-retreat\",\"183\",\"1312251\",\"0.0-183.0\",\"\",\"\",\"1-3\",\"4355\",\"37\",\"1\",\"Testing\",\"Stims/Figures/7-J-10-4.bmp\",\"tapaka\",\"Left\",\"37\",\"2\",\"11\",\"1\",\"P\",\"C\",\"35\"
\"\",\"\",\"approach-retreat\",\"184\",\"1317871\",\"0.0-184.0\",\"\",\"\",\"1-3\",\"4112\",\"39\",\"1\",\"Testing\",\"Stims/Figures/128-J-10-3.bmp\",\"tapaka\",\"Right\",\"39\",\"2\",\"12\",\"1\",\"P\",\"C\",\"36\"
\"\",\"\",\"approach-retreat\",\"185\",\"1323752\",\"0.0-185.0\",\"\",\"\",\"1-3\",\"4372\",\"40\",\"1\",\"Testing\",\"Stims/Figures/86-C-30-1.bmp\",\"nala:na\",\"Up\",\"40\",\"2\",\"13\",\"1\",\"S\",\"C\",\"37\"
\"\",\"\",\"approach-retreat\",\"186\",\"1329550\",\"0.0-186.0\",\"\",\"\",\"1-3\",\"4286\",\"39\",\"1\",\"Testing\",\"Stims/Figures/86-J-0-1.bmp\",\"tapaka\",\"Right\",\"39\",\"2\",\"14\",\"1\",\"P\",\"C\",\"38\"
\"\",\"\",\"approach-retreat\",\"187\",\"1335339\",\"0.0-187.0\",\"\",\"\",\"1-3\",\"4280\",\"40\",\"0\",\"Testing\",\"Stims/Figures/27-C-30-1.bmp\",\"nala:na\",\"Down\",\"38\",\"2\",\"15\",\"1\",\"S\",\"C\",\"39\"
\"\",\"\",\"approach-retreat\",\"188\",\"1347353\",\"0.0-188.0\",\"\",\"\",\"1-3\",\"10505\",\"38\",\"0\",\"Testing\",\"Stims/Figures/94-C-20-2.bmp\",\"nala:na\",\"Up\",\"40\",\"2\",\"16\",\"1\",\"S\",\"C\",\"40\"
\"\",\"\",\"approach-retreat\",\"189\",\"1352900\",\"0.0-189.0\",\"\",\"\",\"1-3\",\"4038\",\"38\",\"1\",\"Testing\",\"Stims/Figures/27-J-0-1.bmp\",\"tapaka\",\"Up\",\"38\",\"2\",\"17\",\"1\",\"P\",\"C\",\"41\"
\"\",\"\",\"approach-retreat\",\"190\",\"1358525\",\"0.0-190.0\",\"\",\"\",\"1-3\",\"4118\",\"40\",\"1\",\"Testing\",\"Stims/Figures/144-C-30-3.bmp\",\"nala:na\",\"Up\",\"40\",\"2\",\"18\",\"1\",\"S\",\"C\",\"42\"
\"\",\"\",\"approach-retreat\",\"191\",\"1364316\",\"0.0-191.0\",\"\",\"\",\"1-3\",\"4280\",\"39\",\"1\",\"Testing\",\"Stims/Figures/94-J-0-2.bmp\",\"tapaka\",\"Right\",\"39\",\"2\",\"19\",\"1\",\"P\",\"C\",\"43\"
\"\",\"\",\"approach-retreat\",\"192\",\"1369758\",\"0.0-192.0\",\"\",\"\",\"1-3\",\"3931\",\"40\",\"0\",\"Testing\",\"Stims/Figures/7-C-20-4.bmp\",\"nala:na\",\"Down\",\"38\",\"2\",\"20\",\"1\",\"S\",\"C\",\"44\"
\"\",\"\",\"approach-retreat\",\"193\",\"1375580\",\"0.0-193.0\",\"\",\"\",\"1-3\",\"4316\",\"38\",\"1\",\"Testing\",\"Stims/Figures/84-C-20-2.bmp\",\"nala:na\",\"Down\",\"38\",\"2\",\"21\",\"1\",\"S\",\"C\",\"45\"
\"\",\"\",\"approach-retreat\",\"194\",\"1381017\",\"0.0-194.0\",\"\",\"\",\"1-3\",\"3926\",\"37\",\"1\",\"Testing\",\"Stims/Figures/84-J-0-2.bmp\",\"tapaka\",\"Left\",\"37\",\"2\",\"22\",\"1\",\"P\",\"C\",\"46\"
\"\",\"\",\"approach-retreat\",\"195\",\"1386712\",\"0.0-195.0\",\"\",\"\",\"1-3\",\"4185\",\"39\",\"1\",\"Testing\",\"Stims/Figures/71-C-30-1.bmp\",\"nala:na\",\"Left\",\"39\",\"2\",\"23\",\"1\",\"S\",\"C\",\"47\"
\"\",\"\",\"approach-retreat\",\"196\",\"1392108\",\"0.0-196.0\",\"\",\"\",\"1-3\",\"3887\",\"39\",\"1\",\"Testing\",\"Stims/Figures/87-J-10-4.bmp\",\"tapaka\",\"Right\",\"39\",\"2\",\"24\",\"1\",\"P\",\"C\",\"48\"
\"\",\"\",\"approach-retreat\",\"197\",\"1397889\",\"0.0-197.0\",\"\",\"\",\"1-3\",\"4268\",\"38\",\"0\",\"Testing\",\"Stims/Figures/144-J-10-3.bmp\",\"tapaka\",\"Down\",\"40\",\"3\",\"1\",\"1\",\"P\",\"C\",\"49\"
\"\",\"\",\"approach-retreat\",\"198\",\"1403626\",\"0.0-198.0\",\"\",\"\",\"1-3\",\"4228\",\"39\",\"0\",\"Testing\",\"Stims/Figures/85-C-20-2.bmp\",\"nala:na\",\"Right\",\"37\",\"3\",\"2\",\"1\",\"S\",\"C\",\"50\"
\"\",\"\",\"approach-retreat\",\"199\",\"1409247\",\"0.0-199.0\",\"\",\"\",\"1-3\",\"4112\",\"37\",\"1\",\"Testing\",\"Stims/Figures/128-J-10-3.bmp\",\"tapaka\",\"Left\",\"37\",\"3\",\"3\",\"1\",\"P\",\"C\",\"51\"
\"\",\"\",\"approach-retreat\",\"200\",\"1414810\",\"0.0-200.0\",\"\",\"\",\"1-3\",\"4053\",\"38\",\"1\",\"Testing\",\"Stims/Figures/7-C-20-4.bmp\",\"nala:na\",\"Down\",\"38\",\"3\",\"4\",\"1\",\"S\",\"C\",\"52\"
\"\",\"\",\"approach-retreat\",\"201\",\"1421091\",\"0.0-201.0\",\"\",\"\",\"1-3\",\"4771\",\"40\",\"0\",\"Testing\",\"Stims/Figures/94-C-20-2.bmp\",\"nala:na\",\"Down\",\"38\",\"3\",\"5\",\"1\",\"S\",\"C\",\"53\"
\"\",\"\",\"approach-retreat\",\"202\",\"1427204\",\"0.0-202.0\",\"\",\"\",\"1-3\",\"4603\",\"37\",\"1\",\"Testing\",\"Stims/Figures/27-J-0-1.bmp\",\"tapaka\",\"Left\",\"37\",\"3\",\"6\",\"1\",\"P\",\"C\",\"54\"
\"\",\"\",\"approach-retreat\",\"203\",\"1432651\",\"0.0-203.0\",\"\",\"\",\"1-3\",\"3935\",\"37\",\"0\",\"Testing\",\"Stims/Figures/84-J-0-2.bmp\",\"tapaka\",\"Right\",\"39\",\"3\",\"7\",\"1\",\"P\",\"C\",\"55\"
\"\",\"\",\"approach-retreat\",\"204\",\"1437731\",\"0.0-204.0\",\"\",\"\",\"1-3\",\"3570\",\"40\",\"1\",\"Testing\",\"Stims/Figures/74-C-20-4.bmp\",\"nala:na\",\"Up\",\"40\",\"3\",\"8\",\"1\",\"S\",\"C\",\"56\"
\"\",\"\",\"approach-retreat\",\"205\",\"1443432\",\"0.0-205.0\",\"\",\"\",\"1-3\",\"4192\",\"40\",\"0\",\"Testing\",\"Stims/Figures/27-C-30-1.bmp\",\"nala:na\",\"Down\",\"38\",\"3\",\"9\",\"1\",\"S\",\"C\",\"57\"
\"\",\"\",\"approach-retreat\",\"206\",\"1448906\",\"0.0-206.0\",\"\",\"\",\"1-3\",\"3963\",\"40\",\"1\",\"Testing\",\"Stims/Figures/87-C-20-4.bmp\",\"nala:na\",\"Up\",\"40\",\"3\",\"10\",\"1\",\"S\",\"C\",\"58\"
\"\",\"\",\"approach-retreat\",\"207\",\"1454467\",\"0.0-207.0\",\"\",\"\",\"1-3\",\"4051\",\"38\",\"1\",\"Testing\",\"Stims/Figures/100-C-30-3.bmp\",\"nala:na\",\"Down\",\"38\",\"3\",\"11\",\"1\",\"S\",\"C\",\"59\"
\"\",\"\",\"approach-retreat\",\"208\",\"1460160\",\"0.0-208.0\",\"\",\"\",\"1-3\",\"4181\",\"37\",\"0\",\"Testing\",\"Stims/Figures/86-J-0-1.bmp\",\"tapaka\",\"Right\",\"39\",\"3\",\"12\",\"1\",\"P\",\"C\",\"60\"
\"\",\"\",\"approach-retreat\",\"209\",\"1465971\",\"0.0-209.0\",\"\",\"\",\"1-3\",\"4300\",\"40\",\"1\",\"Testing\",\"Stims/Figures/144-C-30-3.bmp\",\"nala:na\",\"Up\",\"40\",\"3\",\"13\",\"1\",\"S\",\"C\",\"61\"
\"\",\"\",\"approach-retreat\",\"210\",\"1471403\",\"0.0-210.0\",\"\",\"\",\"1-3\",\"3923\",\"37\",\"1\",\"Testing\",\"Stims/Figures/87-J-10-4.bmp\",\"tapaka\",\"Left\",\"37\",\"3\",\"14\",\"1\",\"P\",\"C\",\"62\"
\"\",\"\",\"approach-retreat\",\"211\",\"1477758\",\"0.0-211.0\",\"\",\"\",\"1-3\",\"4845\",\"37\",\"0\",\"Testing\",\"Stims/Figures/71-J-0-1.bmp\",\"tapaka\",\"Right\",\"39\",\"3\",\"15\",\"1\",\"P\",\"C\",\"63\"
\"\",\"\",\"approach-retreat\",\"212\",\"1484021\",\"0.0-212.0\",\"\",\"\",\"1-3\",\"4753\",\"37\",\"1\",\"Testing\",\"Stims/Figures/74-J-10-4.bmp\",\"tapaka\",\"Left\",\"37\",\"3\",\"16\",\"1\",\"P\",\"C\",\"64\"
\"\",\"\",\"approach-retreat\",\"213\",\"1489609\",\"0.0-213.0\",\"\",\"\",\"1-3\",\"4078\",\"38\",\"1\",\"Testing\",\"Stims/Figures/71-C-30-1.bmp\",\"nala:na\",\"Down\",\"38\",\"3\",\"17\",\"1\",\"S\",\"C\",\"65\"
\"\",\"\",\"approach-retreat\",\"214\",\"1495316\",\"0.0-214.0\",\"\",\"\",\"1-3\",\"4203\",\"39\",\"1\",\"Testing\",\"Stims/Figures/84-C-20-2.bmp\",\"nala:na\",\"Left\",\"39\",\"3\",\"18\",\"1\",\"S\",\"C\",\"66\"
\"\",\"\",\"approach-retreat\",\"215\",\"1500689\",\"0.0-215.0\",\"\",\"\",\"1-3\",\"3865\",\"40\",\"0\",\"Testing\",\"Stims/Figures/7-J-10-4.bmp\",\"tapaka\",\"Up\",\"38\",\"3\",\"19\",\"1\",\"P\",\"C\",\"67\"
\"\",\"\",\"approach-retreat\",\"216\",\"1507724\",\"0.0-216.0\",\"\",\"\",\"1-3\",\"5525\",\"38\",\"0\",\"Testing\",\"Stims/Figures/128-C-30-3.bmp\",\"nala:na\",\"Up\",\"40\",\"3\",\"20\",\"1\",\"S\",\"C\",\"68\"
\"\",\"\",\"approach-retreat\",\"217\",\"1514294\",\"0.0-217.0\",\"\",\"\",\"1-3\",\"5061\",\"39\",\"0\",\"Testing\",\"Stims/Figures/85-J-0-2.bmp\",\"tapaka\",\"Left\",\"37\",\"3\",\"21\",\"1\",\"P\",\"C\",\"69\"
\"\",\"\",\"approach-retreat\",\"218\",\"1519693\",\"0.0-218.0\",\"\",\"\",\"1-3\",\"3891\",\"37\",\"1\",\"Testing\",\"Stims/Figures/86-C-30-1.bmp\",\"nala:na\",\"Right\",\"37\",\"3\",\"22\",\"1\",\"S\",\"C\",\"70\"
\"\",\"\",\"approach-retreat\",\"219\",\"1525124\",\"0.0-219.0\",\"\",\"\",\"1-3\",\"3919\",\"37\",\"0\",\"Testing\",\"Stims/Figures/100-J-10-3.bmp\",\"tapaka\",\"Right\",\"39\",\"3\",\"23\",\"1\",\"P\",\"C\",\"71\"
\"\",\"\",\"approach-retreat\",\"220\",\"1530743\",\"0.0-220.0\",\"\",\"\",\"1-3\",\"4110\",\"40\",\"0\",\"Testing\",\"Stims/Figures/94-J-0-2.bmp\",\"tapaka\",\"Up\",\"38\",\"3\",\"24\",\"1\",\"P\",\"C\",\"72\"
\"\",\"\",\"approach-retreat\",\"221\",\"1536547\",\"0.0-221.0\",\"\",\"\",\"1-3\",\"4296\",\"39\",\"1\",\"Testing\",\"Stims/Figures/144-J-10-3.bmp\",\"tapaka\",\"Right\",\"39\",\"4\",\"1\",\"1\",\"P\",\"C\",\"73\"
\"\",\"\",\"approach-retreat\",\"222\",\"1542444\",\"0.0-222.0\",\"\",\"\",\"1-3\",\"4386\",\"40\",\"1\",\"Testing\",\"Stims/Figures/94-J-0-2.bmp\",\"tapaka\",\"Down\",\"40\",\"4\",\"2\",\"1\",\"P\",\"C\",\"74\"
\"\",\"\",\"approach-retreat\",\"223\",\"1549268\",\"0.0-223.0\",\"\",\"\",\"1-3\",\"5315\",\"37\",\"0\",\"Testing\",\"Stims/Figures/94-C-20-2.bmp\",\"nala:na\",\"Left\",\"39\",\"4\",\"3\",\"1\",\"S\",\"C\",\"75\"
\"\",\"\",\"approach-retreat\",\"224\",\"1555500\",\"0.0-224.0\",\"\",\"\",\"1-3\",\"4723\",\"38\",\"0\",\"Testing\",\"Stims/Figures/85-J-0-2.bmp\",\"tapaka\",\"Down\",\"40\",\"4\",\"4\",\"1\",\"P\",\"C\",\"76\"
\"\",\"\",\"approach-retreat\",\"225\",\"1566541\",\"0.0-225.0\",\"\",\"\",\"1-3\",\"9531\",\"38\",\"1\",\"Testing\",\"Stims/Figures/86-J-0-1.bmp\",\"tapaka\",\"Up\",\"38\",\"4\",\"5\",\"1\",\"P\",\"C\",\"77\"
\"\",\"\",\"approach-retreat\",\"226\",\"1572141\",\"0.0-226.0\",\"\",\"\",\"1-3\",\"4088\",\"40\",\"1\",\"Testing\",\"Stims/Figures/128-C-30-3.bmp\",\"nala:na\",\"Up\",\"40\",\"4\",\"6\",\"1\",\"S\",\"C\",\"78\"
\"\",\"\",\"approach-retreat\",\"227\",\"1577638\",\"0.0-227.0\",\"\",\"\",\"1-3\",\"3988\",\"39\",\"1\",\"Testing\",\"Stims/Figures/7-J-10-4.bmp\",\"tapaka\",\"Right\",\"39\",\"4\",\"7\",\"1\",\"P\",\"C\",\"79\"
\"\",\"\",\"approach-retreat\",\"228\",\"1583060\",\"0.0-228.0\",\"\",\"\",\"1-3\",\"3912\",\"40\",\"0\",\"Testing\",\"Stims/Figures/74-C-20-4.bmp\",\"nala:na\",\"Down\",\"38\",\"4\",\"8\",\"1\",\"S\",\"C\",\"80\"
\"\",\"\",\"approach-retreat\",\"229\",\"1588909\",\"0.0-229.0\",\"\",\"\",\"1-3\",\"4339\",\"40\",\"0\",\"Testing\",\"Stims/Figures/74-J-10-4.bmp\",\"tapaka\",\"Up\",\"38\",\"4\",\"9\",\"1\",\"P\",\"C\",\"81\"
\"\",\"\",\"approach-retreat\",\"230\",\"1594277\",\"0.0-230.0\",\"\",\"\",\"1-3\",\"3854\",\"40\",\"0\",\"Testing\",\"Stims/Figures/144-C-30-3.bmp\",\"nala:na\",\"Down\",\"38\",\"4\",\"10\",\"1\",\"S\",\"C\",\"82\"
\"\",\"\",\"approach-retreat\",\"231\",\"1599841\",\"0.0-231.0\",\"\",\"\",\"1-3\",\"4053\",\"38\",\"0\",\"Testing\",\"Stims/Figures/87-J-10-4.bmp\",\"tapaka\",\"Down\",\"40\",\"4\",\"11\",\"1\",\"P\",\"C\",\"83\"
\"\",\"\",\"approach-retreat\",\"232\",\"1605761\",\"0.0-232.0\",\"\",\"\",\"1-3\",\"4409\",\"37\",\"0\",\"Testing\",\"Stims/Figures/87-C-20-4.bmp\",\"nala:na\",\"Left\",\"39\",\"4\",\"12\",\"1\",\"S\",\"C\",\"84\"
\"\",\"\",\"approach-retreat\",\"233\",\"1611115\",\"0.0-233.0\",\"\",\"\",\"1-3\",\"3843\",\"37\",\"1\",\"Testing\",\"Stims/Figures/71-C-30-1.bmp\",\"nala:na\",\"Right\",\"37\",\"4\",\"13\",\"1\",\"S\",\"C\",\"85\"
\"\",\"\",\"approach-retreat\",\"234\",\"1616792\",\"0.0-234.0\",\"\",\"\",\"1-3\",\"4167\",\"38\",\"0\",\"Testing\",\"Stims/Figures/86-C-30-1.bmp\",\"nala:na\",\"Up\",\"40\",\"4\",\"14\",\"1\",\"S\",\"C\",\"86\"
\"\",\"\",\"approach-retreat\",\"235\",\"1624176\",\"0.0-235.0\",\"\",\"\",\"1-3\",\"5874\",\"37\",\"1\",\"Testing\",\"Stims/Figures/71-J-0-1.bmp\",\"tapaka\",\"Left\",\"37\",\"4\",\"15\",\"1\",\"P\",\"C\",\"87\"
\"\",\"\",\"approach-retreat\",\"236\",\"1629414\",\"0.0-236.0\",\"\",\"\",\"1-3\",\"3734\",\"37\",\"1\",\"Testing\",\"Stims/Figures/100-J-10-3.bmp\",\"tapaka\",\"Left\",\"37\",\"4\",\"16\",\"1\",\"P\",\"C\",\"88\"
\"\",\"\",\"approach-retreat\",\"237\",\"1635018\",\"0.0-237.0\",\"\",\"\",\"1-3\",\"4093\",\"37\",\"0\",\"Testing\",\"Stims/Figures/128-J-10-3.bmp\",\"tapaka\",\"Right\",\"39\",\"4\",\"17\",\"1\",\"P\",\"C\",\"89\"
\"\",\"\",\"approach-retreat\",\"238\",\"1641009\",\"0.0-238.0\",\"\",\"\",\"1-3\",\"4484\",\"37\",\"0\",\"Testing\",\"Stims/Figures/27-J-0-1.bmp\",\"tapaka\",\"Right\",\"39\",\"4\",\"18\",\"1\",\"P\",\"C\",\"90\"
\"\",\"\",\"approach-retreat\",\"239\",\"1648583\",\"0.0-239.0\",\"\",\"\",\"1-3\",\"6064\",\"37\",\"0\",\"Testing\",\"Stims/Figures/7-C-20-4.bmp\",\"nala:na\",\"Left\",\"39\",\"4\",\"19\",\"1\",\"S\",\"C\",\"91\"
\"\",\"\",\"approach-retreat\",\"240\",\"1654046\",\"0.0-240.0\",\"\",\"\",\"1-3\",\"3953\",\"38\",\"1\",\"Testing\",\"Stims/Figures/84-J-0-2.bmp\",\"tapaka\",\"Up\",\"38\",\"4\",\"20\",\"1\",\"P\",\"C\",\"92\"
\"\",\"\",\"approach-retreat\",\"241\",\"1659604\",\"0.0-241.0\",\"\",\"\",\"1-3\",\"4049\",\"37\",\"0\",\"Testing\",\"Stims/Figures/85-C-20-2.bmp\",\"nala:na\",\"Left\",\"39\",\"4\",\"21\",\"1\",\"S\",\"C\",\"93\"
\"\",\"\",\"approach-retreat\",\"242\",\"1665735\",\"0.0-242.0\",\"\",\"\",\"1-3\",\"4623\",\"38\",\"0\",\"Testing\",\"Stims/Figures/100-C-30-3.bmp\",\"nala:na\",\"Up\",\"40\",\"4\",\"22\",\"1\",\"S\",\"C\",\"94\"
\"\",\"\",\"approach-retreat\",\"243\",\"1671274\",\"0.0-243.0\",\"\",\"\",\"1-3\",\"4027\",\"38\",\"1\",\"Testing\",\"Stims/Figures/27-C-30-1.bmp\",\"nala:na\",\"Down\",\"38\",\"4\",\"23\",\"1\",\"S\",\"C\",\"95\"
\"\",\"\",\"approach-retreat\",\"244\",\"1676736\",\"0.0-244.0\",\"\",\"\",\"1-3\",\"3954\",\"39\",\"0\",\"Testing\",\"Stims/Figures/84-C-20-2.bmp\",\"nala:na\",\"Right\",\"37\",\"4\",\"24\",\"1\",\"S\",\"C\",\"96\"
\"33298\",\"\",\"survey-text\",\"245\",\"1710040\",\"0.0-245.0\",\"\",\"{\"\"Q0\"\":\"\"PS170037\"\"}\",\"\",\"\",\"\",\"\",\"\",\"\",\"\",\"\",\"\",\"\",\"\",\"\",\"\",\"\",\"\"
