"rt","key_press","trial_type","trial_index","time_elapsed","internal_node_id","view_history","responses","Id","Rt","ResKeyCode","ResCorr","TrialType2","Image","Label","Location","CorrectResponse","Block","BlockTrial","Condition","LabelType","Subcondition","trialNum"
"27486","32","text","0","27491","0.0-0.0-0.0","","","","","","","","","","","","","","","","",""
"146101","","instructions","1","173596","0.0-1.0","[{""page_index"":0,""viewing_time"":146100}]","","","","","","","","","","","","","","","",""
"19371","","survey-multi-choice","2","193017","0.0-2.0","","{""Q0"":""Da"",""Q1"":""Da"",""Q2"":""Da"",""Q3"":""Da"",""Q4"":""Da"",""Q5"":""Da""}","","","","","","","","","","","","","","",""
"","","bio","3","199988","0.0-3.0","","{""age"":""22"",""gender"":""m"",""specify"":""""}","","","","","","","","","","","","","","",""
"","","approach-retreat","4","208901","0.0-4.0","","","3-1","7403","38","1","Training","Stims/Figures/144-J-10-3.bmp","fa:fa:va","Down","38","1","1","3A","C1","J","1"
"","","approach-retreat","5","216863","0.0-5.0","","","3-1","6450","39","1","Training","Stims/Figures/19-C-20-4.bmp","zasa:ha","Right","39","1","2","3A","C2","J","2"
"","","approach-retreat","6","223497","0.0-6.0","","","3-1","5121","37","1","Training","Stims/Figures/27-J-0-1.bmp","fa:fa:va","Right","37","1","3","3A","C1","J","3"
"","","approach-retreat","7","228950","0.0-7.0","","","3-1","3941","37","1","Training","Stims/Figures/118-J-0-2.bmp","fa:fa:va","Right","37","1","4","3A","C1","J","4"
"","","approach-retreat","8","234941","0.0-8.0","","","3-1","4477","37","1","Training","Stims/Figures/27-C-30-1.bmp","zasa:ha","Left","37","1","5","3A","C2","J","5"
"","","approach-retreat","9","240823","0.0-9.0","","","3-1","4370","37","1","Training","Stims/Figures/128-C-30-3.bmp","zasa:ha","Left","37","1","6","3A","C2","J","6"
"","","approach-retreat","10","246623","0.0-10.0","","","3-1","4290","38","1","Training","Stims/Figures/85-C-20-2.bmp","zasa:ha","Up","38","1","7","3A","C2","J","7"
"","","approach-retreat","11","252476","0.0-11.0","","","3-1","4341","40","1","Training","Stims/Figures/144-C-30-3.bmp","zasa:ha","Down","40","1","8","3A","C2","J","8"
"","","approach-retreat","12","258265","0.0-12.0","","","3-1","4278","38","1","Training","Stims/Figures/19-J-10-4.bmp","fa:fa:va","Down","38","1","9","3A","C1","J","9"
"","","approach-retreat","13","263921","0.0-13.0","","","3-1","4146","38","1","Training","Stims/Figures/118-C-20-2.bmp","zasa:ha","Up","38","1","10","3A","C2","J","10"
"","","approach-retreat","14","269622","0.0-14.0","","","3-1","4191","38","1","Training","Stims/Figures/86-C-30-1.bmp","zasa:ha","Up","38","1","11","3A","C2","J","11"
"","","approach-retreat","15","275400","0.0-15.0","","","3-1","4266","37","1","Training","Stims/Figures/85-J-0-2.bmp","fa:fa:va","Right","37","1","12","3A","C1","J","12"
"","","approach-retreat","16","281500","0.0-16.0","","","3-1","4594","40","1","Training","Stims/Figures/128-J-10-3.bmp","fa:fa:va","Up","40","1","13","3A","C1","J","13"
"","","approach-retreat","17","287356","0.0-17.0","","","3-1","4346","39","1","Training","Stims/Figures/74-J-10-4.bmp","fa:fa:va","Left","39","1","14","3A","C1","J","14"
"","","approach-retreat","18","292955","0.0-18.0","","","3-1","4089","37","1","Training","Stims/Figures/74-C-20-4.bmp","zasa:ha","Left","37","1","15","3A","C2","J","15"
"","","approach-retreat","19","298525","0.0-19.0","","","3-1","4061","38","1","Training","Stims/Figures/86-J-0-1.bmp","fa:fa:va","Down","38","1","16","3A","C1","J","16"
"","","approach-retreat","20","304266","0.0-20.0","","","3-1","4226","40","1","Training","Stims/Figures/27-J-0-1.bmp","fa:fa:va","Up","40","2","1","3A","C1","J","17"
"","","approach-retreat","21","309904","0.0-21.0","","","3-1","4125","37","1","Training","Stims/Figures/74-C-20-4.bmp","zasa:ha","Left","37","2","2","3A","C2","J","18"
"","","approach-retreat","22","316267","0.0-22.0","","","3-1","4851","38","1","Training","Stims/Figures/128-C-30-3.bmp","zasa:ha","Up","38","2","3","3A","C2","J","19"
"","","approach-retreat","23","322196","0.0-23.0","","","3-1","4421","37","1","Training","Stims/Figures/86-C-30-1.bmp","zasa:ha","Left","37","2","4","3A","C2","J","20"
"","","approach-retreat","24","327943","0.0-24.0","","","3-1","4236","39","1","Training","Stims/Figures/144-C-30-3.bmp","zasa:ha","Right","39","2","5","3A","C2","J","21"
"","","approach-retreat","25","333653","0.0-25.0","","","3-1","4199","39","1","Training","Stims/Figures/86-J-0-1.bmp","fa:fa:va","Left","39","2","6","3A","C1","J","22"
"","","approach-retreat","26","339322","0.0-26.0","","","3-1","4158","38","1","Training","Stims/Figures/74-J-10-4.bmp","fa:fa:va","Down","38","2","7","3A","C1","J","23"
"","","approach-retreat","27","345031","0.0-27.0","","","3-1","4196","39","1","Training","Stims/Figures/19-J-10-4.bmp","fa:fa:va","Left","39","2","8","3A","C1","J","24"
"","","approach-retreat","28","350753","0.0-28.0","","","3-1","4212","38","1","Training","Stims/Figures/118-C-20-2.bmp","zasa:ha","Up","38","2","9","3A","C2","J","25"
"","","approach-retreat","29","356368","0.0-29.0","","","3-1","4099","38","1","Training","Stims/Figures/85-C-20-2.bmp","zasa:ha","Up","38","2","10","3A","C2","J","26"
"","","approach-retreat","30","361869","0.0-30.0","","","3-1","3991","37","1","Training","Stims/Figures/128-J-10-3.bmp","fa:fa:va","Right","37","2","11","3A","C1","J","27"
"","","approach-retreat","31","367667","0.0-31.0","","","3-1","4285","38","1","Training","Stims/Figures/144-J-10-3.bmp","fa:fa:va","Down","38","2","12","3A","C1","J","28"
"","","approach-retreat","32","373408","0.0-32.0","","","3-1","4226","39","1","Training","Stims/Figures/19-C-20-4.bmp","zasa:ha","Right","39","2","13","3A","C2","J","29"
"","","approach-retreat","33","379412","0.0-33.0","","","3-1","4492","37","1","Training","Stims/Figures/85-J-0-2.bmp","fa:fa:va","Right","37","2","14","3A","C1","J","30"
"","","approach-retreat","34","385003","0.0-34.0","","","3-1","4079","40","1","Training","Stims/Figures/27-C-30-1.bmp","zasa:ha","Down","40","2","15","3A","C2","J","31"
"","","approach-retreat","35","390859","0.0-35.0","","","3-1","4346","38","1","Training","Stims/Figures/118-J-0-2.bmp","fa:fa:va","Down","38","2","16","3A","C1","J","32"
"","","approach-retreat","36","397385","0.0-36.0","","","3-1","5019","39","1","Training","Stims/Figures/74-J-10-4.bmp","fa:fa:va","Left","39","3","1","3A","C1","J","33"
"","","approach-retreat","37","403140","0.0-37.0","","","3-1","4241","40","1","Training","Stims/Figures/86-C-30-1.bmp","zasa:ha","Down","40","3","2","3A","C2","J","34"
"","","approach-retreat","38","408770","0.0-38.0","","","3-1","4118","37","1","Training","Stims/Figures/74-C-20-4.bmp","zasa:ha","Left","37","3","3","3A","C2","J","35"
"","","approach-retreat","39","414463","0.0-39.0","","","3-1","4180","37","1","Training","Stims/Figures/128-J-10-3.bmp","fa:fa:va","Right","37","3","4","3A","C1","J","36"
"","","approach-retreat","40","420053","0.0-40.0","","","3-1","4081","37","1","Training","Stims/Figures/144-J-10-3.bmp","fa:fa:va","Right","37","3","5","3A","C1","J","37"
"","","approach-retreat","41","425852","0.0-41.0","","","3-1","4288","40","1","Training","Stims/Figures/27-C-30-1.bmp","zasa:ha","Down","40","3","6","3A","C2","J","38"
"","","approach-retreat","42","431547","0.0-42.0","","","3-1","4184","40","1","Training","Stims/Figures/118-J-0-2.bmp","fa:fa:va","Up","40","3","7","3A","C1","J","39"
"","","approach-retreat","43","437207","0.0-43.0","","","3-1","4149","37","1","Training","Stims/Figures/128-C-30-3.bmp","zasa:ha","Left","37","3","8","3A","C2","J","40"
"","","approach-retreat","44","443022","0.0-44.0","","","3-1","4304","38","1","Training","Stims/Figures/19-C-20-4.bmp","zasa:ha","Up","38","3","9","3A","C2","J","41"
"","","approach-retreat","45","448684","0.0-45.0","","","3-1","4151","38","1","Training","Stims/Figures/86-J-0-1.bmp","fa:fa:va","Down","38","3","10","3A","C1","J","42"
"","","approach-retreat","46","454313","0.0-46.0","","","3-1","4117","37","1","Training","Stims/Figures/27-J-0-1.bmp","fa:fa:va","Right","37","3","11","3A","C1","J","43"
"","","approach-retreat","47","460986","0.0-47.0","","","3-1","5164","39","1","Training","Stims/Figures/85-C-20-2.bmp","zasa:ha","Right","39","3","12","3A","C2","J","44"
"","","approach-retreat","48","466756","0.0-48.0","","","3-1","4257","38","1","Training","Stims/Figures/144-C-30-3.bmp","zasa:ha","Up","38","3","13","3A","C2","J","45"
"","","approach-retreat","49","472621","0.0-49.0","","","3-1","4349","40","1","Training","Stims/Figures/118-C-20-2.bmp","zasa:ha","Down","40","3","14","3A","C2","J","46"
"","","approach-retreat","50","478338","0.0-50.0","","","3-1","4207","40","1","Training","Stims/Figures/85-J-0-2.bmp","fa:fa:va","Up","40","3","15","3A","C1","J","47"
"","","approach-retreat","51","484361","0.0-51.0","","","3-1","4510","39","1","Training","Stims/Figures/19-J-10-4.bmp","fa:fa:va","Left","39","3","16","3A","C1","J","48"
"","","approach-retreat","52","491002","0.0-52.0","","","3-1","5128","39","1","Training","Stims/Figures/86-J-0-1.bmp","fa:fa:va","Left","39","4","1","3A","C1","J","49"
"","","approach-retreat","53","508588","0.0-53.0","","","3-1","16076","39","1","Training","Stims/Figures/86-C-30-1.bmp","zasa:ha","Right","39","4","2","3A","C2","J","50"
"","","approach-retreat","54","514349","0.0-54.0","","","3-1","4251","37","1","Training","Stims/Figures/85-C-20-2.bmp","zasa:ha","Left","37","4","3","3A","C2","J","51"
"","","approach-retreat","55","519915","0.0-55.0","","","3-1","4049","39","1","Training","Stims/Figures/144-J-10-3.bmp","fa:fa:va","Left","39","4","4","3A","C1","J","52"
"","","approach-retreat","56","525554","0.0-56.0","","","3-1","4130","38","1","Training","Stims/Figures/118-C-20-2.bmp","zasa:ha","Up","38","4","5","3A","C2","J","53"
"","","approach-retreat","57","531996","0.0-57.0","","","3-1","4928","38","1","Training","Stims/Figures/85-J-0-2.bmp","fa:fa:va","Down","38","4","6","3A","C1","J","54"
"","","approach-retreat","58","537612","0.0-58.0","","","3-1","4108","38","1","Training","Stims/Figures/74-J-10-4.bmp","fa:fa:va","Down","38","4","7","3A","C1","J","55"
"","","approach-retreat","59","543448","0.0-59.0","","","3-1","4325","40","1","Training","Stims/Figures/19-C-20-4.bmp","zasa:ha","Down","40","4","8","3A","C2","J","56"
"","","approach-retreat","60","549043","0.0-60.0","","","3-1","4084","40","1","Training","Stims/Figures/128-C-30-3.bmp","zasa:ha","Down","40","4","9","3A","C2","J","57"
"","","approach-retreat","61","554703","0.0-61.0","","","3-1","4148","38","1","Training","Stims/Figures/74-C-20-4.bmp","zasa:ha","Up","38","4","10","3A","C2","J","58"
"","","approach-retreat","62","560309","0.0-62.0","","","3-1","4095","39","1","Training","Stims/Figures/144-C-30-3.bmp","zasa:ha","Right","39","4","11","3A","C2","J","59"
"","","approach-retreat","63","565849","0.0-63.0","","","3-1","4027","40","1","Training","Stims/Figures/128-J-10-3.bmp","fa:fa:va","Up","40","4","12","3A","C1","J","60"
"","","approach-retreat","64","571617","0.0-64.0","","","3-1","4254","39","1","Training","Stims/Figures/118-J-0-2.bmp","fa:fa:va","Left","39","4","13","3A","C1","J","61"
"","","approach-retreat","65","577265","0.0-65.0","","","3-1","4138","37","1","Training","Stims/Figures/27-J-0-1.bmp","fa:fa:va","Right","37","4","14","3A","C1","J","62"
"","","approach-retreat","66","583478","0.0-66.0","","","3-1","4702","40","1","Training","Stims/Figures/19-J-10-4.bmp","fa:fa:va","Up","40","4","15","3A","C1","J","63"
"","","approach-retreat","67","589098","0.0-67.0","","","3-1","4110","39","1","Training","Stims/Figures/27-C-30-1.bmp","zasa:ha","Right","39","4","16","3A","C2","J","64"
"","","approach-retreat","68","596196","0.0-68.0","","","3-1","5585","38","1","Training","Stims/Figures/19-C-20-4.bmp","zasa:ha","Up","38","5","1","3A","C2","J","65"
"","","approach-retreat","69","601737","0.0-69.0","","","3-1","4029","39","1","Training","Stims/Figures/86-C-30-1.bmp","zasa:ha","Right","39","5","2","3A","C2","J","66"
"","","approach-retreat","70","607488","0.0-70.0","","","3-1","4242","40","1","Training","Stims/Figures/86-J-0-1.bmp","fa:fa:va","Up","40","5","3","3A","C1","J","67"
"","","approach-retreat","71","613892","0.0-71.0","","","3-1","4894","38","1","Training","Stims/Figures/74-C-20-4.bmp","zasa:ha","Up","38","5","4","3A","C2","J","68"
"","","approach-retreat","72","619470","0.0-72.0","","","3-1","4066","38","1","Training","Stims/Figures/118-J-0-2.bmp","fa:fa:va","Down","38","5","5","3A","C1","J","69"
"","","approach-retreat","73","626121","0.0-73.0","","","3-1","5140","39","1","Training","Stims/Figures/144-J-10-3.bmp","fa:fa:va","Left","39","5","6","3A","C1","J","70"
"","","approach-retreat","74","631731","0.0-74.0","","","3-1","4098","39","1","Training","Stims/Figures/128-C-30-3.bmp","zasa:ha","Right","39","5","7","3A","C2","J","71"
"","","approach-retreat","75","638111","0.0-75.0","","","3-1","4868","38","1","Training","Stims/Figures/19-J-10-4.bmp","fa:fa:va","Down","38","5","8","3A","C1","J","72"
"","","approach-retreat","76","643728","0.0-76.0","","","3-1","4106","40","1","Training","Stims/Figures/144-C-30-3.bmp","zasa:ha","Down","40","5","9","3A","C2","J","73"
"","","approach-retreat","77","649303","0.0-77.0","","","3-1","4064","40","1","Training","Stims/Figures/85-C-20-2.bmp","zasa:ha","Down","40","5","10","3A","C2","J","74"
"","","approach-retreat","78","655260","0.0-78.0","","","3-1","4447","39","1","Training","Stims/Figures/128-J-10-3.bmp","fa:fa:va","Left","39","5","11","3A","C1","J","75"
"","","approach-retreat","79","660848","0.0-79.0","","","3-1","4079","40","1","Training","Stims/Figures/85-J-0-2.bmp","fa:fa:va","Up","40","5","12","3A","C1","J","76"
"","","approach-retreat","80","666518","0.0-80.0","","","3-1","4156","39","1","Training","Stims/Figures/74-J-10-4.bmp","fa:fa:va","Left","39","5","13","3A","C1","J","77"
"","","approach-retreat","81","672167","0.0-81.0","","","3-1","4138","37","1","Training","Stims/Figures/27-C-30-1.bmp","zasa:ha","Left","37","5","14","3A","C2","J","78"
"","","approach-retreat","82","677807","0.0-82.0","","","3-1","4127","39","1","Training","Stims/Figures/118-C-20-2.bmp","zasa:ha","Right","39","5","15","3A","C2","J","79"
"","","approach-retreat","83","683508","0.0-83.0","","","3-1","4190","37","1","Training","Stims/Figures/27-J-0-1.bmp","fa:fa:va","Right","37","5","16","3A","C1","J","80"
"","","approach-retreat","84","689226","0.0-84.0","","","3-1","4209","40","1","Training","Stims/Figures/85-C-20-2.bmp","zasa:ha","Down","40","6","1","3A","C2","J","81"
"","","approach-retreat","85","694912","0.0-85.0","","","3-1","4177","39","1","Training","Stims/Figures/74-C-20-4.bmp","zasa:ha","Right","39","6","2","3A","C2","J","82"
"","","approach-retreat","86","700890","0.0-86.0","","","3-1","4470","39","1","Training","Stims/Figures/27-J-0-1.bmp","fa:fa:va","Left","39","6","3","3A","C1","J","83"
"","","approach-retreat","87","706630","0.0-87.0","","","3-1","4230","37","1","Training","Stims/Figures/118-J-0-2.bmp","fa:fa:va","Right","37","6","4","3A","C1","J","84"
"","","approach-retreat","88","712421","0.0-88.0","","","3-1","4278","38","1","Training","Stims/Figures/27-C-30-1.bmp","zasa:ha","Up","38","6","5","3A","C2","J","85"
"","","approach-retreat","89","717995","0.0-89.0","","","3-1","4065","37","1","Training","Stims/Figures/128-C-30-3.bmp","zasa:ha","Left","37","6","6","3A","C2","J","86"
"","","approach-retreat","90","723643","0.0-90.0","","","3-1","4139","38","0","Training","Stims/Figures/19-J-10-4.bmp","fa:fa:va","Up","40","6","7","3A","C1","J","87"
"","","approach-retreat","91","730130","0.0-91.0","","","3-1","4979","40","1","Training","Stims/Figures/118-C-20-2.bmp","zasa:ha","Down","40","6","8","3A","C2","J","88"
"","","approach-retreat","92","736147","0.0-92.0","","","3-1","4504","37","1","Training","Stims/Figures/74-J-10-4.bmp","fa:fa:va","Right","37","6","9","3A","C1","J","89"
"","","approach-retreat","93","742562","0.0-93.0","","","3-1","4902","40","1","Training","Stims/Figures/86-C-30-1.bmp","zasa:ha","Down","40","6","10","3A","C2","J","90"
"","","approach-retreat","94","748129","0.0-94.0","","","3-1","4056","40","1","Training","Stims/Figures/144-J-10-3.bmp","fa:fa:va","Up","40","6","11","3A","C1","J","91"
"","","approach-retreat","95","754576","0.0-95.0","","","3-1","4936","39","1","Training","Stims/Figures/128-J-10-3.bmp","fa:fa:va","Left","39","6","12","3A","C1","J","92"
"","","approach-retreat","96","760358","0.0-96.0","","","3-1","4269","38","1","Training","Stims/Figures/144-C-30-3.bmp","zasa:ha","Up","38","6","13","3A","C2","J","93"
"","","approach-retreat","97","766510","0.0-97.0","","","3-1","4641","40","1","Training","Stims/Figures/19-C-20-4.bmp","zasa:ha","Down","40","6","14","3A","C2","J","94"
"","","approach-retreat","98","772177","0.0-98.0","","","3-1","4155","37","1","Training","Stims/Figures/86-J-0-1.bmp","fa:fa:va","Right","37","6","15","3A","C1","J","95"
"","","approach-retreat","99","777784","0.0-99.0","","","3-1","4096","39","1","Training","Stims/Figures/85-J-0-2.bmp","fa:fa:va","Left","39","6","16","3A","C1","J","96"
"","","approach-retreat","100","783553","0.0-100.0","","","3-1","4258","40","1","Training","Stims/Figures/128-J-10-3.bmp","fa:fa:va","Up","40","7","1","3A","C1","J","97"
"","","approach-retreat","101","789167","0.0-101.0","","","3-1","4102","40","1","Training","Stims/Figures/86-C-30-1.bmp","zasa:ha","Down","40","7","2","3A","C2","J","98"
"","","approach-retreat","102","795033","0.0-102.0","","","3-1","4354","37","1","Training","Stims/Figures/144-C-30-3.bmp","zasa:ha","Left","37","7","3","3A","C2","J","99"
"","","approach-retreat","103","801780","0.0-103.0","","","3-1","5234","37","1","Training","Stims/Figures/74-J-10-4.bmp","fa:fa:va","Right","37","7","4","3A","C1","J","100"
"","","approach-retreat","104","807454","0.0-104.0","","","3-1","4165","37","1","Training","Stims/Figures/27-J-0-1.bmp","fa:fa:va","Right","37","7","5","3A","C1","J","101"
"","","approach-retreat","105","813177","0.0-105.0","","","3-1","4211","40","1","Training","Stims/Figures/19-C-20-4.bmp","zasa:ha","Down","40","7","6","3A","C2","J","102"
"","","approach-retreat","106","818717","0.0-106.0","","","3-1","4030","37","1","Training","Stims/Figures/144-J-10-3.bmp","fa:fa:va","Right","37","7","7","3A","C1","J","103"
"","","approach-retreat","107","824513","0.0-107.0","","","3-1","4287","40","1","Training","Stims/Figures/86-J-0-1.bmp","fa:fa:va","Up","40","7","8","3A","C1","J","104"
"","","approach-retreat","108","830256","0.0-108.0","","","3-1","4234","38","1","Training","Stims/Figures/27-C-30-1.bmp","zasa:ha","Up","38","7","9","3A","C2","J","105"
"","","approach-retreat","109","835837","0.0-109.0","","","3-1","4075","39","1","Training","Stims/Figures/74-C-20-4.bmp","zasa:ha","Right","39","7","10","3A","C2","J","106"
"","","approach-retreat","110","841375","0.0-110.0","","","3-1","4025","40","1","Training","Stims/Figures/85-C-20-2.bmp","zasa:ha","Down","40","7","11","3A","C2","J","107"
"","","approach-retreat","111","846916","0.0-111.0","","","3-1","4029","39","1","Training","Stims/Figures/118-J-0-2.bmp","fa:fa:va","Left","39","7","12","3A","C1","J","108"
"","","approach-retreat","112","852669","0.0-112.0","","","3-1","4241","40","1","Training","Stims/Figures/118-C-20-2.bmp","zasa:ha","Down","40","7","13","3A","C2","J","109"
"","","approach-retreat","113","858181","0.0-113.0","","","3-1","4002","39","1","Training","Stims/Figures/85-J-0-2.bmp","fa:fa:va","Left","39","7","14","3A","C1","J","110"
"","","approach-retreat","114","863855","0.0-114.0","","","3-1","4161","39","1","Training","Stims/Figures/19-J-10-4.bmp","fa:fa:va","Left","39","7","15","3A","C1","J","111"
"","","approach-retreat","115","869576","0.0-115.0","","","3-1","4212","38","1","Training","Stims/Figures/128-C-30-3.bmp","zasa:ha","Up","38","7","16","3A","C2","J","112"
"","","approach-retreat","116","875529","0.0-116.0","","","3-1","4441","39","1","Training","Stims/Figures/86-C-30-1.bmp","zasa:ha","Right","39","8","1","3A","C2","J","113"
"","","approach-retreat","117","881181","0.0-117.0","","","3-1","4143","37","1","Training","Stims/Figures/128-J-10-3.bmp","fa:fa:va","Right","37","8","2","3A","C1","J","114"
"","","approach-retreat","118","886859","0.0-118.0","","","3-1","4166","40","1","Training","Stims/Figures/118-J-0-2.bmp","fa:fa:va","Up","40","8","3","3A","C1","J","115"
"","","approach-retreat","119","892419","0.0-119.0","","","3-1","4050","39","1","Training","Stims/Figures/86-J-0-1.bmp","fa:fa:va","Left","39","8","4","3A","C1","J","116"
"","","approach-retreat","120","898079","0.0-120.0","","","3-1","4148","37","1","Training","Stims/Figures/144-C-30-3.bmp","zasa:ha","Left","37","8","5","3A","C2","J","117"
"","","approach-retreat","121","903638","0.0-121.0","","","3-1","4047","37","1","Training","Stims/Figures/128-C-30-3.bmp","zasa:ha","Left","37","8","6","3A","C2","J","118"
"","","approach-retreat","122","909118","0.0-122.0","","","3-1","3969","39","1","Training","Stims/Figures/27-J-0-1.bmp","fa:fa:va","Left","39","8","7","3A","C1","J","119"
"","","approach-retreat","123","914561","0.0-123.0","","","3-1","3931","38","1","Training","Stims/Figures/74-C-20-4.bmp","zasa:ha","Up","38","8","8","3A","C2","J","120"
"","","approach-retreat","124","920232","0.0-124.0","","","3-1","4158","40","1","Training","Stims/Figures/85-J-0-2.bmp","fa:fa:va","Up","40","8","9","3A","C1","J","121"
"","","approach-retreat","125","926580","0.0-125.0","","","3-1","4835","40","1","Training","Stims/Figures/144-J-10-3.bmp","fa:fa:va","Up","40","8","10","3A","C1","J","122"
"","","approach-retreat","126","932402","0.0-126.0","","","3-1","4313","38","1","Training","Stims/Figures/74-J-10-4.bmp","fa:fa:va","Down","38","8","11","3A","C1","J","123"
"","","approach-retreat","127","941277","0.0-127.0","","","3-1","7362","40","1","Training","Stims/Figures/19-C-20-4.bmp","zasa:ha","Down","40","8","12","3A","C2","J","124"
"","","approach-retreat","128","946774","0.0-128.0","","","3-1","3988","39","1","Training","Stims/Figures/118-C-20-2.bmp","zasa:ha","Right","39","8","13","3A","C2","J","125"
"","","approach-retreat","129","952370","0.0-129.0","","","3-1","4083","40","1","Training","Stims/Figures/85-C-20-2.bmp","zasa:ha","Down","40","8","14","3A","C2","J","126"
"","","approach-retreat","130","957918","0.0-130.0","","","3-1","4035","39","1","Training","Stims/Figures/27-C-30-1.bmp","zasa:ha","Right","39","8","15","3A","C2","J","127"
"","","approach-retreat","131","963537","0.0-131.0","","","3-1","4108","38","1","Training","Stims/Figures/19-J-10-4.bmp","fa:fa:va","Down","38","8","16","3A","C1","J","128"
"","","approach-retreat","132","969029","0.0-132.0","","","3-1","3979","37","1","Training","Stims/Figures/27-J-0-1.bmp","fa:fa:va","Right","37","9","1","3A","C1","J","129"
"","","approach-retreat","133","974630","0.0-133.0","","","3-1","4088","40","1","Training","Stims/Figures/85-J-0-2.bmp","fa:fa:va","Up","40","9","2","3A","C1","J","130"
"","","approach-retreat","134","980213","0.0-134.0","","","3-1","4075","38","1","Training","Stims/Figures/86-C-30-1.bmp","zasa:ha","Up","38","9","3","3A","C2","J","131"
"","","approach-retreat","135","985946","0.0-135.0","","","3-1","4222","38","1","Training","Stims/Figures/128-J-10-3.bmp","fa:fa:va","Down","38","9","4","3A","C1","J","132"
"","","approach-retreat","136","991589","0.0-136.0","","","3-1","4128","40","1","Training","Stims/Figures/118-J-0-2.bmp","fa:fa:va","Up","40","9","5","3A","C1","J","133"
"","","approach-retreat","137","997062","0.0-137.0","","","3-1","3960","37","1","Training","Stims/Figures/86-J-0-1.bmp","fa:fa:va","Right","37","9","6","3A","C1","J","134"
"","","approach-retreat","138","1002678","0.0-138.0","","","3-1","4104","38","1","Training","Stims/Figures/74-J-10-4.bmp","fa:fa:va","Down","38","9","7","3A","C1","J","135"
"","","approach-retreat","139","1008268","0.0-139.0","","","3-1","4080","37","1","Training","Stims/Figures/74-C-20-4.bmp","zasa:ha","Left","37","9","8","3A","C2","J","136"
"","","approach-retreat","140","1013826","0.0-140.0","","","3-1","4047","37","1","Training","Stims/Figures/128-C-30-3.bmp","zasa:ha","Left","37","9","9","3A","C2","J","137"
"","","approach-retreat","141","1019523","0.0-141.0","","","3-1","4188","39","1","Training","Stims/Figures/19-C-20-4.bmp","zasa:ha","Right","39","9","10","3A","C2","J","138"
"","","approach-retreat","142","1025018","0.0-142.0","","","3-1","3985","40","1","Training","Stims/Figures/27-C-30-1.bmp","zasa:ha","Down","40","9","11","3A","C2","J","139"
"","","approach-retreat","143","1031968","0.0-143.0","","","3-1","5438","38","1","Training","Stims/Figures/144-C-30-3.bmp","zasa:ha","Up","38","9","12","3A","C2","J","140"
"","","approach-retreat","144","1037619","0.0-144.0","","","3-1","4138","39","1","Training","Stims/Figures/19-J-10-4.bmp","fa:fa:va","Left","39","9","13","3A","C1","J","141"
"","","approach-retreat","145","1043165","0.0-145.0","","","3-1","4035","40","1","Training","Stims/Figures/118-C-20-2.bmp","zasa:ha","Down","40","9","14","3A","C2","J","142"
"","","approach-retreat","146","1048664","0.0-146.0","","","3-1","3989","39","1","Training","Stims/Figures/144-J-10-3.bmp","fa:fa:va","Left","39","9","15","3A","C1","J","143"
"","","approach-retreat","147","1054582","0.0-147.0","","","3-1","4408","39","1","Training","Stims/Figures/85-C-20-2.bmp","zasa:ha","Right","39","9","16","3A","C2","J","144"
"15182","","instructions","148","1069764","0.0-148.0","[{""page_index"":0,""viewing_time"":15182}]","","","","","","","","","","","","","","","",""
"","","approach-retreat","149","1076287","0.0-149.0","","","3-1","5013","39","1","Testing","Stims/Figures/128-J-10-3.bmp","fa:fa:va","Left","39","1","1","3A","C1","J","1"
"","","approach-retreat","150","1088011","0.0-150.0","","","3-1","10216","39","1","Testing","Stims/Figures/118-C-20-2.bmp","zasa:ha","Right","39","1","2","3A","C2","J","2"
"","","approach-retreat","151","1094213","0.0-151.0","","","3-1","4692","39","0","Testing","Stims/Figures/85-C-20-2.bmp","zasa:ha","Left","37","1","3","3A","C2","J","3"
"","","approach-retreat","152","1099773","0.0-152.0","","","3-1","4051","39","1","Testing","Stims/Figures/19-J-10-4.bmp","fa:fa:va","Left","39","1","4","3A","C1","J","4"
"","","approach-retreat","153","1105561","0.0-153.0","","","3-1","4277","40","1","Testing","Stims/Figures/93-C-30-1.bmp","zasa:ha","Down","40","1","5","3A","C2","J","5"
"","","approach-retreat","154","1111206","0.0-154.0","","","3-1","4135","40","1","Testing","Stims/Figures/85-J-0-2.bmp","fa:fa:va","Up","40","1","6","3A","C1","J","6"
"","","approach-retreat","155","1116826","0.0-155.0","","","3-1","4111","40","1","Testing","Stims/Figures/27-J-0-1.bmp","fa:fa:va","Up","40","1","7","3A","C1","J","7"
"","","approach-retreat","156","1122472","0.0-156.0","","","3-1","4139","37","1","Testing","Stims/Figures/86-J-0-1.bmp","fa:fa:va","Right","37","1","8","3A","C1","J","8"
"","","approach-retreat","157","1128764","0.0-157.0","","","3-1","4781","38","1","Testing","Stims/Figures/74-C-20-4.bmp","zasa:ha","Up","38","1","9","3A","C2","J","9"
"","","approach-retreat","158","1134345","0.0-158.0","","","3-1","4072","40","1","Testing","Stims/Figures/44-J-10-3.bmp","fa:fa:va","Up","40","1","10","3A","C1","J","10"
"","","approach-retreat","159","1140512","0.0-159.0","","","3-1","4657","37","1","Testing","Stims/Figures/128-C-30-3.bmp","zasa:ha","Left","37","1","11","3A","C2","J","11"
"","","approach-retreat","160","1146402","0.0-160.0","","","3-1","4382","40","1","Testing","Stims/Figures/27-C-30-1.bmp","zasa:ha","Down","40","1","12","3A","C2","J","12"
"","","approach-retreat","161","1152020","0.0-161.0","","","3-1","4108","39","1","Testing","Stims/Figures/94-C-20-2.bmp","zasa:ha","Right","39","1","13","3A","C2","J","13"
"","","approach-retreat","162","1158252","0.0-162.0","","","3-1","4724","38","1","Testing","Stims/Figures/19-C-20-4.bmp","zasa:ha","Up","38","1","14","3A","C2","J","14"
"","","approach-retreat","163","1163876","0.0-163.0","","","3-1","4116","37","1","Testing","Stims/Figures/144-C-30-3.bmp","zasa:ha","Left","37","1","15","3A","C2","J","15"
"","","approach-retreat","164","1169482","0.0-164.0","","","3-1","4096","39","1","Testing","Stims/Figures/44-C-30-3.bmp","zasa:ha","Right","39","1","16","3A","C2","J","16"
"","","approach-retreat","165","1175063","0.0-165.0","","","3-1","4070","40","1","Testing","Stims/Figures/74-J-10-4.bmp","fa:fa:va","Up","40","1","17","3A","C1","J","17"
"","","approach-retreat","166","1184324","0.0-166.0","","","3-1","7749","37","1","Testing","Stims/Figures/87-C-20-4.bmp","zasa:ha","Left","37","1","18","3A","C2","J","18"
"","","approach-retreat","167","1190019","0.0-167.0","","","3-1","4177","40","1","Testing","Stims/Figures/86-C-30-1.bmp","zasa:ha","Down","40","1","19","3A","C2","J","19"
"","","approach-retreat","168","1195603","0.0-168.0","","","3-1","4077","37","1","Testing","Stims/Figures/93-J-0-1.bmp","fa:fa:va","Right","37","1","20","3A","C1","J","20"
"","","approach-retreat","169","1201252","0.0-169.0","","","3-1","4139","37","1","Testing","Stims/Figures/94-J-0-2.bmp","fa:fa:va","Right","37","1","21","3A","C1","J","21"
"","","approach-retreat","170","1206938","0.0-170.0","","","3-1","4177","38","1","Testing","Stims/Figures/118-J-0-2.bmp","fa:fa:va","Down","38","1","22","3A","C1","J","22"
"","","approach-retreat","171","1213039","0.0-171.0","","","3-1","4592","38","1","Testing","Stims/Figures/144-J-10-3.bmp","fa:fa:va","Down","38","1","23","3A","C1","J","23"
"","","approach-retreat","172","1229683","0.0-172.0","","","3-1","15135","38","1","Testing","Stims/Figures/87-J-10-4.bmp","fa:fa:va","Down","38","1","24","3A","C1","J","24"
"","","approach-retreat","173","1235467","0.0-173.0","","","3-1","4274","38","1","Testing","Stims/Figures/93-C-30-1.bmp","zasa:ha","Up","38","2","1","3A","C2","J","25"
"","","approach-retreat","174","1241870","0.0-174.0","","","3-1","4893","39","1","Testing","Stims/Figures/128-J-10-3.bmp","fa:fa:va","Left","39","2","2","3A","C1","J","26"
"","","approach-retreat","175","1247465","0.0-175.0","","","3-1","4084","40","1","Testing","Stims/Figures/27-J-0-1.bmp","fa:fa:va","Up","40","2","3","3A","C1","J","27"
"","","approach-retreat","176","1252991","0.0-176.0","","","3-1","4018","40","1","Testing","Stims/Figures/86-J-0-1.bmp","fa:fa:va","Up","40","2","4","3A","C1","J","28"
"","","approach-retreat","177","1264251","0.0-177.0","","","3-1","9749","40","1","Testing","Stims/Figures/74-C-20-4.bmp","zasa:ha","Down","40","2","5","3A","C2","J","29"
"","","approach-retreat","178","1269848","0.0-178.0","","","3-1","4085","37","1","Testing","Stims/Figures/86-C-30-1.bmp","zasa:ha","Left","37","2","6","3A","C2","J","30"
"","","approach-retreat","179","1275429","0.0-179.0","","","3-1","4072","39","1","Testing","Stims/Figures/27-C-30-1.bmp","zasa:ha","Right","39","2","7","3A","C2","J","31"
"","","approach-retreat","180","1286375","0.0-180.0","","","3-1","9436","39","1","Testing","Stims/Figures/87-C-20-4.bmp","zasa:ha","Right","39","2","8","3A","C2","J","32"
"","","approach-retreat","181","1300622","0.0-181.0","","","3-1","12739","39","1","Testing","Stims/Figures/19-C-20-4.bmp","zasa:ha","Right","39","2","9","3A","C2","J","33"
"","","approach-retreat","182","1306481","0.0-182.0","","","3-1","4351","38","1","Testing","Stims/Figures/87-J-10-4.bmp","fa:fa:va","Down","38","2","10","3A","C1","J","34"
"","","approach-retreat","183","1312083","0.0-183.0","","","3-1","4091","38","1","Testing","Stims/Figures/144-C-30-3.bmp","zasa:ha","Up","38","2","11","3A","C2","J","35"
"","","approach-retreat","184","1320223","0.0-184.0","","","3-1","6630","38","0","Testing","Stims/Figures/118-C-20-2.bmp","zasa:ha","Down","40","2","12","3A","C2","J","36"
"","","approach-retreat","185","1325785","0.0-185.0","","","3-1","4053","38","1","Testing","Stims/Figures/85-J-0-2.bmp","fa:fa:va","Down","38","2","13","3A","C1","J","37"
"","","approach-retreat","186","1333960","0.0-186.0","","","3-1","6671","40","1","Testing","Stims/Figures/128-C-30-3.bmp","zasa:ha","Down","40","2","14","3A","C2","J","38"
"","","approach-retreat","187","1339507","0.0-187.0","","","3-1","4035","39","1","Testing","Stims/Figures/118-J-0-2.bmp","fa:fa:va","Left","39","2","15","3A","C1","J","39"
"","","approach-retreat","188","1345099","0.0-188.0","","","3-1","4084","39","1","Testing","Stims/Figures/144-J-10-3.bmp","fa:fa:va","Left","39","2","16","3A","C1","J","40"
"","","approach-retreat","189","1351762","0.0-189.0","","","3-1","5150","40","0","Testing","Stims/Figures/85-C-20-2.bmp","zasa:ha","Up","38","2","17","3A","C2","J","41"
"","","approach-retreat","190","1360789","0.0-190.0","","","3-1","7519","39","0","Testing","Stims/Figures/94-C-20-2.bmp","zasa:ha","Left","37","2","18","3A","C2","J","42"
"","","approach-retreat","191","1366482","0.0-191.0","","","3-1","4182","38","1","Testing","Stims/Figures/94-J-0-2.bmp","fa:fa:va","Down","38","2","19","3A","C1","J","43"
"","","approach-retreat","192","1372151","0.0-192.0","","","3-1","4161","38","1","Testing","Stims/Figures/44-C-30-3.bmp","zasa:ha","Up","38","2","20","3A","C2","J","44"
"","","approach-retreat","193","1377730","0.0-193.0","","","3-1","4069","37","1","Testing","Stims/Figures/74-J-10-4.bmp","fa:fa:va","Right","37","2","21","3A","C1","J","45"
"","","approach-retreat","194","1383245","0.0-194.0","","","3-1","4007","37","1","Testing","Stims/Figures/44-J-10-3.bmp","fa:fa:va","Right","37","2","22","3A","C1","J","46"
"","","approach-retreat","195","1389935","0.0-195.0","","","3-1","5178","39","1","Testing","Stims/Figures/93-J-0-1.bmp","fa:fa:va","Left","39","2","23","3A","C1","J","47"
"","","approach-retreat","196","1395488","0.0-196.0","","","3-1","4044","37","1","Testing","Stims/Figures/19-J-10-4.bmp","fa:fa:va","Right","37","2","24","3A","C1","J","48"
"","","approach-retreat","197","1401031","0.0-197.0","","","3-1","4033","40","1","Testing","Stims/Figures/118-J-0-2.bmp","fa:fa:va","Up","40","3","1","3A","C1","J","49"
"","","approach-retreat","198","1406885","0.0-198.0","","","3-1","4346","37","1","Testing","Stims/Figures/19-J-10-4.bmp","fa:fa:va","Right","37","3","2","3A","C1","J","50"
"","","approach-retreat","199","1412516","0.0-199.0","","","3-1","4121","40","1","Testing","Stims/Figures/86-C-30-1.bmp","zasa:ha","Down","40","3","3","3A","C2","J","51"
"","","approach-retreat","200","1418697","0.0-200.0","","","3-1","4673","39","1","Testing","Stims/Figures/87-J-10-4.bmp","fa:fa:va","Left","39","3","4","3A","C1","J","52"
"","","approach-retreat","201","1427894","0.0-201.0","","","3-1","7688","40","1","Testing","Stims/Figures/118-C-20-2.bmp","zasa:ha","Down","40","3","5","3A","C2","J","53"
"","","approach-retreat","202","1433496","0.0-202.0","","","3-1","4091","39","1","Testing","Stims/Figures/27-J-0-1.bmp","fa:fa:va","Left","39","3","6","3A","C1","J","54"
"","","approach-retreat","203","1439439","0.0-203.0","","","3-1","4435","39","1","Testing","Stims/Figures/74-C-20-4.bmp","zasa:ha","Right","39","3","7","3A","C2","J","55"
"","","approach-retreat","204","1446689","0.0-204.0","","","3-1","5738","38","0","Testing","Stims/Figures/85-C-20-2.bmp","zasa:ha","Down","40","3","8","3A","C2","J","56"
"","","approach-retreat","205","1452195","0.0-205.0","","","3-1","3997","37","1","Testing","Stims/Figures/93-J-0-1.bmp","fa:fa:va","Right","37","3","9","3A","C1","J","57"
"","","approach-retreat","206","1457900","0.0-206.0","","","3-1","4195","38","1","Testing","Stims/Figures/128-C-30-3.bmp","zasa:ha","Up","38","3","10","3A","C2","J","58"
"","","approach-retreat","207","1463775","0.0-207.0","","","3-1","4369","38","1","Testing","Stims/Figures/144-J-10-3.bmp","fa:fa:va","Down","38","3","11","3A","C1","J","59"
"","","approach-retreat","208","1469510","0.0-208.0","","","3-1","4225","40","1","Testing","Stims/Figures/74-J-10-4.bmp","fa:fa:va","Up","40","3","12","3A","C1","J","60"
"","","approach-retreat","209","1475015","0.0-209.0","","","3-1","3998","40","1","Testing","Stims/Figures/19-C-20-4.bmp","zasa:ha","Down","40","3","13","3A","C2","J","61"
"","","approach-retreat","210","1481295","0.0-210.0","","","3-1","4770","37","1","Testing","Stims/Figures/94-C-20-2.bmp","zasa:ha","Left","37","3","14","3A","C2","J","62"
"","","approach-retreat","211","1486907","0.0-211.0","","","3-1","4102","39","1","Testing","Stims/Figures/44-J-10-3.bmp","fa:fa:va","Left","39","3","15","3A","C1","J","63"
"","","approach-retreat","212","1492546","0.0-212.0","","","3-1","4128","40","1","Testing","Stims/Figures/128-J-10-3.bmp","fa:fa:va","Up","40","3","16","3A","C1","J","64"
"","","approach-retreat","213","1498313","0.0-213.0","","","3-1","4256","39","1","Testing","Stims/Figures/87-C-20-4.bmp","zasa:ha","Right","39","3","17","3A","C2","J","65"
"","","approach-retreat","214","1504013","0.0-214.0","","","3-1","4192","40","1","Testing","Stims/Figures/85-J-0-2.bmp","fa:fa:va","Up","40","3","18","3A","C1","J","66"
"","","approach-retreat","215","1510053","0.0-215.0","","","3-1","4531","39","1","Testing","Stims/Figures/27-C-30-1.bmp","zasa:ha","Right","39","3","19","3A","C2","J","67"
"","","approach-retreat","216","1515811","0.0-216.0","","","3-1","4249","37","1","Testing","Stims/Figures/93-C-30-1.bmp","zasa:ha","Left","37","3","20","3A","C2","J","68"
"","","approach-retreat","217","1521391","0.0-217.0","","","3-1","4071","37","1","Testing","Stims/Figures/144-C-30-3.bmp","zasa:ha","Left","37","3","21","3A","C2","J","69"
"","","approach-retreat","218","1527066","0.0-218.0","","","3-1","4167","40","1","Testing","Stims/Figures/44-C-30-3.bmp","zasa:ha","Down","40","3","22","3A","C2","J","70"
"","","approach-retreat","219","1532607","0.0-219.0","","","3-1","4032","37","1","Testing","Stims/Figures/94-J-0-2.bmp","fa:fa:va","Right","37","3","23","3A","C1","J","71"
"","","approach-retreat","220","1538912","0.0-220.0","","","3-1","4796","40","1","Testing","Stims/Figures/86-J-0-1.bmp","fa:fa:va","Up","40","3","24","3A","C1","J","72"
"","","approach-retreat","221","1547736","0.0-221.0","","","3-1","7315","39","1","Testing","Stims/Figures/118-C-20-2.bmp","zasa:ha","Right","39","4","1","3A","C2","J","73"
"","","approach-retreat","222","1553233","0.0-222.0","","","3-1","3989","39","1","Testing","Stims/Figures/128-C-30-3.bmp","zasa:ha","Right","39","4","2","3A","C2","J","74"
"","","approach-retreat","223","1559905","0.0-223.0","","","3-1","5164","40","1","Testing","Stims/Figures/128-J-10-3.bmp","fa:fa:va","Up","40","4","3","3A","C1","J","75"
"","","approach-retreat","224","1565435","0.0-224.0","","","3-1","4019","37","1","Testing","Stims/Figures/87-C-20-4.bmp","zasa:ha","Left","37","4","4","3A","C2","J","76"
"","","approach-retreat","225","1576575","0.0-225.0","","","3-1","9631","37","0","Testing","Stims/Figures/85-C-20-2.bmp","zasa:ha","Right","39","4","5","3A","C2","J","77"
"","","approach-retreat","226","1582229","0.0-226.0","","","3-1","4149","37","1","Testing","Stims/Figures/144-J-10-3.bmp","fa:fa:va","Right","37","4","6","3A","C1","J","78"
"","","approach-retreat","227","1588074","0.0-227.0","","","3-1","4336","38","1","Testing","Stims/Figures/93-C-30-1.bmp","zasa:ha","Up","38","4","7","3A","C2","J","79"
"","","approach-retreat","228","1597277","0.0-228.0","","","3-1","7693","37","1","Testing","Stims/Figures/144-C-30-3.bmp","zasa:ha","Left","37","4","8","3A","C2","J","80"
"","","approach-retreat","229","1603090","0.0-229.0","","","3-1","4304","39","1","Testing","Stims/Figures/87-J-10-4.bmp","fa:fa:va","Left","39","4","9","3A","C1","J","81"
"","","approach-retreat","230","1608792","0.0-230.0","","","3-1","4193","40","1","Testing","Stims/Figures/94-C-20-2.bmp","zasa:ha","Down","40","4","10","3A","C2","J","82"
"","","approach-retreat","231","1614431","0.0-231.0","","","3-1","4130","37","1","Testing","Stims/Figures/86-C-30-1.bmp","zasa:ha","Left","37","4","11","3A","C2","J","83"
"","","approach-retreat","232","1620379","0.0-232.0","","","3-1","4444","40","1","Testing","Stims/Figures/74-J-10-4.bmp","fa:fa:va","Up","40","4","12","3A","C1","J","84"
"","","approach-retreat","233","1626099","0.0-233.0","","","3-1","4213","37","1","Testing","Stims/Figures/85-J-0-2.bmp","fa:fa:va","Right","37","4","13","3A","C1","J","85"
"","","approach-retreat","234","1631811","0.0-234.0","","","3-1","4205","38","1","Testing","Stims/Figures/44-C-30-3.bmp","zasa:ha","Up","38","4","14","3A","C2","J","86"
"","","approach-retreat","235","1637292","0.0-235.0","","","3-1","3973","37","1","Testing","Stims/Figures/19-C-20-4.bmp","zasa:ha","Left","37","4","15","3A","C2","J","87"
"","","approach-retreat","236","1642937","0.0-236.0","","","3-1","4137","38","1","Testing","Stims/Figures/27-J-0-1.bmp","fa:fa:va","Down","38","4","16","3A","C1","J","88"
"","","approach-retreat","237","1648581","0.0-237.0","","","3-1","4136","40","1","Testing","Stims/Figures/27-C-30-1.bmp","zasa:ha","Down","40","4","17","3A","C2","J","89"
"","","approach-retreat","238","1654109","0.0-238.0","","","3-1","4019","39","1","Testing","Stims/Figures/93-J-0-1.bmp","fa:fa:va","Left","39","4","18","3A","C1","J","90"
"","","approach-retreat","239","1660003","0.0-239.0","","","3-1","4383","40","1","Testing","Stims/Figures/94-J-0-2.bmp","fa:fa:va","Up","40","4","19","3A","C1","J","91"
"","","approach-retreat","240","1665935","0.0-240.0","","","3-1","4421","38","1","Testing","Stims/Figures/118-J-0-2.bmp","fa:fa:va","Down","38","4","20","3A","C1","J","92"
"","","approach-retreat","241","1671505","0.0-241.0","","","3-1","4064","38","1","Testing","Stims/Figures/74-C-20-4.bmp","zasa:ha","Up","38","4","21","3A","C2","J","93"
"","","approach-retreat","242","1678005","0.0-242.0","","","3-1","4992","38","1","Testing","Stims/Figures/86-J-0-1.bmp","fa:fa:va","Down","38","4","22","3A","C1","J","94"
"","","approach-retreat","243","1684384","0.0-243.0","","","3-1","4870","38","1","Testing","Stims/Figures/19-J-10-4.bmp","fa:fa:va","Down","38","4","23","3A","C1","J","95"
"","","approach-retreat","244","1690169","0.0-244.0","","","3-1","4275","37","1","Testing","Stims/Figures/44-J-10-3.bmp","fa:fa:va","Right","37","4","24","3A","C1","J","96"
"21831","","survey-text","245","1712006","0.0-245.0","","{""Q0"":""""}","","","","","","","","","","","","","","",""
