"rt","key_press","trial_type","trial_index","time_elapsed","internal_node_id","view_history","responses","Id","Rt","ResKeyCode","ResCorr","TrialType2","Image","Label","Location","CorrectResponse","Block","BlockTrial","Condition","LabelType","Subcondition","trialNum"
"282639","32","text","0","282642","0.0-0.0-0.0","","","","","","","","","","","","","","","","",""
"180584","","instructions","1","463228","0.0-1.0","[{""page_index"":0,""viewing_time"":180582}]","","","","","","","","","","","","","","","",""
"64996","","survey-multi-choice","2","528323","0.0-2.0","","{""Q0"":""Da"",""Q1"":""Da"",""Q2"":""Da"",""Q3"":""Da"",""Q4"":""Da"",""Q5"":""Da""}","","","","","","","","","","","","","","",""
"","","bio","3","545069","0.0-3.0","","{""age"":""20"",""gender"":""f"",""specify"":""""}","","","","","","","","","","","","","","",""
"","","approach-retreat","4","556703","0.0-4.0","","","2-2","10120","40","1","Training","Stims/Figures/7-C-20-4.bmp","zahaha","Up","40","1","1","9","C2","C","1"
"","","approach-retreat","5","566350","0.0-5.0","","","2-2","8140","37","1","Training","Stims/Figures/44-J-10-3.bmp","na:la:na","Left","37","1","2","9","S","C","2"
"","","approach-retreat","6","574754","0.0-6.0","","","2-2","6894","39","1","Training","Stims/Figures/74-C-20-4.bmp","papa:ka","Left","39","1","3","9","P","C","3"
"","","approach-retreat","7","582862","0.0-7.0","","","2-2","6597","38","0","Training","Stims/Figures/86-J-0-1.bmp","sasaza","Down","40","1","4","9","C2","C","4"
"","","approach-retreat","8","590447","0.0-8.0","","","2-2","6073","40","1","Training","Stims/Figures/144-J-10-3.bmp","mamana","Down","40","1","5","9","S","C","5"
"","","approach-retreat","9","598971","0.0-9.0","","","2-2","7015","39","0","Training","Stims/Figures/85-C-20-2.bmp","va:shava","Right","37","1","6","9","C1","C","6"
"","","approach-retreat","10","605769","0.0-10.0","","","2-2","5286","37","1","Training","Stims/Figures/118-J-0-2.bmp","zasaha","Left","37","1","7","9","C2","C","7"
"","","approach-retreat","11","614047","0.0-11.0","","","2-2","6761","38","0","Training","Stims/Figures/118-C-20-2.bmp","sa:haza","Up","40","1","8","9","C2","C","8"
"","","approach-retreat","12","620398","0.0-12.0","","","2-2","4834","38","0","Training","Stims/Figures/86-C-30-1.bmp","ta:kaka","Up","40","1","9","9","P","C","9"
"","","approach-retreat","13","628602","0.0-13.0","","","2-2","6697","37","1","Training","Stims/Figures/144-C-30-3.bmp","pakaka","Right","37","1","10","9","P","C","10"
"","","approach-retreat","14","634979","0.0-14.0","","","2-2","4865","39","0","Training","Stims/Figures/44-C-30-3.bmp","na:la:la","Right","37","1","11","9","S","C","11"
"","","approach-retreat","15","641553","0.0-15.0","","","2-2","5063","37","0","Training","Stims/Figures/74-J-10-4.bmp","mama:na","Right","39","1","12","9","S","C","12"
"","","approach-retreat","16","647651","0.0-16.0","","","2-2","4590","40","0","Training","Stims/Figures/7-J-10-4.bmp","va:fa:va","Up","38","1","13","9","C1","C","13"
"","","approach-retreat","17","653777","0.0-17.0","","","2-2","4614","38","0","Training","Stims/Figures/27-J-0-1.bmp","fa:sha:sha","Down","40","1","14","9","C1","C","14"
"","","approach-retreat","18","661853","0.0-18.0","","","2-2","6564","39","1","Training","Stims/Figures/27-C-30-1.bmp","mala:la","Left","39","1","15","9","S","C","15"
"","","approach-retreat","19","672424","0.0-19.0","","","2-2","9057","38","0","Training","Stims/Figures/85-J-0-2.bmp","ma:ma:na","Down","40","1","16","9","S","C","16"
"","","approach-retreat","20","683018","0.0-20.0","","","2-2","9085","37","1","Training","Stims/Figures/27-C-30-1.bmp","mala:la","Right","37","2","1","9","S","C","17"
"","","approach-retreat","21","689778","0.0-21.0","","","2-2","5245","40","0","Training","Stims/Figures/144-J-10-3.bmp","mamana","Up","38","2","2","9","S","C","18"
"","","approach-retreat","22","698684","0.0-22.0","","","2-2","7390","38","1","Training","Stims/Figures/86-C-30-1.bmp","ta:kaka","Down","38","2","3","9","P","C","19"
"","","approach-retreat","23","705728","0.0-23.0","","","2-2","5531","37","0","Training","Stims/Figures/118-C-20-2.bmp","sa:haza","Left","39","2","4","9","C2","C","20"
"","","approach-retreat","24","711869","0.0-24.0","","","2-2","4630","38","0","Training","Stims/Figures/7-J-10-4.bmp","va:fa:va","Down","40","2","5","9","C1","C","21"
"","","approach-retreat","25","718366","0.0-25.0","","","2-2","4985","40","0","Training","Stims/Figures/44-J-10-3.bmp","na:la:na","Up","38","2","6","9","S","C","22"
"","","approach-retreat","26","724551","0.0-26.0","","","2-2","4673","40","1","Training","Stims/Figures/74-C-20-4.bmp","papa:ka","Up","40","2","7","9","P","C","23"
"","","approach-retreat","27","733384","0.0-27.0","","","2-2","7321","37","1","Training","Stims/Figures/85-J-0-2.bmp","ma:ma:na","Left","37","2","8","9","S","C","24"
"","","approach-retreat","28","739941","0.0-28.0","","","2-2","5046","38","0","Training","Stims/Figures/86-J-0-1.bmp","sasaza","Down","40","2","9","9","C2","C","25"
"","","approach-retreat","29","746585","0.0-29.0","","","2-2","5132","37","1","Training","Stims/Figures/44-C-30-3.bmp","na:la:la","Right","37","2","10","9","S","C","26"
"","","approach-retreat","30","754611","0.0-30.0","","","2-2","6514","39","1","Training","Stims/Figures/27-J-0-1.bmp","fa:sha:sha","Right","39","2","11","9","C1","C","27"
"","","approach-retreat","31","760982","0.0-31.0","","","2-2","4861","37","1","Training","Stims/Figures/74-J-10-4.bmp","mama:na","Left","37","2","12","9","S","C","28"
"","","approach-retreat","32","766597","0.0-32.0","","","2-2","4100","37","0","Training","Stims/Figures/85-C-20-2.bmp","va:shava","Left","39","2","13","9","C1","C","29"
"","","approach-retreat","33","773787","0.0-33.0","","","2-2","5678","40","1","Training","Stims/Figures/144-C-30-3.bmp","pakaka","Up","40","2","14","9","P","C","30"
"","","approach-retreat","34","779907","0.0-34.0","","","2-2","4600","40","1","Training","Stims/Figures/118-J-0-2.bmp","zasaha","Down","40","2","15","9","C2","C","31"
"","","approach-retreat","35","787885","0.0-35.0","","","2-2","6466","37","1","Training","Stims/Figures/7-C-20-4.bmp","zahaha","Right","37","2","16","9","C2","C","32"
"","","approach-retreat","36","795464","0.0-36.0","","","2-2","6067","38","1","Training","Stims/Figures/7-C-20-4.bmp","zahaha","Down","38","3","1","9","C2","C","33"
"","","approach-retreat","37","801657","0.0-37.0","","","2-2","4685","39","0","Training","Stims/Figures/118-C-20-2.bmp","sa:haza","Right","37","3","2","9","C2","C","34"
"","","approach-retreat","38","808687","0.0-38.0","","","2-2","5517","40","1","Training","Stims/Figures/44-C-30-3.bmp","na:la:la","Up","40","3","3","9","S","C","35"
"","","approach-retreat","39","815956","0.0-39.0","","","2-2","5752","37","1","Training","Stims/Figures/27-J-0-1.bmp","fa:sha:sha","Left","37","3","4","9","C1","C","36"
"","","approach-retreat","40","821925","0.0-40.0","","","2-2","4455","37","1","Training","Stims/Figures/86-J-0-1.bmp","sasaza","Left","37","3","5","9","C2","C","37"
"","","approach-retreat","41","828045","0.0-41.0","","","2-2","4609","40","1","Training","Stims/Figures/85-J-0-2.bmp","ma:ma:na","Down","40","3","6","9","S","C","38"
"","","approach-retreat","42","833740","0.0-42.0","","","2-2","4188","38","1","Training","Stims/Figures/85-C-20-2.bmp","va:shava","Down","38","3","7","9","C1","C","39"
"","","approach-retreat","43","839790","0.0-43.0","","","2-2","4538","39","0","Training","Stims/Figures/27-C-30-1.bmp","mala:la","Right","37","3","8","9","S","C","40"
"","","approach-retreat","44","846166","0.0-44.0","","","2-2","4865","38","1","Training","Stims/Figures/74-J-10-4.bmp","mama:na","Up","38","3","9","9","S","C","41"
"","","approach-retreat","45","852334","0.0-45.0","","","2-2","4657","38","1","Training","Stims/Figures/86-C-30-1.bmp","ta:kaka","Down","38","3","10","9","P","C","42"
"","","approach-retreat","46","861410","0.0-46.0","","","2-2","7542","37","1","Training","Stims/Figures/74-C-20-4.bmp","papa:ka","Right","37","3","11","9","P","C","43"
"","","approach-retreat","47","867412","0.0-47.0","","","2-2","4485","38","1","Training","Stims/Figures/7-J-10-4.bmp","va:fa:va","Up","38","3","12","9","C1","C","44"
"","","approach-retreat","48","873883","0.0-48.0","","","2-2","4961","38","1","Training","Stims/Figures/118-J-0-2.bmp","zasaha","Up","38","3","13","9","C2","C","45"
"","","approach-retreat","49","879695","0.0-49.0","","","2-2","4300","37","1","Training","Stims/Figures/144-J-10-3.bmp","mamana","Left","37","3","14","9","S","C","46"
"","","approach-retreat","50","887902","0.0-50.0","","","2-2","6698","37","1","Training","Stims/Figures/144-C-30-3.bmp","pakaka","Right","37","3","15","9","P","C","47"
"","","approach-retreat","51","896303","0.0-51.0","","","2-2","6893","37","1","Training","Stims/Figures/44-J-10-3.bmp","na:la:na","Left","37","3","16","9","S","C","48"
"","","approach-retreat","52","902392","0.0-52.0","","","2-2","4578","39","0","Training","Stims/Figures/74-C-20-4.bmp","papa:ka","Right","37","4","1","9","P","C","49"
"","","approach-retreat","53","908454","0.0-53.0","","","2-2","4553","40","1","Training","Stims/Figures/7-J-10-4.bmp","va:fa:va","Down","40","4","2","9","C1","C","50"
"","","approach-retreat","54","914542","0.0-54.0","","","2-2","4579","40","1","Training","Stims/Figures/86-C-30-1.bmp","ta:kaka","Up","40","4","3","9","P","C","51"
"","","approach-retreat","55","920248","0.0-55.0","","","2-2","4197","37","1","Training","Stims/Figures/144-J-10-3.bmp","mamana","Left","37","4","4","9","S","C","52"
"","","approach-retreat","56","925958","0.0-56.0","","","2-2","4200","38","0","Training","Stims/Figures/44-C-30-3.bmp","na:la:la","Up","40","4","5","9","S","C","53"
"","","approach-retreat","57","933518","0.0-57.0","","","2-2","6051","40","1","Training","Stims/Figures/74-J-10-4.bmp","mama:na","Down","40","4","6","9","S","C","54"
"","","approach-retreat","58","941602","0.0-58.0","","","2-2","6572","37","0","Training","Stims/Figures/85-C-20-2.bmp","va:shava","Left","39","4","7","9","C1","C","55"
"","","approach-retreat","59","947678","0.0-59.0","","","2-2","4566","38","1","Training","Stims/Figures/27-J-0-1.bmp","fa:sha:sha","Up","38","4","8","9","C1","C","56"
"","","approach-retreat","60","953447","0.0-60.0","","","2-2","4260","40","1","Training","Stims/Figures/118-J-0-2.bmp","zasaha","Down","40","4","9","9","C2","C","57"
"","","approach-retreat","61","959327","0.0-61.0","","","2-2","4369","40","1","Training","Stims/Figures/86-J-0-1.bmp","sasaza","Down","40","4","10","9","C2","C","58"
"","","approach-retreat","62","965854","0.0-62.0","","","2-2","5020","37","0","Training","Stims/Figures/118-C-20-2.bmp","sa:haza","Left","39","4","11","9","C2","C","59"
"","","approach-retreat","63","972063","0.0-63.0","","","2-2","4696","39","0","Training","Stims/Figures/7-C-20-4.bmp","zahaha","Right","37","4","12","9","C2","C","60"
"","","approach-retreat","64","977928","0.0-64.0","","","2-2","4359","37","1","Training","Stims/Figures/85-J-0-2.bmp","ma:ma:na","Left","37","4","13","9","S","C","61"
"","","approach-retreat","65","984029","0.0-65.0","","","2-2","4589","39","0","Training","Stims/Figures/144-C-30-3.bmp","pakaka","Right","37","4","14","9","P","C","62"
"","","approach-retreat","66","992078","0.0-66.0","","","2-2","6539","37","1","Training","Stims/Figures/27-C-30-1.bmp","mala:la","Right","37","4","15","9","S","C","63"
"","","approach-retreat","67","998074","0.0-67.0","","","2-2","4484","38","1","Training","Stims/Figures/44-J-10-3.bmp","na:la:na","Up","38","4","16","9","S","C","64"
"","","approach-retreat","68","1004583","0.0-68.0","","","2-2","5001","39","1","Training","Stims/Figures/86-J-0-1.bmp","sasaza","Right","39","5","1","9","C2","C","65"
"","","approach-retreat","69","1011365","0.0-69.0","","","2-2","5272","40","0","Training","Stims/Figures/144-J-10-3.bmp","mamana","Up","38","5","2","9","S","C","66"
"","","approach-retreat","70","1017933","0.0-70.0","","","2-2","5059","37","1","Training","Stims/Figures/27-J-0-1.bmp","fa:sha:sha","Left","37","5","3","9","C1","C","67"
"","","approach-retreat","71","1028825","0.0-71.0","","","2-2","9384","37","1","Training","Stims/Figures/44-J-10-3.bmp","na:la:na","Left","37","5","4","9","S","C","68"
"","","approach-retreat","72","1036615","0.0-72.0","","","2-2","6280","39","1","Training","Stims/Figures/86-C-30-1.bmp","ta:kaka","Left","39","5","5","9","P","C","69"
"","","approach-retreat","73","1047074","0.0-73.0","","","2-2","8947","38","0","Training","Stims/Figures/7-J-10-4.bmp","va:fa:va","Down","40","5","6","9","C1","C","70"
"","","approach-retreat","74","1057106","0.0-74.0","","","2-2","8523","38","1","Training","Stims/Figures/85-J-0-2.bmp","ma:ma:na","Up","38","5","7","9","S","C","71"
"","","approach-retreat","75","1063071","0.0-75.0","","","2-2","4456","40","0","Training","Stims/Figures/74-J-10-4.bmp","mama:na","Up","38","5","8","9","S","C","72"
"","","approach-retreat","76","1069250","0.0-76.0","","","2-2","4667","37","1","Training","Stims/Figures/44-C-30-3.bmp","na:la:la","Right","37","5","9","9","S","C","73"
"","","approach-retreat","77","1075979","0.0-77.0","","","2-2","5222","37","0","Training","Stims/Figures/118-C-20-2.bmp","sa:haza","Left","39","5","10","9","C2","C","74"
"","","approach-retreat","78","1082099","0.0-78.0","","","2-2","4608","37","1","Training","Stims/Figures/74-C-20-4.bmp","papa:ka","Right","37","5","11","9","P","C","75"
"","","approach-retreat","79","1088078","0.0-79.0","","","2-2","4468","38","1","Training","Stims/Figures/27-C-30-1.bmp","mala:la","Down","38","5","12","9","S","C","76"
"","","approach-retreat","80","1095619","0.0-80.0","","","2-2","6028","39","0","Training","Stims/Figures/85-C-20-2.bmp","va:shava","Right","37","5","13","9","C1","C","77"
"","","approach-retreat","81","1101425","0.0-81.0","","","2-2","4295","38","1","Training","Stims/Figures/144-C-30-3.bmp","pakaka","Down","38","5","14","9","P","C","78"
"","","approach-retreat","82","1108861","0.0-82.0","","","2-2","5927","40","1","Training","Stims/Figures/7-C-20-4.bmp","zahaha","Up","40","5","15","9","C2","C","79"
"","","approach-retreat","83","1114966","0.0-83.0","","","2-2","4595","40","1","Training","Stims/Figures/118-J-0-2.bmp","zasaha","Down","40","5","16","9","C2","C","80"
"","","approach-retreat","84","1120997","0.0-84.0","","","2-2","4517","37","1","Training","Stims/Figures/44-J-10-3.bmp","na:la:na","Left","37","6","1","9","S","C","81"
"","","approach-retreat","85","1126697","0.0-85.0","","","2-2","4191","38","1","Training","Stims/Figures/85-C-20-2.bmp","va:shava","Down","38","6","2","9","C1","C","82"
"","","approach-retreat","86","1132533","0.0-86.0","","","2-2","4325","39","1","Training","Stims/Figures/86-C-30-1.bmp","ta:kaka","Left","39","6","3","9","P","C","83"
"","","approach-retreat","87","1138276","0.0-87.0","","","2-2","4230","38","0","Training","Stims/Figures/7-C-20-4.bmp","zahaha","Up","40","6","4","9","C2","C","84"
"","","approach-retreat","88","1144146","0.0-88.0","","","2-2","4361","40","1","Training","Stims/Figures/74-J-10-4.bmp","mama:na","Down","40","6","5","9","S","C","85"
"","","approach-retreat","89","1149923","0.0-89.0","","","2-2","4268","40","1","Training","Stims/Figures/86-J-0-1.bmp","sasaza","Down","40","6","6","9","C2","C","86"
"","","approach-retreat","90","1157907","0.0-90.0","","","2-2","6473","37","0","Training","Stims/Figures/7-J-10-4.bmp","va:fa:va","Right","39","6","7","9","C1","C","87"
"","","approach-retreat","91","1163676","0.0-91.0","","","2-2","4258","37","1","Training","Stims/Figures/144-C-30-3.bmp","pakaka","Right","37","6","8","9","P","C","88"
"","","approach-retreat","92","1170633","0.0-92.0","","","2-2","5443","40","1","Training","Stims/Figures/27-C-30-1.bmp","mala:la","Up","40","6","9","9","S","C","89"
"","","approach-retreat","93","1176625","0.0-93.0","","","2-2","4480","37","1","Training","Stims/Figures/144-J-10-3.bmp","mamana","Left","37","6","10","9","S","C","90"
"","","approach-retreat","94","1182586","0.0-94.0","","","2-2","4449","38","1","Training","Stims/Figures/85-J-0-2.bmp","ma:ma:na","Up","38","6","11","9","S","C","91"
"","","approach-retreat","95","1189203","0.0-95.0","","","2-2","5107","37","0","Training","Stims/Figures/74-C-20-4.bmp","papa:ka","Left","39","6","12","9","P","C","92"
"","","approach-retreat","96","1195952","0.0-96.0","","","2-2","5236","40","1","Training","Stims/Figures/118-J-0-2.bmp","zasaha","Down","40","6","13","9","C2","C","93"
"","","approach-retreat","97","1201598","0.0-97.0","","","2-2","4137","39","0","Training","Stims/Figures/44-C-30-3.bmp","na:la:la","Right","37","6","14","9","S","C","94"
"","","approach-retreat","98","1207722","0.0-98.0","","","2-2","4613","39","1","Training","Stims/Figures/27-J-0-1.bmp","fa:sha:sha","Right","39","6","15","9","C1","C","95"
"","","approach-retreat","99","1215600","0.0-99.0","","","2-2","6365","38","0","Training","Stims/Figures/118-C-20-2.bmp","sa:haza","Up","40","6","16","9","C2","C","96"
"","","approach-retreat","100","1221714","0.0-100.0","","","2-2","4604","37","1","Training","Stims/Figures/86-C-30-1.bmp","ta:kaka","Right","37","7","1","9","P","C","97"
"","","approach-retreat","101","1227709","0.0-101.0","","","2-2","4483","37","1","Training","Stims/Figures/85-J-0-2.bmp","ma:ma:na","Left","37","7","2","9","S","C","98"
"","","approach-retreat","102","1233614","0.0-102.0","","","2-2","4393","39","1","Training","Stims/Figures/144-J-10-3.bmp","mamana","Right","39","7","3","9","S","C","99"
"","","approach-retreat","103","1241799","0.0-103.0","","","2-2","6673","38","0","Training","Stims/Figures/74-C-20-4.bmp","papa:ka","Up","40","7","4","9","P","C","100"
"","","approach-retreat","104","1248003","0.0-104.0","","","2-2","4696","38","0","Training","Stims/Figures/74-J-10-4.bmp","mama:na","Down","40","7","5","9","S","C","101"
"","","approach-retreat","105","1253808","0.0-105.0","","","2-2","4296","38","1","Training","Stims/Figures/7-C-20-4.bmp","zahaha","Down","38","7","6","9","C2","C","102"
"","","approach-retreat","106","1259937","0.0-106.0","","","2-2","4620","40","1","Training","Stims/Figures/118-C-20-2.bmp","sa:haza","Up","40","7","7","9","C2","C","103"
"","","approach-retreat","107","1266060","0.0-107.0","","","2-2","4612","39","1","Training","Stims/Figures/27-C-30-1.bmp","mala:la","Left","39","7","8","9","S","C","104"
"","","approach-retreat","108","1272232","0.0-108.0","","","2-2","4659","38","0","Training","Stims/Figures/44-C-30-3.bmp","na:la:la","Up","40","7","9","9","S","C","105"
"","","approach-retreat","109","1277816","0.0-109.0","","","2-2","4073","37","1","Training","Stims/Figures/118-J-0-2.bmp","zasaha","Left","37","7","10","9","C2","C","106"
"","","approach-retreat","110","1283823","0.0-110.0","","","2-2","4495","37","0","Training","Stims/Figures/44-J-10-3.bmp","na:la:na","Right","39","7","11","9","S","C","107"
"","","approach-retreat","111","1289785","0.0-111.0","","","2-2","4446","38","1","Training","Stims/Figures/85-C-20-2.bmp","va:shava","Down","38","7","12","9","C1","C","108"
"","","approach-retreat","112","1295631","0.0-112.0","","","2-2","4334","40","1","Training","Stims/Figures/144-C-30-3.bmp","pakaka","Up","40","7","13","9","P","C","109"
"","","approach-retreat","113","1301485","0.0-113.0","","","2-2","4332","37","0","Training","Stims/Figures/7-J-10-4.bmp","va:fa:va","Right","39","7","14","9","C1","C","110"
"","","approach-retreat","114","1307303","0.0-114.0","","","2-2","4307","37","1","Training","Stims/Figures/86-J-0-1.bmp","sasaza","Left","37","7","15","9","C2","C","111"
"","","approach-retreat","115","1313325","0.0-115.0","","","2-2","4513","40","1","Training","Stims/Figures/27-J-0-1.bmp","fa:sha:sha","Down","40","7","16","9","C1","C","112"
"","","approach-retreat","116","1319858","0.0-116.0","","","2-2","5021","38","0","Training","Stims/Figures/118-C-20-2.bmp","sa:haza","Up","40","8","1","9","C2","C","113"
"","","approach-retreat","117","1326308","0.0-117.0","","","2-2","4941","39","0","Training","Stims/Figures/44-J-10-3.bmp","na:la:na","Left","37","8","2","9","S","C","114"
"","","approach-retreat","118","1332681","0.0-118.0","","","2-2","4862","40","1","Training","Stims/Figures/85-J-0-2.bmp","ma:ma:na","Down","40","8","3","9","S","C","115"
"","","approach-retreat","119","1338684","0.0-119.0","","","2-2","4490","37","1","Training","Stims/Figures/118-J-0-2.bmp","zasaha","Left","37","8","4","9","C2","C","116"
"","","approach-retreat","120","1345751","0.0-120.0","","","2-2","5555","40","1","Training","Stims/Figures/74-C-20-4.bmp","papa:ka","Up","40","8","5","9","P","C","117"
"","","approach-retreat","121","1351733","0.0-121.0","","","2-2","4470","39","1","Training","Stims/Figures/85-C-20-2.bmp","va:shava","Left","39","8","6","9","C1","C","118"
"","","approach-retreat","122","1357525","0.0-122.0","","","2-2","4272","39","0","Training","Stims/Figures/7-C-20-4.bmp","zahaha","Right","37","8","7","9","C2","C","119"
"","","approach-retreat","123","1363660","0.0-123.0","","","2-2","4625","37","1","Training","Stims/Figures/86-C-30-1.bmp","ta:kaka","Right","37","8","8","9","P","C","120"
"","","approach-retreat","124","1369823","0.0-124.0","","","2-2","4656","37","1","Training","Stims/Figures/27-C-30-1.bmp","mala:la","Right","37","8","9","9","S","C","121"
"","","approach-retreat","125","1376664","0.0-125.0","","","2-2","5333","40","0","Training","Stims/Figures/7-J-10-4.bmp","va:fa:va","Up","38","8","10","9","C1","C","122"
"","","approach-retreat","126","1383309","0.0-126.0","","","2-2","5123","38","1","Training","Stims/Figures/86-J-0-1.bmp","sasaza","Up","38","8","11","9","C2","C","123"
"","","approach-retreat","127","1389891","0.0-127.0","","","2-2","5073","39","1","Training","Stims/Figures/27-J-0-1.bmp","fa:sha:sha","Right","39","8","12","9","C1","C","124"
"","","approach-retreat","128","1395731","0.0-128.0","","","2-2","4331","39","1","Training","Stims/Figures/144-C-30-3.bmp","pakaka","Left","39","8","13","9","P","C","125"
"","","approach-retreat","129","1401948","0.0-129.0","","","2-2","4707","38","1","Training","Stims/Figures/44-C-30-3.bmp","na:la:la","Down","38","8","14","9","S","C","126"
"","","approach-retreat","130","1407870","0.0-130.0","","","2-2","4410","40","1","Training","Stims/Figures/144-J-10-3.bmp","mamana","Down","40","8","15","9","S","C","127"
"","","approach-retreat","131","1413887","0.0-131.0","","","2-2","4505","38","0","Training","Stims/Figures/74-J-10-4.bmp","mama:na","Down","40","8","16","9","S","C","128"
"","","approach-retreat","132","1419773","0.0-132.0","","","2-2","4355","39","1","Training","Stims/Figures/44-J-10-3.bmp","na:la:na","Right","39","9","1","9","S","C","129"
"","","approach-retreat","133","1425901","0.0-133.0","","","2-2","4619","37","1","Training","Stims/Figures/118-J-0-2.bmp","zasaha","Left","37","9","2","9","C2","C","130"
"","","approach-retreat","134","1431837","0.0-134.0","","","2-2","4428","38","1","Training","Stims/Figures/144-C-30-3.bmp","pakaka","Down","38","9","3","9","P","C","131"
"","","approach-retreat","135","1439488","0.0-135.0","","","2-2","6141","39","1","Training","Stims/Figures/85-J-0-2.bmp","ma:ma:na","Right","39","9","4","9","S","C","132"
"","","approach-retreat","136","1448120","0.0-136.0","","","2-2","7124","39","0","Training","Stims/Figures/144-J-10-3.bmp","mamana","Left","37","9","5","9","S","C","133"
"","","approach-retreat","137","1455442","0.0-137.0","","","2-2","5808","40","0","Training","Stims/Figures/74-J-10-4.bmp","mama:na","Up","38","9","6","9","S","C","134"
"","","approach-retreat","138","1462182","0.0-138.0","","","2-2","5233","39","1","Training","Stims/Figures/27-J-0-1.bmp","fa:sha:sha","Right","39","9","7","9","C1","C","135"
"","","approach-retreat","139","1468348","0.0-139.0","","","2-2","4660","38","1","Training","Stims/Figures/86-C-30-1.bmp","ta:kaka","Down","38","9","8","9","P","C","136"
"","","approach-retreat","140","1474957","0.0-140.0","","","2-2","5100","40","1","Training","Stims/Figures/118-C-20-2.bmp","sa:haza","Up","40","9","9","9","C2","C","137"
"","","approach-retreat","141","1480632","0.0-141.0","","","2-2","4162","38","1","Training","Stims/Figures/27-C-30-1.bmp","mala:la","Down","38","9","10","9","S","C","138"
"","","approach-retreat","142","1486348","0.0-142.0","","","2-2","4207","40","1","Training","Stims/Figures/74-C-20-4.bmp","papa:ka","Up","40","9","11","9","P","C","139"
"","","approach-retreat","143","1492005","0.0-143.0","","","2-2","4147","37","1","Training","Stims/Figures/7-C-20-4.bmp","zahaha","Right","37","9","12","9","C2","C","140"
"","","approach-retreat","144","1498674","0.0-144.0","","","2-2","5160","38","0","Training","Stims/Figures/85-C-20-2.bmp","va:shava","Up","40","9","13","9","C1","C","141"
"","","approach-retreat","145","1504466","0.0-145.0","","","2-2","4282","39","1","Training","Stims/Figures/44-C-30-3.bmp","na:la:la","Left","39","9","14","9","S","C","142"
"","","approach-retreat","146","1510140","0.0-146.0","","","2-2","4165","37","1","Training","Stims/Figures/86-J-0-1.bmp","sasaza","Left","37","9","15","9","C2","C","143"
"","","approach-retreat","147","1516130","0.0-147.0","","","2-2","4482","40","1","Training","Stims/Figures/7-J-10-4.bmp","va:fa:va","Down","40","9","16","9","C1","C","144"
"29653","","instructions","148","1545784","0.0-148.0","[{""page_index"":0,""viewing_time"":29653}]","","","","","","","","","","","","","","","",""
"","","approach-retreat","149","1553853","0.0-149.0","","","2-2","6561","39","1","Testing","Stims/Figures/27-J-0-1.bmp","fa:sha:sha","Right","39","1","1","9","C1","C","1"
"","","approach-retreat","150","1560309","0.0-150.0","","","2-2","4946","40","1","Testing","Stims/Figures/111-J-10-3.bmp","za:saha","Down","40","1","2","9","C2","C","2"
"","","approach-retreat","151","1567951","0.0-151.0","","","2-2","6132","38","1","Testing","Stims/Figures/144-J-10-3.bmp","mamana","Up","38","1","3","9","S","C","3"
"","","approach-retreat","152","1573566","0.0-152.0","","","2-2","4105","40","0","Testing","Stims/Figures/74-J-10-4.bmp","mama:na","Up","38","1","4","9","S","C","4"
"","","approach-retreat","153","1579577","0.0-153.0","","","2-2","4500","38","1","Testing","Stims/Figures/44-C-30-3.bmp","na:la:la","Down","38","1","5","9","S","C","5"
"","","approach-retreat","154","1585334","0.0-154.0","","","2-2","4247","40","0","Testing","Stims/Figures/85-C-20-2.bmp","va:shava","Down","38","1","6","9","C1","C","6"
"","","approach-retreat","155","1590977","0.0-155.0","","","2-2","4135","40","1","Testing","Stims/Figures/86-J-0-1.bmp","sasaza","Down","40","1","7","9","C2","C","7"
"","","approach-retreat","156","1597858","0.0-156.0","","","2-2","5373","39","1","Testing","Stims/Figures/19-C-20-4.bmp","va:fa:sha","Left","39","1","8","9","C1","C","8"
"","","approach-retreat","157","1603752","0.0-157.0","","","2-2","4387","39","1","Testing","Stims/Figures/86-C-30-1.bmp","ta:kaka","Left","39","1","9","9","P","C","9"
"","","approach-retreat","158","1610226","0.0-158.0","","","2-2","4967","37","1","Testing","Stims/Figures/7-C-20-4.bmp","zahaha","Right","37","1","10","9","C2","C","10"
"","","approach-retreat","159","1616287","0.0-159.0","","","2-2","4552","39","1","Testing","Stims/Figures/93-C-30-1.bmp","sa:saza","Left","39","1","11","9","C2","C","11"
"","","approach-retreat","160","1623320","0.0-160.0","","","2-2","5525","39","1","Testing","Stims/Figures/93-J-0-1.bmp","fa:fa:va","Right","39","1","12","9","C1","C","12"
"","","approach-retreat","161","1629566","0.0-161.0","","","2-2","4738","37","1","Testing","Stims/Figures/85-J-0-2.bmp","ma:ma:na","Left","37","1","13","9","S","C","13"
"","","approach-retreat","162","1635443","0.0-162.0","","","2-2","4367","37","0","Testing","Stims/Figures/118-C-20-2.bmp","sa:haza","Left","39","1","14","9","C2","C","14"
"","","approach-retreat","163","1641474","0.0-163.0","","","2-2","4524","37","1","Testing","Stims/Figures/74-C-20-4.bmp","papa:ka","Right","37","1","15","9","P","C","15"
"","","approach-retreat","164","1647310","0.0-164.0","","","2-2","4326","38","0","Testing","Stims/Figures/144-C-30-3.bmp","pakaka","Up","40","1","16","9","P","C","16"
"","","approach-retreat","165","1653726","0.0-165.0","","","2-2","4898","39","1","Testing","Stims/Figures/19-J-10-4.bmp","takaka","Right","39","1","17","9","P","C","17"
"","","approach-retreat","166","1659519","0.0-166.0","","","2-2","4283","37","1","Testing","Stims/Figures/7-J-10-4.bmp","va:fa:va","Left","37","1","18","9","C1","C","18"
"","","approach-retreat","167","1665437","0.0-167.0","","","2-2","4406","40","1","Testing","Stims/Figures/118-J-0-2.bmp","zasaha","Down","40","1","19","9","C2","C","19"
"","","approach-retreat","168","1672921","0.0-168.0","","","2-2","5975","37","1","Testing","Stims/Figures/111-C-30-3.bmp","na:mala","Right","37","1","20","9","S","C","20"
"","","approach-retreat","169","1680053","0.0-169.0","","","2-2","5626","40","1","Testing","Stims/Figures/27-C-30-1.bmp","mala:la","Up","40","1","21","9","S","C","21"
"","","approach-retreat","170","1686311","0.0-170.0","","","2-2","4747","40","1","Testing","Stims/Figures/84-J-0-2.bmp","paka:ka","Down","40","1","22","9","P","C","22"
"","","approach-retreat","171","1692658","0.0-171.0","","","2-2","4835","38","1","Testing","Stims/Figures/44-J-10-3.bmp","na:la:na","Up","38","1","23","9","S","C","23"
"","","approach-retreat","172","1698448","0.0-172.0","","","2-2","4278","40","1","Testing","Stims/Figures/84-C-20-2.bmp","pa:pa:ka","Up","40","1","24","9","P","C","24"
"","","approach-retreat","173","1705199","0.0-173.0","","","2-2","5241","37","1","Testing","Stims/Figures/44-J-10-3.bmp","na:la:na","Left","37","2","1","9","S","C","25"
"","","approach-retreat","174","1711103","0.0-174.0","","","2-2","4395","37","0","Testing","Stims/Figures/111-J-10-3.bmp","za:saha","Right","39","2","2","9","C2","C","26"
"","","approach-retreat","175","1717048","0.0-175.0","","","2-2","4434","38","1","Testing","Stims/Figures/7-C-20-4.bmp","zahaha","Down","38","2","3","9","C2","C","27"
"","","approach-retreat","176","1722676","0.0-176.0","","","2-2","4121","40","1","Testing","Stims/Figures/86-J-0-1.bmp","sasaza","Down","40","2","4","9","C2","C","28"
"","","approach-retreat","177","1728922","0.0-177.0","","","2-2","4739","39","1","Testing","Stims/Figures/44-C-30-3.bmp","na:la:la","Left","39","2","5","9","S","C","29"
"","","approach-retreat","178","1734798","0.0-178.0","","","2-2","4368","38","0","Testing","Stims/Figures/27-C-30-1.bmp","mala:la","Up","40","2","6","9","S","C","30"
"","","approach-retreat","179","1740596","0.0-179.0","","","2-2","4290","40","1","Testing","Stims/Figures/86-C-30-1.bmp","ta:kaka","Up","40","2","7","9","P","C","31"
"","","approach-retreat","180","1746277","0.0-180.0","","","2-2","4173","37","1","Testing","Stims/Figures/19-C-20-4.bmp","va:fa:sha","Right","37","2","8","9","C1","C","32"
"","","approach-retreat","181","1752487","0.0-181.0","","","2-2","4703","38","1","Testing","Stims/Figures/85-J-0-2.bmp","ma:ma:na","Up","38","2","9","9","S","C","33"
"","","approach-retreat","182","1758033","0.0-182.0","","","2-2","4038","39","1","Testing","Stims/Figures/93-C-30-1.bmp","sa:saza","Left","39","2","10","9","C2","C","34"
"","","approach-retreat","183","1763922","0.0-183.0","","","2-2","4382","40","1","Testing","Stims/Figures/19-J-10-4.bmp","takaka","Down","40","2","11","9","P","C","35"
"","","approach-retreat","184","1769731","0.0-184.0","","","2-2","4301","39","1","Testing","Stims/Figures/7-J-10-4.bmp","va:fa:va","Right","39","2","12","9","C1","C","36"
"","","approach-retreat","185","1775486","0.0-185.0","","","2-2","4249","39","0","Testing","Stims/Figures/118-C-20-2.bmp","sa:haza","Right","37","2","13","9","C2","C","37"
"","","approach-retreat","186","1781011","0.0-186.0","","","2-2","4015","40","1","Testing","Stims/Figures/84-C-20-2.bmp","pa:pa:ka","Up","40","2","14","9","P","C","38"
"","","approach-retreat","187","1787013","0.0-187.0","","","2-2","4496","38","1","Testing","Stims/Figures/27-J-0-1.bmp","fa:sha:sha","Up","38","2","15","9","C1","C","39"
"","","approach-retreat","188","1792949","0.0-188.0","","","2-2","4428","39","0","Testing","Stims/Figures/74-C-20-4.bmp","papa:ka","Right","37","2","16","9","P","C","40"
"","","approach-retreat","189","1798747","0.0-189.0","","","2-2","4290","40","1","Testing","Stims/Figures/93-J-0-1.bmp","fa:fa:va","Down","40","2","17","9","C1","C","41"
"","","approach-retreat","190","1804408","0.0-190.0","","","2-2","4153","40","1","Testing","Stims/Figures/84-J-0-2.bmp","paka:ka","Down","40","2","18","9","P","C","42"
"","","approach-retreat","191","1810256","0.0-191.0","","","2-2","4340","37","1","Testing","Stims/Figures/111-C-30-3.bmp","na:mala","Right","37","2","19","9","S","C","43"
"","","approach-retreat","192","1817318","0.0-192.0","","","2-2","5546","37","1","Testing","Stims/Figures/74-J-10-4.bmp","mama:na","Left","37","2","20","9","S","C","44"
"","","approach-retreat","193","1822949","0.0-193.0","","","2-2","4120","40","0","Testing","Stims/Figures/85-C-20-2.bmp","va:shava","Down","38","2","21","9","C1","C","45"
"","","approach-retreat","194","1828715","0.0-194.0","","","2-2","4256","39","1","Testing","Stims/Figures/144-C-30-3.bmp","pakaka","Left","39","2","22","9","P","C","46"
"","","approach-retreat","195","1834982","0.0-195.0","","","2-2","4759","38","1","Testing","Stims/Figures/144-J-10-3.bmp","mamana","Up","38","2","23","9","S","C","47"
"","","approach-retreat","196","1841178","0.0-196.0","","","2-2","4686","37","1","Testing","Stims/Figures/118-J-0-2.bmp","zasaha","Left","37","2","24","9","C2","C","48"
"","","approach-retreat","197","1847054","0.0-197.0","","","2-2","4370","38","1","Testing","Stims/Figures/93-C-30-1.bmp","sa:saza","Down","38","3","1","9","C2","C","49"
"","","approach-retreat","198","1853227","0.0-198.0","","","2-2","4666","40","1","Testing","Stims/Figures/74-J-10-4.bmp","mama:na","Down","40","3","2","9","S","C","50"
"","","approach-retreat","199","1858965","0.0-199.0","","","2-2","4232","40","1","Testing","Stims/Figures/85-J-0-2.bmp","ma:ma:na","Down","40","3","3","9","S","C","51"
"","","approach-retreat","200","1865125","0.0-200.0","","","2-2","4654","37","1","Testing","Stims/Figures/7-J-10-4.bmp","va:fa:va","Left","37","3","4","9","C1","C","52"
"","","approach-retreat","201","1870700","0.0-201.0","","","2-2","4065","38","1","Testing","Stims/Figures/27-C-30-1.bmp","mala:la","Down","38","3","5","9","S","C","53"
"","","approach-retreat","202","1876513","0.0-202.0","","","2-2","4304","38","0","Testing","Stims/Figures/44-C-30-3.bmp","na:la:la","Up","40","3","6","9","S","C","54"
"","","approach-retreat","203","1882269","0.0-203.0","","","2-2","4249","40","1","Testing","Stims/Figures/86-C-30-1.bmp","ta:kaka","Up","40","3","7","9","P","C","55"
"","","approach-retreat","204","1888054","0.0-204.0","","","2-2","4276","39","1","Testing","Stims/Figures/19-C-20-4.bmp","va:fa:sha","Left","39","3","8","9","C1","C","56"
"","","approach-retreat","205","1893986","0.0-205.0","","","2-2","4422","38","1","Testing","Stims/Figures/118-J-0-2.bmp","zasaha","Up","38","3","9","9","C2","C","57"
"","","approach-retreat","206","1899746","0.0-206.0","","","2-2","4250","37","1","Testing","Stims/Figures/44-J-10-3.bmp","na:la:na","Left","37","3","10","9","S","C","58"
"","","approach-retreat","207","1905528","0.0-207.0","","","2-2","4275","39","1","Testing","Stims/Figures/111-C-30-3.bmp","na:mala","Left","39","3","11","9","S","C","59"
"","","approach-retreat","208","1911363","0.0-208.0","","","2-2","4327","39","0","Testing","Stims/Figures/118-C-20-2.bmp","sa:haza","Right","37","3","12","9","C2","C","60"
"","","approach-retreat","209","1917352","0.0-209.0","","","2-2","4483","40","1","Testing","Stims/Figures/111-J-10-3.bmp","za:saha","Down","40","3","13","9","C2","C","61"
"","","approach-retreat","210","1923141","0.0-210.0","","","2-2","4282","37","1","Testing","Stims/Figures/74-C-20-4.bmp","papa:ka","Right","37","3","14","9","P","C","62"
"","","approach-retreat","211","1929058","0.0-211.0","","","2-2","4410","37","0","Testing","Stims/Figures/84-C-20-2.bmp","pa:pa:ka","Left","39","3","15","9","P","C","63"
"","","approach-retreat","212","1936750","0.0-212.0","","","2-2","6181","38","1","Testing","Stims/Figures/84-J-0-2.bmp","paka:ka","Up","38","3","16","9","P","C","64"
"","","approach-retreat","213","1943913","0.0-213.0","","","2-2","5656","39","1","Testing","Stims/Figures/93-J-0-1.bmp","fa:fa:va","Right","39","3","17","9","C1","C","65"
"","","approach-retreat","214","1949673","0.0-214.0","","","2-2","4249","37","1","Testing","Stims/Figures/144-J-10-3.bmp","mamana","Left","37","3","18","9","S","C","66"
"","","approach-retreat","215","1955506","0.0-215.0","","","2-2","4320","37","1","Testing","Stims/Figures/85-C-20-2.bmp","va:shava","Right","37","3","19","9","C1","C","67"
"","","approach-retreat","216","1961314","0.0-216.0","","","2-2","4289","40","1","Testing","Stims/Figures/144-C-30-3.bmp","pakaka","Up","40","3","20","9","P","C","68"
"","","approach-retreat","217","1967200","0.0-217.0","","","2-2","4379","39","1","Testing","Stims/Figures/19-J-10-4.bmp","takaka","Right","39","3","21","9","P","C","69"
"","","approach-retreat","218","1973086","0.0-218.0","","","2-2","4380","37","0","Testing","Stims/Figures/86-J-0-1.bmp","sasaza","Right","39","3","22","9","C2","C","70"
"","","approach-retreat","219","1979320","0.0-219.0","","","2-2","4726","40","1","Testing","Stims/Figures/27-J-0-1.bmp","fa:sha:sha","Down","40","3","23","9","C1","C","71"
"","","approach-retreat","220","1986597","0.0-220.0","","","2-2","5771","40","1","Testing","Stims/Figures/7-C-20-4.bmp","zahaha","Up","40","3","24","9","C2","C","72"
"","","approach-retreat","221","1992420","0.0-221.0","","","2-2","4316","37","1","Testing","Stims/Figures/84-C-20-2.bmp","pa:pa:ka","Right","37","4","1","9","P","C","73"
"","","approach-retreat","222","2000281","0.0-222.0","","","2-2","6352","39","0","Testing","Stims/Figures/144-J-10-3.bmp","mamana","Left","37","4","2","9","S","C","74"
"","","approach-retreat","223","2006991","0.0-223.0","","","2-2","5199","40","1","Testing","Stims/Figures/7-C-20-4.bmp","zahaha","Up","40","4","3","9","C2","C","75"
"","","approach-retreat","224","2014336","0.0-224.0","","","2-2","5834","40","1","Testing","Stims/Figures/86-J-0-1.bmp","sasaza","Down","40","4","4","9","C2","C","76"
"","","approach-retreat","225","2021166","0.0-225.0","","","2-2","5325","38","1","Testing","Stims/Figures/84-J-0-2.bmp","paka:ka","Up","38","4","5","9","P","C","77"
"","","approach-retreat","226","2027214","0.0-226.0","","","2-2","4541","40","1","Testing","Stims/Figures/93-J-0-1.bmp","fa:fa:va","Down","40","4","6","9","C1","C","78"
"","","approach-retreat","227","2033085","0.0-227.0","","","2-2","4365","38","1","Testing","Stims/Figures/93-C-30-1.bmp","sa:saza","Down","38","4","7","9","C2","C","79"
"","","approach-retreat","228","2038806","0.0-228.0","","","2-2","4213","39","1","Testing","Stims/Figures/85-J-0-2.bmp","ma:ma:na","Right","39","4","8","9","S","C","80"
"","","approach-retreat","229","2044574","0.0-229.0","","","2-2","4257","37","1","Testing","Stims/Figures/27-C-30-1.bmp","mala:la","Right","37","4","9","9","S","C","81"
"","","approach-retreat","230","2050232","0.0-230.0","","","2-2","4152","37","1","Testing","Stims/Figures/19-C-20-4.bmp","va:fa:sha","Right","37","4","10","9","C1","C","82"
"","","approach-retreat","231","2055804","0.0-231.0","","","2-2","4063","39","1","Testing","Stims/Figures/74-C-20-4.bmp","papa:ka","Left","39","4","11","9","P","C","83"
"","","approach-retreat","232","2061824","0.0-232.0","","","2-2","4510","38","1","Testing","Stims/Figures/44-J-10-3.bmp","na:la:na","Up","38","4","12","9","S","C","84"
"","","approach-retreat","233","2067428","0.0-233.0","","","2-2","4095","39","1","Testing","Stims/Figures/118-C-20-2.bmp","sa:haza","Left","39","4","13","9","C2","C","85"
"","","approach-retreat","234","2072916","0.0-234.0","","","2-2","3977","37","1","Testing","Stims/Figures/118-J-0-2.bmp","zasaha","Left","37","4","14","9","C2","C","86"
"","","approach-retreat","235","2078641","0.0-235.0","","","2-2","4218","38","1","Testing","Stims/Figures/85-C-20-2.bmp","va:shava","Down","38","4","15","9","C1","C","87"
"","","approach-retreat","236","2084782","0.0-236.0","","","2-2","4633","38","1","Testing","Stims/Figures/74-J-10-4.bmp","mama:na","Up","38","4","16","9","S","C","88"
"","","approach-retreat","237","2090614","0.0-237.0","","","2-2","4324","40","0","Testing","Stims/Figures/27-J-0-1.bmp","fa:sha:sha","Up","38","4","17","9","C1","C","89"
"","","approach-retreat","238","2096773","0.0-238.0","","","2-2","4654","40","0","Testing","Stims/Figures/44-C-30-3.bmp","na:la:la","Down","38","4","18","9","S","C","90"
"","","approach-retreat","239","2102377","0.0-239.0","","","2-2","4095","37","0","Testing","Stims/Figures/111-J-10-3.bmp","za:saha","Right","39","4","19","9","C2","C","91"
"","","approach-retreat","240","2108612","0.0-240.0","","","2-2","4728","38","1","Testing","Stims/Figures/7-J-10-4.bmp","va:fa:va","Up","38","4","20","9","C1","C","92"
"","","approach-retreat","241","2114201","0.0-241.0","","","2-2","4081","39","1","Testing","Stims/Figures/111-C-30-3.bmp","na:mala","Left","39","4","21","9","S","C","93"
"","","approach-retreat","242","2119915","0.0-242.0","","","2-2","4205","37","1","Testing","Stims/Figures/144-C-30-3.bmp","pakaka","Right","37","4","22","9","P","C","94"
"","","approach-retreat","243","2125701","0.0-243.0","","","2-2","4277","37","1","Testing","Stims/Figures/19-J-10-4.bmp","takaka","Left","37","4","23","9","P","C","95"
"","","approach-retreat","244","2131971","0.0-244.0","","","2-2","4760","38","1","Testing","Stims/Figures/86-C-30-1.bmp","ta:kaka","Down","38","4","24","9","P","C","96"
"70829","","survey-text","245","2202810","0.0-245.0","","{""Q0"":""0011/2018""}","","","","","","","","","","","","","","",""
