\"rt\",\"key_press\",\"trial_type\",\"trial_index\",\"time_elapsed\",\"internal_node_id\",\"view_history\",\"responses\",\"Id\",\"Rt\",\"ResKeyCode\",\"ResCorr\",\"TrialType2\",\"Image\",\"Label\",\"Location\",\"CorrectResponse\",\"Block\",\"BlockTrial\",\"Condition\",\"LabelType\",\"Subcondition\",\"trialNum\"
\"43932\",\"32\",\"text\",\"0\",\"43937\",\"0.0-0.0-0.0\",\"\",\"\",\"\",\"\",\"\",\"\",\"\",\"\",\"\",\"\",\"\",\"\",\"\",\"\",\"\",\"\",\"\"
\"170182\",\"\",\"instructions\",\"1\",\"214121\",\"0.0-1.0\",\"[{\"\"page_index\"\":0,\"\"viewing_time\"\":170181}]\",\"\",\"\",\"\",\"\",\"\",\"\",\"\",\"\",\"\",\"\",\"\",\"\",\"\",\"\",\"\",\"\"
\"45221\",\"\",\"survey-multi-choice\",\"2\",\"259384\",\"0.0-2.0\",\"\",\"{\"\"Q0\"\":\"\"Da\"\",\"\"Q1\"\":\"\"Da\"\",\"\"Q2\"\":\"\"Da\"\",\"\"Q3\"\":\"\"Da\"\",\"\"Q4\"\":\"\"Da\"\",\"\"Q5\"\":\"\"Da\"\"}\",\"\",\"\",\"\",\"\",\"\",\"\",\"\",\"\",\"\",\"\",\"\",\"\",\"\",\"\",\"\"
\"\",\"\",\"bio\",\"3\",\"272803\",\"0.0-3.0\",\"\",\"{\"\"age\"\":\"\"24\"\",\"\"gender\"\":\"\"f\"\",\"\"specify\"\":\"\"\"\"}\",\"\",\"\",\"\",\"\",\"\",\"\",\"\",\"\",\"\",\"\",\"\",\"\",\"\",\"\",\"\"
\"\",\"\",\"approach-retreat\",\"4\",\"278906\",\"0.0-4.0\",\"\",\"\",\"2-1\",\"4588\",\"37\",\"1\",\"Training\",\"Stims/Figures/144-C-30-3.bmp\",\"ta:kata\",\"Left\",\"37\",\"1\",\"1\",\"2\",\"P\",\"J\",\"1\"
\"\",\"\",\"approach-retreat\",\"5\",\"285221\",\"0.0-5.0\",\"\",\"\",\"2-1\",\"4803\",\"38\",\"0\",\"Training\",\"Stims/Figures/93-J-0-1.bmp\",\"nala:na\",\"Up\",\"40\",\"1\",\"2\",\"2\",\"S\",\"J\",\"2\"
\"\",\"\",\"approach-retreat\",\"6\",\"290814\",\"0.0-6.0\",\"\",\"\",\"2-1\",\"4080\",\"37\",\"1\",\"Training\",\"Stims/Figures/93-C-30-1.bmp\",\"ta:kata\",\"Left\",\"37\",\"1\",\"3\",\"2\",\"P\",\"J\",\"3\"
\"\",\"\",\"approach-retreat\",\"7\",\"296421\",\"0.0-7.0\",\"\",\"\",\"2-1\",\"4094\",\"40\",\"1\",\"Training\",\"Stims/Figures/7-J-10-4.bmp\",\"nala:na\",\"Up\",\"40\",\"1\",\"4\",\"2\",\"S\",\"J\",\"4\"
\"\",\"\",\"approach-retreat\",\"8\",\"302636\",\"0.0-8.0\",\"\",\"\",\"2-1\",\"4702\",\"37\",\"0\",\"Training\",\"Stims/Figures/102-C-20-4.bmp\",\"ta:kata\",\"Right\",\"39\",\"1\",\"5\",\"2\",\"P\",\"J\",\"5\"
\"\",\"\",\"approach-retreat\",\"9\",\"308236\",\"0.0-9.0\",\"\",\"\",\"2-1\",\"4048\",\"39\",\"1\",\"Training\",\"Stims/Figures/100-C-30-3.bmp\",\"ta:kata\",\"Right\",\"39\",\"1\",\"6\",\"2\",\"P\",\"J\",\"6\"
\"\",\"\",\"approach-retreat\",\"10\",\"314191\",\"0.0-10.0\",\"\",\"\",\"2-1\",\"4445\",\"40\",\"0\",\"Training\",\"Stims/Figures/94-C-20-2.bmp\",\"ta:kata\",\"Up\",\"38\",\"1\",\"7\",\"2\",\"P\",\"J\",\"7\"
\"\",\"\",\"approach-retreat\",\"11\",\"320002\",\"0.0-11.0\",\"\",\"\",\"2-1\",\"4299\",\"37\",\"0\",\"Training\",\"Stims/Figures/27-J-0-1.bmp\",\"nala:na\",\"Left\",\"39\",\"1\",\"8\",\"2\",\"S\",\"J\",\"8\"
\"\",\"\",\"approach-retreat\",\"12\",\"326084\",\"0.0-12.0\",\"\",\"\",\"2-1\",\"4572\",\"38\",\"0\",\"Training\",\"Stims/Figures/7-C-20-4.bmp\",\"ta:kata\",\"Down\",\"40\",\"1\",\"9\",\"2\",\"P\",\"J\",\"9\"
\"\",\"\",\"approach-retreat\",\"13\",\"332111\",\"0.0-13.0\",\"\",\"\",\"2-1\",\"4510\",\"38\",\"1\",\"Training\",\"Stims/Figures/94-J-0-2.bmp\",\"nala:na\",\"Down\",\"38\",\"1\",\"10\",\"2\",\"S\",\"J\",\"10\"
\"\",\"\",\"approach-retreat\",\"14\",\"337732\",\"0.0-14.0\",\"\",\"\",\"2-1\",\"4094\",\"39\",\"0\",\"Training\",\"Stims/Figures/102-J-10-4.bmp\",\"nala:na\",\"Right\",\"37\",\"1\",\"11\",\"2\",\"S\",\"J\",\"11\"
\"\",\"\",\"approach-retreat\",\"15\",\"343637\",\"0.0-15.0\",\"\",\"\",\"2-1\",\"4389\",\"40\",\"1\",\"Training\",\"Stims/Figures/139-C-20-2.bmp\",\"ta:kata\",\"Down\",\"40\",\"1\",\"12\",\"2\",\"P\",\"J\",\"12\"
\"\",\"\",\"approach-retreat\",\"16\",\"349485\",\"0.0-16.0\",\"\",\"\",\"2-1\",\"4336\",\"39\",\"1\",\"Training\",\"Stims/Figures/144-J-10-3.bmp\",\"nala:na\",\"Left\",\"39\",\"1\",\"13\",\"2\",\"S\",\"J\",\"13\"
\"\",\"\",\"approach-retreat\",\"17\",\"355280\",\"0.0-17.0\",\"\",\"\",\"2-1\",\"4274\",\"40\",\"1\",\"Training\",\"Stims/Figures/139-J-0-2.bmp\",\"nala:na\",\"Up\",\"40\",\"1\",\"14\",\"2\",\"S\",\"J\",\"14\"
\"\",\"\",\"approach-retreat\",\"18\",\"360849\",\"0.0-18.0\",\"\",\"\",\"2-1\",\"4048\",\"38\",\"1\",\"Training\",\"Stims/Figures/100-J-10-3.bmp\",\"nala:na\",\"Down\",\"38\",\"1\",\"15\",\"2\",\"S\",\"J\",\"15\"
\"\",\"\",\"approach-retreat\",\"19\",\"366557\",\"0.0-19.0\",\"\",\"\",\"2-1\",\"4195\",\"39\",\"1\",\"Training\",\"Stims/Figures/27-C-30-1.bmp\",\"ta:kata\",\"Right\",\"39\",\"1\",\"16\",\"2\",\"P\",\"J\",\"16\"
\"\",\"\",\"approach-retreat\",\"20\",\"372795\",\"0.0-20.0\",\"\",\"\",\"2-1\",\"4693\",\"38\",\"1\",\"Training\",\"Stims/Figures/93-J-0-1.bmp\",\"nala:na\",\"Down\",\"38\",\"2\",\"1\",\"2\",\"S\",\"J\",\"17\"
\"\",\"\",\"approach-retreat\",\"21\",\"378551\",\"0.0-21.0\",\"\",\"\",\"2-1\",\"4236\",\"38\",\"1\",\"Training\",\"Stims/Figures/93-C-30-1.bmp\",\"ta:kata\",\"Up\",\"38\",\"2\",\"2\",\"2\",\"P\",\"J\",\"18\"
\"\",\"\",\"approach-retreat\",\"22\",\"384518\",\"0.0-22.0\",\"\",\"\",\"2-1\",\"4455\",\"39\",\"0\",\"Training\",\"Stims/Figures/144-J-10-3.bmp\",\"nala:na\",\"Right\",\"37\",\"2\",\"3\",\"2\",\"S\",\"J\",\"19\"
\"\",\"\",\"approach-retreat\",\"23\",\"390328\",\"0.0-23.0\",\"\",\"\",\"2-1\",\"4276\",\"40\",\"1\",\"Training\",\"Stims/Figures/139-J-0-2.bmp\",\"nala:na\",\"Up\",\"40\",\"2\",\"4\",\"2\",\"S\",\"J\",\"20\"
\"\",\"\",\"approach-retreat\",\"24\",\"395887\",\"0.0-24.0\",\"\",\"\",\"2-1\",\"4048\",\"39\",\"1\",\"Training\",\"Stims/Figures/94-J-0-2.bmp\",\"nala:na\",\"Left\",\"39\",\"2\",\"5\",\"2\",\"S\",\"J\",\"21\"
\"\",\"\",\"approach-retreat\",\"25\",\"401503\",\"0.0-25.0\",\"\",\"\",\"2-1\",\"4105\",\"39\",\"1\",\"Training\",\"Stims/Figures/102-J-10-4.bmp\",\"nala:na\",\"Left\",\"39\",\"2\",\"6\",\"2\",\"S\",\"J\",\"22\"
\"\",\"\",\"approach-retreat\",\"26\",\"407334\",\"0.0-26.0\",\"\",\"\",\"2-1\",\"4313\",\"38\",\"1\",\"Training\",\"Stims/Figures/27-J-0-1.bmp\",\"nala:na\",\"Down\",\"38\",\"2\",\"7\",\"2\",\"S\",\"J\",\"23\"
\"\",\"\",\"approach-retreat\",\"27\",\"412975\",\"0.0-27.0\",\"\",\"\",\"2-1\",\"4131\",\"37\",\"1\",\"Training\",\"Stims/Figures/94-C-20-2.bmp\",\"ta:kata\",\"Left\",\"37\",\"2\",\"8\",\"2\",\"P\",\"J\",\"24\"
\"\",\"\",\"approach-retreat\",\"28\",\"418617\",\"0.0-28.0\",\"\",\"\",\"2-1\",\"4130\",\"38\",\"1\",\"Training\",\"Stims/Figures/27-C-30-1.bmp\",\"ta:kata\",\"Up\",\"38\",\"2\",\"9\",\"2\",\"P\",\"J\",\"25\"
\"\",\"\",\"approach-retreat\",\"29\",\"424722\",\"0.0-29.0\",\"\",\"\",\"2-1\",\"4593\",\"39\",\"0\",\"Training\",\"Stims/Figures/7-J-10-4.bmp\",\"nala:na\",\"Right\",\"37\",\"2\",\"10\",\"2\",\"S\",\"J\",\"26\"
\"\",\"\",\"approach-retreat\",\"30\",\"430354\",\"0.0-30.0\",\"\",\"\",\"2-1\",\"4121\",\"37\",\"1\",\"Training\",\"Stims/Figures/102-C-20-4.bmp\",\"ta:kata\",\"Left\",\"37\",\"2\",\"11\",\"2\",\"P\",\"J\",\"27\"
\"\",\"\",\"approach-retreat\",\"31\",\"435870\",\"0.0-31.0\",\"\",\"\",\"2-1\",\"4005\",\"39\",\"1\",\"Training\",\"Stims/Figures/7-C-20-4.bmp\",\"ta:kata\",\"Right\",\"39\",\"2\",\"12\",\"2\",\"P\",\"J\",\"28\"
\"\",\"\",\"approach-retreat\",\"32\",\"442486\",\"0.0-32.0\",\"\",\"\",\"2-1\",\"5099\",\"37\",\"1\",\"Training\",\"Stims/Figures/100-J-10-3.bmp\",\"nala:na\",\"Right\",\"37\",\"2\",\"13\",\"2\",\"S\",\"J\",\"29\"
\"\",\"\",\"approach-retreat\",\"33\",\"448290\",\"0.0-33.0\",\"\",\"\",\"2-1\",\"4294\",\"38\",\"0\",\"Training\",\"Stims/Figures/100-C-30-3.bmp\",\"ta:kata\",\"Down\",\"40\",\"2\",\"14\",\"2\",\"P\",\"J\",\"30\"
\"\",\"\",\"approach-retreat\",\"34\",\"453919\",\"0.0-34.0\",\"\",\"\",\"2-1\",\"4116\",\"38\",\"1\",\"Training\",\"Stims/Figures/144-C-30-3.bmp\",\"ta:kata\",\"Up\",\"38\",\"2\",\"15\",\"2\",\"P\",\"J\",\"31\"
\"\",\"\",\"approach-retreat\",\"35\",\"459616\",\"0.0-35.0\",\"\",\"\",\"2-1\",\"4180\",\"40\",\"1\",\"Training\",\"Stims/Figures/139-C-20-2.bmp\",\"ta:kata\",\"Down\",\"40\",\"2\",\"16\",\"2\",\"P\",\"J\",\"32\"
\"\",\"\",\"approach-retreat\",\"36\",\"465404\",\"0.0-36.0\",\"\",\"\",\"2-1\",\"4266\",\"38\",\"1\",\"Training\",\"Stims/Figures/94-J-0-2.bmp\",\"nala:na\",\"Down\",\"38\",\"3\",\"1\",\"2\",\"S\",\"J\",\"33\"
\"\",\"\",\"approach-retreat\",\"37\",\"471062\",\"0.0-37.0\",\"\",\"\",\"2-1\",\"4132\",\"38\",\"1\",\"Training\",\"Stims/Figures/27-J-0-1.bmp\",\"nala:na\",\"Down\",\"38\",\"3\",\"2\",\"2\",\"S\",\"J\",\"34\"
\"\",\"\",\"approach-retreat\",\"38\",\"476889\",\"0.0-38.0\",\"\",\"\",\"2-1\",\"4279\",\"40\",\"1\",\"Training\",\"Stims/Figures/7-J-10-4.bmp\",\"nala:na\",\"Up\",\"40\",\"3\",\"3\",\"2\",\"S\",\"J\",\"35\"
\"\",\"\",\"approach-retreat\",\"39\",\"482506\",\"0.0-39.0\",\"\",\"\",\"2-1\",\"4068\",\"38\",\"1\",\"Training\",\"Stims/Figures/93-J-0-1.bmp\",\"nala:na\",\"Down\",\"38\",\"3\",\"4\",\"2\",\"S\",\"J\",\"36\"
\"\",\"\",\"approach-retreat\",\"40\",\"488122\",\"0.0-40.0\",\"\",\"\",\"2-1\",\"4106\",\"39\",\"1\",\"Training\",\"Stims/Figures/102-J-10-4.bmp\",\"nala:na\",\"Left\",\"39\",\"3\",\"5\",\"2\",\"S\",\"J\",\"37\"
\"\",\"\",\"approach-retreat\",\"41\",\"493870\",\"0.0-41.0\",\"\",\"\",\"2-1\",\"4214\",\"37\",\"1\",\"Training\",\"Stims/Figures/100-J-10-3.bmp\",\"nala:na\",\"Right\",\"37\",\"3\",\"6\",\"2\",\"S\",\"J\",\"38\"
\"\",\"\",\"approach-retreat\",\"42\",\"499684\",\"0.0-42.0\",\"\",\"\",\"2-1\",\"4272\",\"37\",\"1\",\"Training\",\"Stims/Figures/100-C-30-3.bmp\",\"ta:kata\",\"Left\",\"37\",\"3\",\"7\",\"2\",\"P\",\"J\",\"39\"
\"\",\"\",\"approach-retreat\",\"43\",\"505502\",\"0.0-43.0\",\"\",\"\",\"2-1\",\"4298\",\"39\",\"1\",\"Training\",\"Stims/Figures/139-J-0-2.bmp\",\"nala:na\",\"Left\",\"39\",\"3\",\"8\",\"2\",\"S\",\"J\",\"40\"
\"\",\"\",\"approach-retreat\",\"44\",\"511265\",\"0.0-44.0\",\"\",\"\",\"2-1\",\"4224\",\"39\",\"1\",\"Training\",\"Stims/Figures/102-C-20-4.bmp\",\"ta:kata\",\"Right\",\"39\",\"3\",\"9\",\"2\",\"P\",\"J\",\"41\"
\"\",\"\",\"approach-retreat\",\"45\",\"516816\",\"0.0-45.0\",\"\",\"\",\"2-1\",\"4008\",\"39\",\"1\",\"Training\",\"Stims/Figures/144-C-30-3.bmp\",\"ta:kata\",\"Right\",\"39\",\"3\",\"10\",\"2\",\"P\",\"J\",\"42\"
\"\",\"\",\"approach-retreat\",\"46\",\"522496\",\"0.0-46.0\",\"\",\"\",\"2-1\",\"4134\",\"40\",\"1\",\"Training\",\"Stims/Figures/93-C-30-1.bmp\",\"ta:kata\",\"Down\",\"40\",\"3\",\"11\",\"2\",\"P\",\"J\",\"43\"
\"\",\"\",\"approach-retreat\",\"47\",\"528151\",\"0.0-47.0\",\"\",\"\",\"2-1\",\"4110\",\"38\",\"1\",\"Training\",\"Stims/Figures/7-C-20-4.bmp\",\"ta:kata\",\"Up\",\"38\",\"3\",\"12\",\"2\",\"P\",\"J\",\"44\"
\"\",\"\",\"approach-retreat\",\"48\",\"533711\",\"0.0-48.0\",\"\",\"\",\"2-1\",\"4028\",\"39\",\"1\",\"Training\",\"Stims/Figures/27-C-30-1.bmp\",\"ta:kata\",\"Right\",\"39\",\"3\",\"13\",\"2\",\"P\",\"J\",\"45\"
\"\",\"\",\"approach-retreat\",\"49\",\"539389\",\"0.0-49.0\",\"\",\"\",\"2-1\",\"4137\",\"37\",\"1\",\"Training\",\"Stims/Figures/139-C-20-2.bmp\",\"ta:kata\",\"Left\",\"37\",\"3\",\"14\",\"2\",\"P\",\"J\",\"46\"
\"\",\"\",\"approach-retreat\",\"50\",\"545014\",\"0.0-50.0\",\"\",\"\",\"2-1\",\"4089\",\"38\",\"1\",\"Training\",\"Stims/Figures/94-C-20-2.bmp\",\"ta:kata\",\"Up\",\"38\",\"3\",\"15\",\"2\",\"P\",\"J\",\"47\"
\"\",\"\",\"approach-retreat\",\"51\",\"550794\",\"0.0-51.0\",\"\",\"\",\"2-1\",\"4244\",\"40\",\"1\",\"Training\",\"Stims/Figures/144-J-10-3.bmp\",\"nala:na\",\"Up\",\"40\",\"3\",\"16\",\"2\",\"S\",\"J\",\"48\"
\"\",\"\",\"approach-retreat\",\"52\",\"556417\",\"0.0-52.0\",\"\",\"\",\"2-1\",\"4087\",\"39\",\"1\",\"Training\",\"Stims/Figures/7-C-20-4.bmp\",\"ta:kata\",\"Right\",\"39\",\"4\",\"1\",\"2\",\"P\",\"J\",\"49\"
\"\",\"\",\"approach-retreat\",\"53\",\"562676\",\"0.0-53.0\",\"\",\"\",\"2-1\",\"4719\",\"39\",\"1\",\"Training\",\"Stims/Figures/102-J-10-4.bmp\",\"nala:na\",\"Left\",\"39\",\"4\",\"2\",\"2\",\"S\",\"J\",\"50\"
\"\",\"\",\"approach-retreat\",\"54\",\"568311\",\"0.0-54.0\",\"\",\"\",\"2-1\",\"4115\",\"40\",\"1\",\"Training\",\"Stims/Figures/93-C-30-1.bmp\",\"ta:kata\",\"Down\",\"40\",\"4\",\"3\",\"2\",\"P\",\"J\",\"51\"
\"\",\"\",\"approach-retreat\",\"55\",\"574101\",\"0.0-55.0\",\"\",\"\",\"2-1\",\"4276\",\"39\",\"1\",\"Training\",\"Stims/Figures/7-J-10-4.bmp\",\"nala:na\",\"Left\",\"39\",\"4\",\"4\",\"2\",\"S\",\"J\",\"52\"
\"\",\"\",\"approach-retreat\",\"56\",\"580033\",\"0.0-56.0\",\"\",\"\",\"2-1\",\"4395\",\"37\",\"1\",\"Training\",\"Stims/Figures/93-J-0-1.bmp\",\"nala:na\",\"Right\",\"37\",\"4\",\"5\",\"2\",\"S\",\"J\",\"53\"
\"\",\"\",\"approach-retreat\",\"57\",\"585594\",\"0.0-57.0\",\"\",\"\",\"2-1\",\"4049\",\"38\",\"1\",\"Training\",\"Stims/Figures/144-J-10-3.bmp\",\"nala:na\",\"Down\",\"38\",\"4\",\"6\",\"2\",\"S\",\"J\",\"54\"
\"\",\"\",\"approach-retreat\",\"58\",\"591389\",\"0.0-58.0\",\"\",\"\",\"2-1\",\"4283\",\"39\",\"1\",\"Training\",\"Stims/Figures/100-J-10-3.bmp\",\"nala:na\",\"Left\",\"39\",\"4\",\"7\",\"2\",\"S\",\"J\",\"55\"
\"\",\"\",\"approach-retreat\",\"59\",\"597002\",\"0.0-59.0\",\"\",\"\",\"2-1\",\"4101\",\"38\",\"1\",\"Training\",\"Stims/Figures/144-C-30-3.bmp\",\"ta:kata\",\"Up\",\"38\",\"4\",\"8\",\"2\",\"P\",\"J\",\"56\"
\"\",\"\",\"approach-retreat\",\"60\",\"602418\",\"0.0-60.0\",\"\",\"\",\"2-1\",\"3907\",\"38\",\"1\",\"Training\",\"Stims/Figures/94-C-20-2.bmp\",\"ta:kata\",\"Up\",\"38\",\"4\",\"9\",\"2\",\"P\",\"J\",\"57\"
\"\",\"\",\"approach-retreat\",\"61\",\"608002\",\"0.0-61.0\",\"\",\"\",\"2-1\",\"4059\",\"40\",\"1\",\"Training\",\"Stims/Figures/100-C-30-3.bmp\",\"ta:kata\",\"Down\",\"40\",\"4\",\"10\",\"2\",\"P\",\"J\",\"58\"
\"\",\"\",\"approach-retreat\",\"62\",\"613433\",\"0.0-62.0\",\"\",\"\",\"2-1\",\"3881\",\"39\",\"1\",\"Training\",\"Stims/Figures/27-C-30-1.bmp\",\"ta:kata\",\"Right\",\"39\",\"4\",\"11\",\"2\",\"P\",\"J\",\"59\"
\"\",\"\",\"approach-retreat\",\"63\",\"619036\",\"0.0-63.0\",\"\",\"\",\"2-1\",\"4068\",\"37\",\"1\",\"Training\",\"Stims/Figures/94-J-0-2.bmp\",\"nala:na\",\"Right\",\"37\",\"4\",\"12\",\"2\",\"S\",\"J\",\"60\"
\"\",\"\",\"approach-retreat\",\"64\",\"625185\",\"0.0-64.0\",\"\",\"\",\"2-1\",\"4637\",\"40\",\"1\",\"Training\",\"Stims/Figures/139-J-0-2.bmp\",\"nala:na\",\"Up\",\"40\",\"4\",\"13\",\"2\",\"S\",\"J\",\"61\"
\"\",\"\",\"approach-retreat\",\"65\",\"630665\",\"0.0-65.0\",\"\",\"\",\"2-1\",\"3936\",\"38\",\"1\",\"Training\",\"Stims/Figures/139-C-20-2.bmp\",\"ta:kata\",\"Up\",\"38\",\"4\",\"14\",\"2\",\"P\",\"J\",\"62\"
\"\",\"\",\"approach-retreat\",\"66\",\"636294\",\"0.0-66.0\",\"\",\"\",\"2-1\",\"4117\",\"40\",\"1\",\"Training\",\"Stims/Figures/102-C-20-4.bmp\",\"ta:kata\",\"Down\",\"40\",\"4\",\"15\",\"2\",\"P\",\"J\",\"63\"
\"\",\"\",\"approach-retreat\",\"67\",\"642128\",\"0.0-67.0\",\"\",\"\",\"2-1\",\"4297\",\"39\",\"1\",\"Training\",\"Stims/Figures/27-J-0-1.bmp\",\"nala:na\",\"Left\",\"39\",\"4\",\"16\",\"2\",\"S\",\"J\",\"64\"
\"\",\"\",\"approach-retreat\",\"68\",\"647750\",\"0.0-68.0\",\"\",\"\",\"2-1\",\"4084\",\"39\",\"1\",\"Training\",\"Stims/Figures/102-J-10-4.bmp\",\"nala:na\",\"Left\",\"39\",\"5\",\"1\",\"2\",\"S\",\"J\",\"65\"
\"\",\"\",\"approach-retreat\",\"69\",\"653370\",\"0.0-69.0\",\"\",\"\",\"2-1\",\"4071\",\"37\",\"1\",\"Training\",\"Stims/Figures/7-J-10-4.bmp\",\"nala:na\",\"Right\",\"37\",\"5\",\"2\",\"2\",\"S\",\"J\",\"66\"
\"\",\"\",\"approach-retreat\",\"70\",\"658959\",\"0.0-70.0\",\"\",\"\",\"2-1\",\"4079\",\"38\",\"1\",\"Training\",\"Stims/Figures/144-J-10-3.bmp\",\"nala:na\",\"Down\",\"38\",\"5\",\"3\",\"2\",\"S\",\"J\",\"67\"
\"\",\"\",\"approach-retreat\",\"71\",\"664599\",\"0.0-71.0\",\"\",\"\",\"2-1\",\"4124\",\"37\",\"1\",\"Training\",\"Stims/Figures/93-J-0-1.bmp\",\"nala:na\",\"Right\",\"37\",\"5\",\"4\",\"2\",\"S\",\"J\",\"68\"
\"\",\"\",\"approach-retreat\",\"72\",\"670155\",\"0.0-72.0\",\"\",\"\",\"2-1\",\"4046\",\"38\",\"1\",\"Training\",\"Stims/Figures/100-J-10-3.bmp\",\"nala:na\",\"Down\",\"38\",\"5\",\"5\",\"2\",\"S\",\"J\",\"69\"
\"\",\"\",\"approach-retreat\",\"73\",\"675516\",\"0.0-73.0\",\"\",\"\",\"2-1\",\"3820\",\"37\",\"1\",\"Training\",\"Stims/Figures/93-C-30-1.bmp\",\"ta:kata\",\"Left\",\"37\",\"5\",\"6\",\"2\",\"P\",\"J\",\"70\"
\"\",\"\",\"approach-retreat\",\"74\",\"680955\",\"0.0-74.0\",\"\",\"\",\"2-1\",\"3929\",\"37\",\"1\",\"Training\",\"Stims/Figures/144-C-30-3.bmp\",\"ta:kata\",\"Left\",\"37\",\"5\",\"7\",\"2\",\"P\",\"J\",\"71\"
\"\",\"\",\"approach-retreat\",\"75\",\"686432\",\"0.0-75.0\",\"\",\"\",\"2-1\",\"3965\",\"39\",\"1\",\"Training\",\"Stims/Figures/102-C-20-4.bmp\",\"ta:kata\",\"Right\",\"39\",\"5\",\"8\",\"2\",\"P\",\"J\",\"72\"
\"\",\"\",\"approach-retreat\",\"76\",\"692426\",\"0.0-76.0\",\"\",\"\",\"2-1\",\"4473\",\"40\",\"1\",\"Training\",\"Stims/Figures/139-C-20-2.bmp\",\"ta:kata\",\"Down\",\"40\",\"5\",\"9\",\"2\",\"P\",\"J\",\"73\"
\"\",\"\",\"approach-retreat\",\"77\",\"698332\",\"0.0-77.0\",\"\",\"\",\"2-1\",\"4392\",\"40\",\"1\",\"Training\",\"Stims/Figures/139-J-0-2.bmp\",\"nala:na\",\"Up\",\"40\",\"5\",\"10\",\"2\",\"S\",\"J\",\"74\"
\"\",\"\",\"approach-retreat\",\"78\",\"704367\",\"0.0-78.0\",\"\",\"\",\"2-1\",\"4517\",\"39\",\"1\",\"Training\",\"Stims/Figures/27-J-0-1.bmp\",\"nala:na\",\"Left\",\"39\",\"5\",\"11\",\"2\",\"S\",\"J\",\"75\"
\"\",\"\",\"approach-retreat\",\"79\",\"710149\",\"0.0-79.0\",\"\",\"\",\"2-1\",\"4253\",\"40\",\"1\",\"Training\",\"Stims/Figures/7-C-20-4.bmp\",\"ta:kata\",\"Down\",\"40\",\"5\",\"12\",\"2\",\"P\",\"J\",\"76\"
\"\",\"\",\"approach-retreat\",\"80\",\"715545\",\"0.0-80.0\",\"\",\"\",\"2-1\",\"3868\",\"38\",\"1\",\"Training\",\"Stims/Figures/100-C-30-3.bmp\",\"ta:kata\",\"Up\",\"38\",\"5\",\"13\",\"2\",\"P\",\"J\",\"77\"
\"\",\"\",\"approach-retreat\",\"81\",\"721019\",\"0.0-81.0\",\"\",\"\",\"2-1\",\"3954\",\"38\",\"1\",\"Training\",\"Stims/Figures/27-C-30-1.bmp\",\"ta:kata\",\"Up\",\"38\",\"5\",\"14\",\"2\",\"P\",\"J\",\"78\"
\"\",\"\",\"approach-retreat\",\"82\",\"726631\",\"0.0-82.0\",\"\",\"\",\"2-1\",\"4081\",\"37\",\"1\",\"Training\",\"Stims/Figures/94-J-0-2.bmp\",\"nala:na\",\"Right\",\"37\",\"5\",\"15\",\"2\",\"S\",\"J\",\"79\"
\"\",\"\",\"approach-retreat\",\"83\",\"732097\",\"0.0-83.0\",\"\",\"\",\"2-1\",\"3950\",\"38\",\"1\",\"Training\",\"Stims/Figures/94-C-20-2.bmp\",\"ta:kata\",\"Up\",\"38\",\"5\",\"16\",\"2\",\"P\",\"J\",\"80\"
\"\",\"\",\"approach-retreat\",\"84\",\"737782\",\"0.0-84.0\",\"\",\"\",\"2-1\",\"4174\",\"40\",\"1\",\"Training\",\"Stims/Figures/144-J-10-3.bmp\",\"nala:na\",\"Up\",\"40\",\"6\",\"1\",\"2\",\"S\",\"J\",\"81\"
\"\",\"\",\"approach-retreat\",\"85\",\"743198\",\"0.0-85.0\",\"\",\"\",\"2-1\",\"3904\",\"37\",\"1\",\"Training\",\"Stims/Figures/94-C-20-2.bmp\",\"ta:kata\",\"Left\",\"37\",\"6\",\"2\",\"2\",\"P\",\"J\",\"82\"
\"\",\"\",\"approach-retreat\",\"86\",\"748895\",\"0.0-86.0\",\"\",\"\",\"2-1\",\"4185\",\"40\",\"1\",\"Training\",\"Stims/Figures/139-J-0-2.bmp\",\"nala:na\",\"Up\",\"40\",\"6\",\"3\",\"2\",\"S\",\"J\",\"83\"
\"\",\"\",\"approach-retreat\",\"87\",\"754399\",\"0.0-87.0\",\"\",\"\",\"2-1\",\"3983\",\"38\",\"1\",\"Training\",\"Stims/Figures/27-C-30-1.bmp\",\"ta:kata\",\"Up\",\"38\",\"6\",\"4\",\"2\",\"P\",\"J\",\"84\"
\"\",\"\",\"approach-retreat\",\"88\",\"760095\",\"0.0-88.0\",\"\",\"\",\"2-1\",\"4175\",\"38\",\"1\",\"Training\",\"Stims/Figures/93-J-0-1.bmp\",\"nala:na\",\"Down\",\"38\",\"6\",\"5\",\"2\",\"S\",\"J\",\"85\"
\"\",\"\",\"approach-retreat\",\"89\",\"765655\",\"0.0-89.0\",\"\",\"\",\"2-1\",\"4050\",\"38\",\"0\",\"Training\",\"Stims/Figures/100-C-30-3.bmp\",\"ta:kata\",\"Down\",\"40\",\"6\",\"6\",\"2\",\"P\",\"J\",\"86\"
\"\",\"\",\"approach-retreat\",\"90\",\"771576\",\"0.0-90.0\",\"\",\"\",\"2-1\",\"4410\",\"39\",\"0\",\"Training\",\"Stims/Figures/27-J-0-1.bmp\",\"nala:na\",\"Right\",\"37\",\"6\",\"7\",\"2\",\"S\",\"J\",\"87\"
\"\",\"\",\"approach-retreat\",\"91\",\"777476\",\"0.0-91.0\",\"\",\"\",\"2-1\",\"4372\",\"40\",\"1\",\"Training\",\"Stims/Figures/7-C-20-4.bmp\",\"ta:kata\",\"Down\",\"40\",\"6\",\"8\",\"2\",\"P\",\"J\",\"88\"
\"\",\"\",\"approach-retreat\",\"92\",\"783111\",\"0.0-92.0\",\"\",\"\",\"2-1\",\"4108\",\"39\",\"1\",\"Training\",\"Stims/Figures/94-J-0-2.bmp\",\"nala:na\",\"Left\",\"39\",\"6\",\"9\",\"2\",\"S\",\"J\",\"89\"
\"\",\"\",\"approach-retreat\",\"93\",\"788633\",\"0.0-93.0\",\"\",\"\",\"2-1\",\"3981\",\"39\",\"1\",\"Training\",\"Stims/Figures/102-C-20-4.bmp\",\"ta:kata\",\"Right\",\"39\",\"6\",\"10\",\"2\",\"P\",\"J\",\"90\"
\"\",\"\",\"approach-retreat\",\"94\",\"794248\",\"0.0-94.0\",\"\",\"\",\"2-1\",\"4059\",\"39\",\"1\",\"Training\",\"Stims/Figures/102-J-10-4.bmp\",\"nala:na\",\"Left\",\"39\",\"6\",\"11\",\"2\",\"S\",\"J\",\"91\"
\"\",\"\",\"approach-retreat\",\"95\",\"799953\",\"0.0-95.0\",\"\",\"\",\"2-1\",\"4184\",\"38\",\"1\",\"Training\",\"Stims/Figures/93-C-30-1.bmp\",\"ta:kata\",\"Up\",\"38\",\"6\",\"12\",\"2\",\"P\",\"J\",\"92\"
\"\",\"\",\"approach-retreat\",\"96\",\"805678\",\"0.0-96.0\",\"\",\"\",\"2-1\",\"4186\",\"40\",\"0\",\"Training\",\"Stims/Figures/100-J-10-3.bmp\",\"nala:na\",\"Down\",\"38\",\"6\",\"13\",\"2\",\"S\",\"J\",\"93\"
\"\",\"\",\"approach-retreat\",\"97\",\"811548\",\"0.0-97.0\",\"\",\"\",\"2-1\",\"4333\",\"39\",\"1\",\"Training\",\"Stims/Figures/144-C-30-3.bmp\",\"ta:kata\",\"Right\",\"39\",\"6\",\"14\",\"2\",\"P\",\"J\",\"94\"
\"\",\"\",\"approach-retreat\",\"98\",\"817892\",\"0.0-98.0\",\"\",\"\",\"2-1\",\"4809\",\"39\",\"1\",\"Training\",\"Stims/Figures/7-J-10-4.bmp\",\"nala:na\",\"Left\",\"39\",\"6\",\"15\",\"2\",\"S\",\"J\",\"95\"
\"\",\"\",\"approach-retreat\",\"99\",\"823433\",\"0.0-99.0\",\"\",\"\",\"2-1\",\"4027\",\"39\",\"1\",\"Training\",\"Stims/Figures/139-C-20-2.bmp\",\"ta:kata\",\"Right\",\"39\",\"6\",\"16\",\"2\",\"P\",\"J\",\"96\"
\"\",\"\",\"approach-retreat\",\"100\",\"829148\",\"0.0-100.0\",\"\",\"\",\"2-1\",\"4171\",\"40\",\"1\",\"Training\",\"Stims/Figures/139-J-0-2.bmp\",\"nala:na\",\"Up\",\"40\",\"7\",\"1\",\"2\",\"S\",\"J\",\"97\"
\"\",\"\",\"approach-retreat\",\"101\",\"834732\",\"0.0-101.0\",\"\",\"\",\"2-1\",\"4055\",\"39\",\"1\",\"Training\",\"Stims/Figures/102-J-10-4.bmp\",\"nala:na\",\"Left\",\"39\",\"7\",\"2\",\"2\",\"S\",\"J\",\"98\"
\"\",\"\",\"approach-retreat\",\"102\",\"840497\",\"0.0-102.0\",\"\",\"\",\"2-1\",\"4241\",\"38\",\"1\",\"Training\",\"Stims/Figures/100-C-30-3.bmp\",\"ta:kata\",\"Up\",\"38\",\"7\",\"3\",\"2\",\"P\",\"J\",\"99\"
\"\",\"\",\"approach-retreat\",\"103\",\"846147\",\"0.0-103.0\",\"\",\"\",\"2-1\",\"4103\",\"37\",\"1\",\"Training\",\"Stims/Figures/94-C-20-2.bmp\",\"ta:kata\",\"Left\",\"37\",\"7\",\"4\",\"2\",\"P\",\"J\",\"100\"
\"\",\"\",\"approach-retreat\",\"104\",\"851645\",\"0.0-104.0\",\"\",\"\",\"2-1\",\"3957\",\"37\",\"1\",\"Training\",\"Stims/Figures/139-C-20-2.bmp\",\"ta:kata\",\"Left\",\"37\",\"7\",\"5\",\"2\",\"P\",\"J\",\"101\"
\"\",\"\",\"approach-retreat\",\"105\",\"857128\",\"0.0-105.0\",\"\",\"\",\"2-1\",\"3972\",\"37\",\"1\",\"Training\",\"Stims/Figures/7-J-10-4.bmp\",\"nala:na\",\"Right\",\"37\",\"7\",\"6\",\"2\",\"S\",\"J\",\"102\"
\"\",\"\",\"approach-retreat\",\"106\",\"863014\",\"0.0-106.0\",\"\",\"\",\"2-1\",\"4363\",\"40\",\"1\",\"Training\",\"Stims/Figures/144-J-10-3.bmp\",\"nala:na\",\"Up\",\"40\",\"7\",\"7\",\"2\",\"S\",\"J\",\"103\"
\"\",\"\",\"approach-retreat\",\"107\",\"868464\",\"0.0-107.0\",\"\",\"\",\"2-1\",\"3899\",\"39\",\"1\",\"Training\",\"Stims/Figures/93-C-30-1.bmp\",\"ta:kata\",\"Right\",\"39\",\"7\",\"8\",\"2\",\"P\",\"J\",\"104\"
\"\",\"\",\"approach-retreat\",\"108\",\"873947\",\"0.0-108.0\",\"\",\"\",\"2-1\",\"3933\",\"40\",\"1\",\"Training\",\"Stims/Figures/144-C-30-3.bmp\",\"ta:kata\",\"Down\",\"40\",\"7\",\"9\",\"2\",\"P\",\"J\",\"105\"
\"\",\"\",\"approach-retreat\",\"109\",\"879645\",\"0.0-109.0\",\"\",\"\",\"2-1\",\"4177\",\"38\",\"1\",\"Training\",\"Stims/Figures/93-J-0-1.bmp\",\"nala:na\",\"Down\",\"38\",\"7\",\"10\",\"2\",\"S\",\"J\",\"106\"
\"\",\"\",\"approach-retreat\",\"110\",\"885279\",\"0.0-110.0\",\"\",\"\",\"2-1\",\"4119\",\"38\",\"1\",\"Training\",\"Stims/Figures/100-J-10-3.bmp\",\"nala:na\",\"Down\",\"38\",\"7\",\"11\",\"2\",\"S\",\"J\",\"107\"
\"\",\"\",\"approach-retreat\",\"111\",\"890696\",\"0.0-111.0\",\"\",\"\",\"2-1\",\"3874\",\"40\",\"1\",\"Training\",\"Stims/Figures/94-J-0-2.bmp\",\"nala:na\",\"Up\",\"40\",\"7\",\"12\",\"2\",\"S\",\"J\",\"108\"
\"\",\"\",\"approach-retreat\",\"112\",\"896281\",\"0.0-112.0\",\"\",\"\",\"2-1\",\"4076\",\"37\",\"1\",\"Training\",\"Stims/Figures/27-J-0-1.bmp\",\"nala:na\",\"Right\",\"37\",\"7\",\"13\",\"2\",\"S\",\"J\",\"109\"
\"\",\"\",\"approach-retreat\",\"113\",\"901814\",\"0.0-113.0\",\"\",\"\",\"2-1\",\"4009\",\"37\",\"1\",\"Training\",\"Stims/Figures/27-C-30-1.bmp\",\"ta:kata\",\"Left\",\"37\",\"7\",\"14\",\"2\",\"P\",\"J\",\"110\"
\"\",\"\",\"approach-retreat\",\"114\",\"907297\",\"0.0-114.0\",\"\",\"\",\"2-1\",\"3964\",\"40\",\"1\",\"Training\",\"Stims/Figures/7-C-20-4.bmp\",\"ta:kata\",\"Down\",\"40\",\"7\",\"15\",\"2\",\"P\",\"J\",\"111\"
\"\",\"\",\"approach-retreat\",\"115\",\"912680\",\"0.0-115.0\",\"\",\"\",\"2-1\",\"3869\",\"39\",\"1\",\"Training\",\"Stims/Figures/102-C-20-4.bmp\",\"ta:kata\",\"Right\",\"39\",\"7\",\"16\",\"2\",\"P\",\"J\",\"112\"
\"\",\"\",\"approach-retreat\",\"116\",\"918211\",\"0.0-116.0\",\"\",\"\",\"2-1\",\"4009\",\"39\",\"1\",\"Training\",\"Stims/Figures/27-J-0-1.bmp\",\"nala:na\",\"Left\",\"39\",\"8\",\"1\",\"2\",\"S\",\"J\",\"113\"
\"\",\"\",\"approach-retreat\",\"117\",\"923743\",\"0.0-117.0\",\"\",\"\",\"2-1\",\"4001\",\"39\",\"1\",\"Training\",\"Stims/Figures/139-J-0-2.bmp\",\"nala:na\",\"Left\",\"39\",\"8\",\"2\",\"2\",\"S\",\"J\",\"114\"
\"\",\"\",\"approach-retreat\",\"118\",\"929179\",\"0.0-118.0\",\"\",\"\",\"2-1\",\"3889\",\"39\",\"1\",\"Training\",\"Stims/Figures/100-C-30-3.bmp\",\"ta:kata\",\"Right\",\"39\",\"8\",\"3\",\"2\",\"P\",\"J\",\"115\"
\"\",\"\",\"approach-retreat\",\"119\",\"934646\",\"0.0-119.0\",\"\",\"\",\"2-1\",\"3957\",\"39\",\"0\",\"Training\",\"Stims/Figures/7-J-10-4.bmp\",\"nala:na\",\"Right\",\"37\",\"8\",\"4\",\"2\",\"S\",\"J\",\"116\"
\"\",\"\",\"approach-retreat\",\"120\",\"940124\",\"0.0-120.0\",\"\",\"\",\"2-1\",\"3965\",\"37\",\"1\",\"Training\",\"Stims/Figures/27-C-30-1.bmp\",\"ta:kata\",\"Left\",\"37\",\"8\",\"5\",\"2\",\"P\",\"J\",\"117\"
\"\",\"\",\"approach-retreat\",\"121\",\"945687\",\"0.0-121.0\",\"\",\"\",\"2-1\",\"4053\",\"40\",\"1\",\"Training\",\"Stims/Figures/144-J-10-3.bmp\",\"nala:na\",\"Up\",\"40\",\"8\",\"6\",\"2\",\"S\",\"J\",\"118\"
\"\",\"\",\"approach-retreat\",\"122\",\"951358\",\"0.0-122.0\",\"\",\"\",\"2-1\",\"4161\",\"37\",\"0\",\"Training\",\"Stims/Figures/7-C-20-4.bmp\",\"ta:kata\",\"Right\",\"39\",\"8\",\"7\",\"2\",\"P\",\"J\",\"119\"
\"\",\"\",\"approach-retreat\",\"123\",\"956885\",\"0.0-123.0\",\"\",\"\",\"2-1\",\"4016\",\"40\",\"1\",\"Training\",\"Stims/Figures/102-C-20-4.bmp\",\"ta:kata\",\"Down\",\"40\",\"8\",\"8\",\"2\",\"P\",\"J\",\"120\"
\"\",\"\",\"approach-retreat\",\"124\",\"962395\",\"0.0-124.0\",\"\",\"\",\"2-1\",\"3990\",\"38\",\"1\",\"Training\",\"Stims/Figures/94-C-20-2.bmp\",\"ta:kata\",\"Up\",\"38\",\"8\",\"9\",\"2\",\"P\",\"J\",\"121\"
\"\",\"\",\"approach-retreat\",\"125\",\"968005\",\"0.0-125.0\",\"\",\"\",\"2-1\",\"4101\",\"40\",\"0\",\"Training\",\"Stims/Figures/94-J-0-2.bmp\",\"nala:na\",\"Down\",\"38\",\"8\",\"10\",\"2\",\"S\",\"J\",\"122\"
\"\",\"\",\"approach-retreat\",\"126\",\"973761\",\"0.0-126.0\",\"\",\"\",\"2-1\",\"4205\",\"38\",\"1\",\"Training\",\"Stims/Figures/102-J-10-4.bmp\",\"nala:na\",\"Down\",\"38\",\"8\",\"11\",\"2\",\"S\",\"J\",\"123\"
\"\",\"\",\"approach-retreat\",\"127\",\"979406\",\"0.0-127.0\",\"\",\"\",\"2-1\",\"4096\",\"38\",\"1\",\"Training\",\"Stims/Figures/93-C-30-1.bmp\",\"ta:kata\",\"Up\",\"38\",\"8\",\"12\",\"2\",\"P\",\"J\",\"124\"
\"\",\"\",\"approach-retreat\",\"128\",\"986757\",\"0.0-128.0\",\"\",\"\",\"2-1\",\"5812\",\"38\",\"1\",\"Training\",\"Stims/Figures/93-J-0-1.bmp\",\"nala:na\",\"Down\",\"38\",\"8\",\"13\",\"2\",\"S\",\"J\",\"125\"
\"\",\"\",\"approach-retreat\",\"129\",\"992514\",\"0.0-129.0\",\"\",\"\",\"2-1\",\"4245\",\"38\",\"1\",\"Training\",\"Stims/Figures/144-C-30-3.bmp\",\"ta:kata\",\"Up\",\"38\",\"8\",\"14\",\"2\",\"P\",\"J\",\"126\"
\"\",\"\",\"approach-retreat\",\"130\",\"998012\",\"0.0-130.0\",\"\",\"\",\"2-1\",\"3986\",\"37\",\"1\",\"Training\",\"Stims/Figures/139-C-20-2.bmp\",\"ta:kata\",\"Left\",\"37\",\"8\",\"15\",\"2\",\"P\",\"J\",\"127\"
\"\",\"\",\"approach-retreat\",\"131\",\"1003745\",\"0.0-131.0\",\"\",\"\",\"2-1\",\"4217\",\"37\",\"1\",\"Training\",\"Stims/Figures/100-J-10-3.bmp\",\"nala:na\",\"Right\",\"37\",\"8\",\"16\",\"2\",\"S\",\"J\",\"128\"
\"\",\"\",\"approach-retreat\",\"132\",\"1009429\",\"0.0-132.0\",\"\",\"\",\"2-1\",\"4165\",\"40\",\"1\",\"Training\",\"Stims/Figures/100-J-10-3.bmp\",\"nala:na\",\"Up\",\"40\",\"9\",\"1\",\"2\",\"S\",\"J\",\"129\"
\"\",\"\",\"approach-retreat\",\"133\",\"1015003\",\"0.0-133.0\",\"\",\"\",\"2-1\",\"4052\",\"40\",\"1\",\"Training\",\"Stims/Figures/144-C-30-3.bmp\",\"ta:kata\",\"Down\",\"40\",\"9\",\"2\",\"2\",\"P\",\"J\",\"130\"
\"\",\"\",\"approach-retreat\",\"134\",\"1020645\",\"0.0-134.0\",\"\",\"\",\"2-1\",\"4107\",\"39\",\"1\",\"Training\",\"Stims/Figures/144-J-10-3.bmp\",\"nala:na\",\"Left\",\"39\",\"9\",\"3\",\"2\",\"S\",\"J\",\"131\"
\"\",\"\",\"approach-retreat\",\"135\",\"1026339\",\"0.0-135.0\",\"\",\"\",\"2-1\",\"4168\",\"38\",\"1\",\"Training\",\"Stims/Figures/139-C-20-2.bmp\",\"ta:kata\",\"Up\",\"38\",\"9\",\"4\",\"2\",\"P\",\"J\",\"132\"
\"\",\"\",\"approach-retreat\",\"136\",\"1031747\",\"0.0-136.0\",\"\",\"\",\"2-1\",\"3893\",\"40\",\"1\",\"Training\",\"Stims/Figures/94-C-20-2.bmp\",\"ta:kata\",\"Down\",\"40\",\"9\",\"5\",\"2\",\"P\",\"J\",\"133\"
\"\",\"\",\"approach-retreat\",\"137\",\"1037178\",\"0.0-137.0\",\"\",\"\",\"2-1\",\"3877\",\"39\",\"1\",\"Training\",\"Stims/Figures/7-J-10-4.bmp\",\"nala:na\",\"Left\",\"39\",\"9\",\"6\",\"2\",\"S\",\"J\",\"134\"
\"\",\"\",\"approach-retreat\",\"138\",\"1042616\",\"0.0-138.0\",\"\",\"\",\"2-1\",\"3899\",\"39\",\"1\",\"Training\",\"Stims/Figures/94-J-0-2.bmp\",\"nala:na\",\"Left\",\"39\",\"9\",\"7\",\"2\",\"S\",\"J\",\"135\"
\"\",\"\",\"approach-retreat\",\"139\",\"1048106\",\"0.0-139.0\",\"\",\"\",\"2-1\",\"3978\",\"39\",\"1\",\"Training\",\"Stims/Figures/27-C-30-1.bmp\",\"ta:kata\",\"Right\",\"39\",\"9\",\"8\",\"2\",\"P\",\"J\",\"136\"
\"\",\"\",\"approach-retreat\",\"140\",\"1053428\",\"0.0-140.0\",\"\",\"\",\"2-1\",\"3780\",\"39\",\"1\",\"Training\",\"Stims/Figures/102-C-20-4.bmp\",\"ta:kata\",\"Right\",\"39\",\"9\",\"9\",\"2\",\"P\",\"J\",\"137\"
\"\",\"\",\"approach-retreat\",\"141\",\"1058862\",\"0.0-141.0\",\"\",\"\",\"2-1\",\"3912\",\"39\",\"1\",\"Training\",\"Stims/Figures/139-J-0-2.bmp\",\"nala:na\",\"Left\",\"39\",\"9\",\"10\",\"2\",\"S\",\"J\",\"138\"
\"\",\"\",\"approach-retreat\",\"142\",\"1064596\",\"0.0-142.0\",\"\",\"\",\"2-1\",\"4192\",\"38\",\"1\",\"Training\",\"Stims/Figures/93-J-0-1.bmp\",\"nala:na\",\"Down\",\"38\",\"9\",\"11\",\"2\",\"S\",\"J\",\"139\"
\"\",\"\",\"approach-retreat\",\"143\",\"1070275\",\"0.0-143.0\",\"\",\"\",\"2-1\",\"4137\",\"40\",\"0\",\"Training\",\"Stims/Figures/7-C-20-4.bmp\",\"ta:kata\",\"Up\",\"38\",\"9\",\"12\",\"2\",\"P\",\"J\",\"140\"
\"\",\"\",\"approach-retreat\",\"144\",\"1075831\",\"0.0-144.0\",\"\",\"\",\"2-1\",\"4039\",\"40\",\"1\",\"Training\",\"Stims/Figures/93-C-30-1.bmp\",\"ta:kata\",\"Down\",\"40\",\"9\",\"13\",\"2\",\"P\",\"J\",\"141\"
\"\",\"\",\"approach-retreat\",\"145\",\"1082410\",\"0.0-145.0\",\"\",\"\",\"2-1\",\"5040\",\"37\",\"1\",\"Training\",\"Stims/Figures/102-J-10-4.bmp\",\"nala:na\",\"Right\",\"37\",\"9\",\"14\",\"2\",\"S\",\"J\",\"142\"
\"\",\"\",\"approach-retreat\",\"146\",\"1087997\",\"0.0-146.0\",\"\",\"\",\"2-1\",\"4045\",\"40\",\"1\",\"Training\",\"Stims/Figures/27-J-0-1.bmp\",\"nala:na\",\"Up\",\"40\",\"9\",\"15\",\"2\",\"S\",\"J\",\"143\"
\"\",\"\",\"approach-retreat\",\"147\",\"1093771\",\"0.0-147.0\",\"\",\"\",\"2-1\",\"4235\",\"39\",\"1\",\"Training\",\"Stims/Figures/100-C-30-3.bmp\",\"ta:kata\",\"Right\",\"39\",\"9\",\"16\",\"2\",\"P\",\"J\",\"144\"
\"43269\",\"\",\"instructions\",\"148\",\"1137041\",\"0.0-148.0\",\"[{\"\"page_index\"\":0,\"\"viewing_time\"\":43268}]\",\"\",\"\",\"\",\"\",\"\",\"\",\"\",\"\",\"\",\"\",\"\",\"\",\"\",\"\",\"\",\"\"
\"\",\"\",\"approach-retreat\",\"149\",\"1142872\",\"0.0-149.0\",\"\",\"\",\"2-1\",\"4319\",\"39\",\"1\",\"Testing\",\"Stims/Figures/7-J-10-4.bmp\",\"nala:na\",\"Left\",\"39\",\"1\",\"1\",\"2\",\"S\",\"J\",\"1\"
\"\",\"\",\"approach-retreat\",\"150\",\"1148875\",\"0.0-150.0\",\"\",\"\",\"2-1\",\"4484\",\"37\",\"1\",\"Testing\",\"Stims/Figures/144-J-10-3.bmp\",\"nala:na\",\"Right\",\"37\",\"1\",\"2\",\"2\",\"S\",\"J\",\"2\"
\"\",\"\",\"approach-retreat\",\"151\",\"1154739\",\"0.0-151.0\",\"\",\"\",\"2-1\",\"4341\",\"40\",\"0\",\"Testing\",\"Stims/Figures/139-J-0-2.bmp\",\"nala:na\",\"Down\",\"38\",\"1\",\"3\",\"2\",\"S\",\"J\",\"3\"
\"\",\"\",\"approach-retreat\",\"152\",\"1160337\",\"0.0-152.0\",\"\",\"\",\"2-1\",\"4080\",\"40\",\"0\",\"Testing\",\"Stims/Figures/93-C-30-1.bmp\",\"ta:kata\",\"Up\",\"38\",\"1\",\"4\",\"2\",\"P\",\"J\",\"4\"
\"\",\"\",\"approach-retreat\",\"153\",\"1166560\",\"0.0-153.0\",\"\",\"\",\"2-1\",\"4707\",\"39\",\"0\",\"Testing\",\"Stims/Figures/111-J-10-3.bmp\",\"nala:na\",\"Right\",\"37\",\"1\",\"5\",\"2\",\"S\",\"J\",\"5\"
\"\",\"\",\"approach-retreat\",\"154\",\"1172243\",\"0.0-154.0\",\"\",\"\",\"2-1\",\"4163\",\"38\",\"0\",\"Testing\",\"Stims/Figures/100-C-30-3.bmp\",\"ta:kata\",\"Down\",\"40\",\"1\",\"6\",\"2\",\"P\",\"J\",\"6\"
\"\",\"\",\"approach-retreat\",\"155\",\"1178412\",\"0.0-155.0\",\"\",\"\",\"2-1\",\"4659\",\"37\",\"0\",\"Testing\",\"Stims/Figures/94-J-0-2.bmp\",\"nala:na\",\"Left\",\"39\",\"1\",\"7\",\"2\",\"S\",\"J\",\"7\"
\"\",\"\",\"approach-retreat\",\"156\",\"1184420\",\"0.0-156.0\",\"\",\"\",\"2-1\",\"4487\",\"39\",\"0\",\"Testing\",\"Stims/Figures/93-J-0-1.bmp\",\"nala:na\",\"Right\",\"37\",\"1\",\"8\",\"2\",\"S\",\"J\",\"8\"
\"\",\"\",\"approach-retreat\",\"157\",\"1190348\",\"0.0-157.0\",\"\",\"\",\"2-1\",\"4399\",\"37\",\"0\",\"Testing\",\"Stims/Figures/7-C-20-4.bmp\",\"ta:kata\",\"Right\",\"39\",\"1\",\"9\",\"2\",\"P\",\"J\",\"9\"
\"\",\"\",\"approach-retreat\",\"158\",\"1196305\",\"0.0-158.0\",\"\",\"\",\"2-1\",\"4446\",\"37\",\"1\",\"Testing\",\"Stims/Figures/118-C-20-2.bmp\",\"ta:kata\",\"Left\",\"37\",\"1\",\"10\",\"2\",\"P\",\"J\",\"10\"
\"\",\"\",\"approach-retreat\",\"159\",\"1201933\",\"0.0-159.0\",\"\",\"\",\"2-1\",\"4106\",\"38\",\"1\",\"Testing\",\"Stims/Figures/94-C-20-2.bmp\",\"ta:kata\",\"Up\",\"38\",\"1\",\"11\",\"2\",\"P\",\"J\",\"11\"
\"\",\"\",\"approach-retreat\",\"160\",\"1207728\",\"0.0-160.0\",\"\",\"\",\"2-1\",\"4253\",\"38\",\"1\",\"Testing\",\"Stims/Figures/27-J-0-1.bmp\",\"nala:na\",\"Down\",\"38\",\"1\",\"12\",\"2\",\"S\",\"J\",\"12\"
\"\",\"\",\"approach-retreat\",\"161\",\"1213627\",\"0.0-161.0\",\"\",\"\",\"2-1\",\"4357\",\"37\",\"0\",\"Testing\",\"Stims/Figures/57-J-0-1.bmp\",\"nala:na\",\"Left\",\"39\",\"1\",\"13\",\"2\",\"S\",\"J\",\"13\"
\"\",\"\",\"approach-retreat\",\"162\",\"1219509\",\"0.0-162.0\",\"\",\"\",\"2-1\",\"4351\",\"38\",\"1\",\"Testing\",\"Stims/Figures/144-C-30-3.bmp\",\"ta:kata\",\"Up\",\"38\",\"1\",\"14\",\"2\",\"P\",\"J\",\"14\"
\"\",\"\",\"approach-retreat\",\"163\",\"1225352\",\"0.0-163.0\",\"\",\"\",\"2-1\",\"4300\",\"37\",\"0\",\"Testing\",\"Stims/Figures/111-C-30-3.bmp\",\"ta:kata\",\"Right\",\"39\",\"1\",\"15\",\"2\",\"P\",\"J\",\"15\"
\"\",\"\",\"approach-retreat\",\"164\",\"1231364\",\"0.0-164.0\",\"\",\"\",\"2-1\",\"4479\",\"40\",\"0\",\"Testing\",\"Stims/Figures/102-C-20-4.bmp\",\"ta:kata\",\"Up\",\"38\",\"1\",\"16\",\"2\",\"P\",\"J\",\"16\"
\"\",\"\",\"approach-retreat\",\"165\",\"1237278\",\"0.0-165.0\",\"\",\"\",\"2-1\",\"4376\",\"39\",\"0\",\"Testing\",\"Stims/Figures/118-J-0-2.bmp\",\"nala:na\",\"Right\",\"37\",\"1\",\"17\",\"2\",\"S\",\"J\",\"17\"
\"\",\"\",\"approach-retreat\",\"166\",\"1243039\",\"0.0-166.0\",\"\",\"\",\"2-1\",\"4226\",\"40\",\"0\",\"Testing\",\"Stims/Figures/102-J-10-4.bmp\",\"nala:na\",\"Down\",\"38\",\"1\",\"18\",\"2\",\"S\",\"J\",\"18\"
\"\",\"\",\"approach-retreat\",\"167\",\"1249479\",\"0.0-167.0\",\"\",\"\",\"2-1\",\"4888\",\"40\",\"0\",\"Testing\",\"Stims/Figures/27-C-30-1.bmp\",\"ta:kata\",\"Up\",\"38\",\"1\",\"19\",\"2\",\"P\",\"J\",\"19\"
\"\",\"\",\"approach-retreat\",\"168\",\"1255557\",\"0.0-168.0\",\"\",\"\",\"2-1\",\"4570\",\"37\",\"1\",\"Testing\",\"Stims/Figures/139-C-20-2.bmp\",\"ta:kata\",\"Left\",\"37\",\"1\",\"20\",\"2\",\"P\",\"J\",\"20\"
\"\",\"\",\"approach-retreat\",\"169\",\"1261420\",\"0.0-169.0\",\"\",\"\",\"2-1\",\"4334\",\"40\",\"0\",\"Testing\",\"Stims/Figures/87-J-10-4.bmp\",\"nala:na\",\"Down\",\"38\",\"1\",\"21\",\"2\",\"S\",\"J\",\"21\"
\"\",\"\",\"approach-retreat\",\"170\",\"1267381\",\"0.0-170.0\",\"\",\"\",\"2-1\",\"4418\",\"38\",\"1\",\"Testing\",\"Stims/Figures/87-C-20-4.bmp\",\"ta:kata\",\"Up\",\"38\",\"1\",\"22\",\"2\",\"P\",\"J\",\"22\"
\"\",\"\",\"approach-retreat\",\"171\",\"1272960\",\"0.0-171.0\",\"\",\"\",\"2-1\",\"4049\",\"38\",\"0\",\"Testing\",\"Stims/Figures/57-C-30-1.bmp\",\"ta:kata\",\"Down\",\"40\",\"1\",\"23\",\"2\",\"P\",\"J\",\"23\"
\"\",\"\",\"approach-retreat\",\"172\",\"1278645\",\"0.0-172.0\",\"\",\"\",\"2-1\",\"4151\",\"37\",\"0\",\"Testing\",\"Stims/Figures/100-J-10-3.bmp\",\"nala:na\",\"Left\",\"39\",\"1\",\"24\",\"2\",\"S\",\"J\",\"24\"
\"\",\"\",\"approach-retreat\",\"173\",\"1284824\",\"0.0-173.0\",\"\",\"\",\"2-1\",\"4661\",\"40\",\"1\",\"Testing\",\"Stims/Figures/111-C-30-3.bmp\",\"ta:kata\",\"Down\",\"40\",\"2\",\"1\",\"2\",\"P\",\"J\",\"25\"
\"\",\"\",\"approach-retreat\",\"174\",\"1290539\",\"0.0-174.0\",\"\",\"\",\"2-1\",\"4173\",\"38\",\"1\",\"Testing\",\"Stims/Figures/87-J-10-4.bmp\",\"nala:na\",\"Down\",\"38\",\"2\",\"2\",\"2\",\"S\",\"J\",\"26\"
\"\",\"\",\"approach-retreat\",\"175\",\"1296089\",\"0.0-175.0\",\"\",\"\",\"2-1\",\"4010\",\"40\",\"1\",\"Testing\",\"Stims/Figures/102-J-10-4.bmp\",\"nala:na\",\"Up\",\"40\",\"2\",\"3\",\"2\",\"S\",\"J\",\"27\"
\"\",\"\",\"approach-retreat\",\"176\",\"1301913\",\"0.0-176.0\",\"\",\"\",\"2-1\",\"4291\",\"39\",\"0\",\"Testing\",\"Stims/Figures/102-C-20-4.bmp\",\"ta:kata\",\"Left\",\"37\",\"2\",\"4\",\"2\",\"P\",\"J\",\"28\"
\"\",\"\",\"approach-retreat\",\"177\",\"1307877\",\"0.0-177.0\",\"\",\"\",\"2-1\",\"4431\",\"39\",\"0\",\"Testing\",\"Stims/Figures/93-J-0-1.bmp\",\"nala:na\",\"Right\",\"37\",\"2\",\"5\",\"2\",\"S\",\"J\",\"29\"
\"\",\"\",\"approach-retreat\",\"178\",\"1313673\",\"0.0-178.0\",\"\",\"\",\"2-1\",\"4254\",\"40\",\"1\",\"Testing\",\"Stims/Figures/94-J-0-2.bmp\",\"nala:na\",\"Up\",\"40\",\"2\",\"6\",\"2\",\"S\",\"J\",\"30\"
\"\",\"\",\"approach-retreat\",\"179\",\"1319576\",\"0.0-179.0\",\"\",\"\",\"2-1\",\"4363\",\"37\",\"1\",\"Testing\",\"Stims/Figures/87-C-20-4.bmp\",\"ta:kata\",\"Left\",\"37\",\"2\",\"7\",\"2\",\"P\",\"J\",\"31\"
\"\",\"\",\"approach-retreat\",\"180\",\"1325337\",\"0.0-180.0\",\"\",\"\",\"2-1\",\"4225\",\"39\",\"1\",\"Testing\",\"Stims/Figures/27-J-0-1.bmp\",\"nala:na\",\"Left\",\"39\",\"2\",\"8\",\"2\",\"S\",\"J\",\"32\"
\"\",\"\",\"approach-retreat\",\"181\",\"1331476\",\"0.0-181.0\",\"\",\"\",\"2-1\",\"4626\",\"37\",\"0\",\"Testing\",\"Stims/Figures/27-C-30-1.bmp\",\"ta:kata\",\"Right\",\"39\",\"2\",\"9\",\"2\",\"P\",\"J\",\"33\"
\"\",\"\",\"approach-retreat\",\"182\",\"1337176\",\"0.0-182.0\",\"\",\"\",\"2-1\",\"4191\",\"38\",\"1\",\"Testing\",\"Stims/Figures/57-C-30-1.bmp\",\"ta:kata\",\"Up\",\"38\",\"2\",\"10\",\"2\",\"P\",\"J\",\"34\"
\"\",\"\",\"approach-retreat\",\"183\",\"1343020\",\"0.0-183.0\",\"\",\"\",\"2-1\",\"4316\",\"38\",\"1\",\"Testing\",\"Stims/Figures/100-C-30-3.bmp\",\"ta:kata\",\"Up\",\"38\",\"2\",\"11\",\"2\",\"P\",\"J\",\"35\"
\"\",\"\",\"approach-retreat\",\"184\",\"1349115\",\"0.0-184.0\",\"\",\"\",\"2-1\",\"4559\",\"40\",\"0\",\"Testing\",\"Stims/Figures/139-C-20-2.bmp\",\"ta:kata\",\"Up\",\"38\",\"2\",\"12\",\"2\",\"P\",\"J\",\"36\"
\"\",\"\",\"approach-retreat\",\"185\",\"1355176\",\"0.0-185.0\",\"\",\"\",\"2-1\",\"4540\",\"37\",\"1\",\"Testing\",\"Stims/Figures/7-C-20-4.bmp\",\"ta:kata\",\"Left\",\"37\",\"2\",\"13\",\"2\",\"P\",\"J\",\"37\"
\"\",\"\",\"approach-retreat\",\"186\",\"1361358\",\"0.0-186.0\",\"\",\"\",\"2-1\",\"4660\",\"37\",\"0\",\"Testing\",\"Stims/Figures/93-C-30-1.bmp\",\"ta:kata\",\"Right\",\"39\",\"2\",\"14\",\"2\",\"P\",\"J\",\"38\"
\"\",\"\",\"approach-retreat\",\"187\",\"1367064\",\"0.0-187.0\",\"\",\"\",\"2-1\",\"4189\",\"40\",\"0\",\"Testing\",\"Stims/Figures/118-J-0-2.bmp\",\"nala:na\",\"Down\",\"38\",\"2\",\"15\",\"2\",\"S\",\"J\",\"39\"
\"\",\"\",\"approach-retreat\",\"188\",\"1372973\",\"0.0-188.0\",\"\",\"\",\"2-1\",\"4396\",\"37\",\"0\",\"Testing\",\"Stims/Figures/100-J-10-3.bmp\",\"nala:na\",\"Left\",\"39\",\"2\",\"16\",\"2\",\"S\",\"J\",\"40\"
\"\",\"\",\"approach-retreat\",\"189\",\"1378474\",\"0.0-189.0\",\"\",\"\",\"2-1\",\"3992\",\"39\",\"1\",\"Testing\",\"Stims/Figures/118-C-20-2.bmp\",\"ta:kata\",\"Right\",\"39\",\"2\",\"17\",\"2\",\"P\",\"J\",\"41\"
\"\",\"\",\"approach-retreat\",\"190\",\"1384282\",\"0.0-190.0\",\"\",\"\",\"2-1\",\"4291\",\"38\",\"0\",\"Testing\",\"Stims/Figures/144-J-10-3.bmp\",\"nala:na\",\"Up\",\"40\",\"2\",\"18\",\"2\",\"S\",\"J\",\"42\"
\"\",\"\",\"approach-retreat\",\"191\",\"1389938\",\"0.0-191.0\",\"\",\"\",\"2-1\",\"4140\",\"39\",\"0\",\"Testing\",\"Stims/Figures/57-J-0-1.bmp\",\"nala:na\",\"Right\",\"37\",\"2\",\"19\",\"2\",\"S\",\"J\",\"43\"
\"\",\"\",\"approach-retreat\",\"192\",\"1395957\",\"0.0-192.0\",\"\",\"\",\"2-1\",\"4486\",\"38\",\"0\",\"Testing\",\"Stims/Figures/144-C-30-3.bmp\",\"ta:kata\",\"Down\",\"40\",\"2\",\"20\",\"2\",\"P\",\"J\",\"44\"
\"\",\"\",\"approach-retreat\",\"193\",\"1401548\",\"0.0-193.0\",\"\",\"\",\"2-1\",\"4078\",\"39\",\"0\",\"Testing\",\"Stims/Figures/139-J-0-2.bmp\",\"nala:na\",\"Right\",\"37\",\"2\",\"21\",\"2\",\"S\",\"J\",\"45\"
\"\",\"\",\"approach-retreat\",\"194\",\"1407566\",\"0.0-194.0\",\"\",\"\",\"2-1\",\"4501\",\"40\",\"0\",\"Testing\",\"Stims/Figures/7-J-10-4.bmp\",\"nala:na\",\"Down\",\"38\",\"2\",\"22\",\"2\",\"S\",\"J\",\"46\"
\"\",\"\",\"approach-retreat\",\"195\",\"1413650\",\"0.0-195.0\",\"\",\"\",\"2-1\",\"4562\",\"40\",\"1\",\"Testing\",\"Stims/Figures/94-C-20-2.bmp\",\"ta:kata\",\"Down\",\"40\",\"2\",\"23\",\"2\",\"P\",\"J\",\"47\"
\"\",\"\",\"approach-retreat\",\"196\",\"1419603\",\"0.0-196.0\",\"\",\"\",\"2-1\",\"4409\",\"37\",\"0\",\"Testing\",\"Stims/Figures/111-J-10-3.bmp\",\"nala:na\",\"Left\",\"39\",\"2\",\"24\",\"2\",\"S\",\"J\",\"48\"
\"\",\"\",\"approach-retreat\",\"197\",\"1425607\",\"0.0-197.0\",\"\",\"\",\"2-1\",\"4464\",\"37\",\"1\",\"Testing\",\"Stims/Figures/93-J-0-1.bmp\",\"nala:na\",\"Right\",\"37\",\"3\",\"1\",\"2\",\"S\",\"J\",\"49\"
\"\",\"\",\"approach-retreat\",\"198\",\"1431430\",\"0.0-198.0\",\"\",\"\",\"2-1\",\"4298\",\"40\",\"0\",\"Testing\",\"Stims/Figures/118-J-0-2.bmp\",\"nala:na\",\"Down\",\"38\",\"3\",\"2\",\"2\",\"S\",\"J\",\"50\"
\"\",\"\",\"approach-retreat\",\"199\",\"1437024\",\"0.0-199.0\",\"\",\"\",\"2-1\",\"4066\",\"38\",\"0\",\"Testing\",\"Stims/Figures/102-C-20-4.bmp\",\"ta:kata\",\"Down\",\"40\",\"3\",\"3\",\"2\",\"P\",\"J\",\"51\"
\"\",\"\",\"approach-retreat\",\"200\",\"1443051\",\"0.0-200.0\",\"\",\"\",\"2-1\",\"4501\",\"39\",\"0\",\"Testing\",\"Stims/Figures/100-C-30-3.bmp\",\"ta:kata\",\"Left\",\"37\",\"3\",\"4\",\"2\",\"P\",\"J\",\"52\"
\"\",\"\",\"approach-retreat\",\"201\",\"1448970\",\"0.0-201.0\",\"\",\"\",\"2-1\",\"4386\",\"39\",\"1\",\"Testing\",\"Stims/Figures/102-J-10-4.bmp\",\"nala:na\",\"Left\",\"39\",\"3\",\"5\",\"2\",\"S\",\"J\",\"53\"
\"\",\"\",\"approach-retreat\",\"202\",\"1454726\",\"0.0-202.0\",\"\",\"\",\"2-1\",\"4210\",\"39\",\"0\",\"Testing\",\"Stims/Figures/7-J-10-4.bmp\",\"nala:na\",\"Right\",\"37\",\"3\",\"6\",\"2\",\"S\",\"J\",\"54\"
\"\",\"\",\"approach-retreat\",\"203\",\"1460771\",\"0.0-203.0\",\"\",\"\",\"2-1\",\"4531\",\"40\",\"1\",\"Testing\",\"Stims/Figures/57-C-30-1.bmp\",\"ta:kata\",\"Down\",\"40\",\"3\",\"7\",\"2\",\"P\",\"J\",\"55\"
\"\",\"\",\"approach-retreat\",\"204\",\"1466329\",\"0.0-204.0\",\"\",\"\",\"2-1\",\"4049\",\"37\",\"0\",\"Testing\",\"Stims/Figures/87-J-10-4.bmp\",\"nala:na\",\"Left\",\"39\",\"3\",\"8\",\"2\",\"S\",\"J\",\"56\"
\"\",\"\",\"approach-retreat\",\"205\",\"1472737\",\"0.0-205.0\",\"\",\"\",\"2-1\",\"4886\",\"38\",\"0\",\"Testing\",\"Stims/Figures/57-J-0-1.bmp\",\"nala:na\",\"Up\",\"40\",\"3\",\"9\",\"2\",\"S\",\"J\",\"57\"
\"\",\"\",\"approach-retreat\",\"206\",\"1478577\",\"0.0-206.0\",\"\",\"\",\"2-1\",\"4323\",\"39\",\"1\",\"Testing\",\"Stims/Figures/93-C-30-1.bmp\",\"ta:kata\",\"Right\",\"39\",\"3\",\"10\",\"2\",\"P\",\"J\",\"58\"
\"\",\"\",\"approach-retreat\",\"207\",\"1484258\",\"0.0-207.0\",\"\",\"\",\"2-1\",\"4162\",\"40\",\"1\",\"Testing\",\"Stims/Figures/118-C-20-2.bmp\",\"ta:kata\",\"Down\",\"40\",\"3\",\"11\",\"2\",\"P\",\"J\",\"59\"
\"\",\"\",\"approach-retreat\",\"208\",\"1489897\",\"0.0-208.0\",\"\",\"\",\"2-1\",\"4120\",\"40\",\"0\",\"Testing\",\"Stims/Figures/139-J-0-2.bmp\",\"nala:na\",\"Down\",\"38\",\"3\",\"12\",\"2\",\"S\",\"J\",\"60\"
\"\",\"\",\"approach-retreat\",\"209\",\"1495426\",\"0.0-209.0\",\"\",\"\",\"2-1\",\"4013\",\"38\",\"1\",\"Testing\",\"Stims/Figures/94-C-20-2.bmp\",\"ta:kata\",\"Up\",\"38\",\"3\",\"13\",\"2\",\"P\",\"J\",\"61\"
\"\",\"\",\"approach-retreat\",\"210\",\"1501456\",\"0.0-210.0\",\"\",\"\",\"2-1\",\"4515\",\"39\",\"0\",\"Testing\",\"Stims/Figures/111-J-10-3.bmp\",\"nala:na\",\"Right\",\"37\",\"3\",\"14\",\"2\",\"S\",\"J\",\"62\"
\"\",\"\",\"approach-retreat\",\"211\",\"1507109\",\"0.0-211.0\",\"\",\"\",\"2-1\",\"4129\",\"39\",\"0\",\"Testing\",\"Stims/Figures/87-C-20-4.bmp\",\"ta:kata\",\"Left\",\"37\",\"3\",\"15\",\"2\",\"P\",\"J\",\"63\"
\"\",\"\",\"approach-retreat\",\"212\",\"1513621\",\"0.0-212.0\",\"\",\"\",\"2-1\",\"4993\",\"40\",\"1\",\"Testing\",\"Stims/Figures/100-J-10-3.bmp\",\"nala:na\",\"Up\",\"40\",\"3\",\"16\",\"2\",\"S\",\"J\",\"64\"
\"\",\"\",\"approach-retreat\",\"213\",\"1520219\",\"0.0-213.0\",\"\",\"\",\"2-1\",\"5076\",\"39\",\"0\",\"Testing\",\"Stims/Figures/7-C-20-4.bmp\",\"ta:kata\",\"Left\",\"37\",\"3\",\"17\",\"2\",\"P\",\"J\",\"65\"
\"\",\"\",\"approach-retreat\",\"214\",\"1526021\",\"0.0-214.0\",\"\",\"\",\"2-1\",\"4264\",\"39\",\"1\",\"Testing\",\"Stims/Figures/144-J-10-3.bmp\",\"nala:na\",\"Left\",\"39\",\"3\",\"18\",\"2\",\"S\",\"J\",\"66\"
\"\",\"\",\"approach-retreat\",\"215\",\"1531815\",\"0.0-215.0\",\"\",\"\",\"2-1\",\"4277\",\"38\",\"0\",\"Testing\",\"Stims/Figures/94-J-0-2.bmp\",\"nala:na\",\"Up\",\"40\",\"3\",\"19\",\"2\",\"S\",\"J\",\"67\"
\"\",\"\",\"approach-retreat\",\"216\",\"1537634\",\"0.0-216.0\",\"\",\"\",\"2-1\",\"4299\",\"39\",\"1\",\"Testing\",\"Stims/Figures/144-C-30-3.bmp\",\"ta:kata\",\"Right\",\"39\",\"3\",\"20\",\"2\",\"P\",\"J\",\"68\"
\"\",\"\",\"approach-retreat\",\"217\",\"1543819\",\"0.0-217.0\",\"\",\"\",\"2-1\",\"4658\",\"40\",\"0\",\"Testing\",\"Stims/Figures/111-C-30-3.bmp\",\"ta:kata\",\"Up\",\"38\",\"3\",\"21\",\"2\",\"P\",\"J\",\"69\"
\"\",\"\",\"approach-retreat\",\"218\",\"1549491\",\"0.0-218.0\",\"\",\"\",\"2-1\",\"4155\",\"40\",\"0\",\"Testing\",\"Stims/Figures/27-C-30-1.bmp\",\"ta:kata\",\"Up\",\"38\",\"3\",\"22\",\"2\",\"P\",\"J\",\"70\"
\"\",\"\",\"approach-retreat\",\"219\",\"1555171\",\"0.0-219.0\",\"\",\"\",\"2-1\",\"4158\",\"38\",\"0\",\"Testing\",\"Stims/Figures/139-C-20-2.bmp\",\"ta:kata\",\"Down\",\"40\",\"3\",\"23\",\"2\",\"P\",\"J\",\"71\"
\"\",\"\",\"approach-retreat\",\"220\",\"1561084\",\"0.0-220.0\",\"\",\"\",\"2-1\",\"4397\",\"37\",\"1\",\"Testing\",\"Stims/Figures/27-J-0-1.bmp\",\"nala:na\",\"Right\",\"37\",\"3\",\"24\",\"2\",\"S\",\"J\",\"72\"
\"\",\"\",\"approach-retreat\",\"221\",\"1566710\",\"0.0-221.0\",\"\",\"\",\"2-1\",\"4094\",\"39\",\"0\",\"Testing\",\"Stims/Figures/139-J-0-2.bmp\",\"nala:na\",\"Right\",\"37\",\"4\",\"1\",\"2\",\"S\",\"J\",\"73\"
\"\",\"\",\"approach-retreat\",\"222\",\"1572421\",\"0.0-222.0\",\"\",\"\",\"2-1\",\"4164\",\"40\",\"1\",\"Testing\",\"Stims/Figures/27-J-0-1.bmp\",\"nala:na\",\"Up\",\"40\",\"4\",\"2\",\"2\",\"S\",\"J\",\"74\"
\"\",\"\",\"approach-retreat\",\"223\",\"1578107\",\"0.0-223.0\",\"\",\"\",\"2-1\",\"4154\",\"40\",\"1\",\"Testing\",\"Stims/Figures/27-C-30-1.bmp\",\"ta:kata\",\"Down\",\"40\",\"4\",\"3\",\"2\",\"P\",\"J\",\"75\"
\"\",\"\",\"approach-retreat\",\"224\",\"1583970\",\"0.0-224.0\",\"\",\"\",\"2-1\",\"4337\",\"38\",\"0\",\"Testing\",\"Stims/Figures/111-J-10-3.bmp\",\"nala:na\",\"Up\",\"40\",\"4\",\"4\",\"2\",\"S\",\"J\",\"76\"
\"\",\"\",\"approach-retreat\",\"225\",\"1589771\",\"0.0-225.0\",\"\",\"\",\"2-1\",\"4279\",\"37\",\"1\",\"Testing\",\"Stims/Figures/94-C-20-2.bmp\",\"ta:kata\",\"Left\",\"37\",\"4\",\"5\",\"2\",\"P\",\"J\",\"77\"
\"\",\"\",\"approach-retreat\",\"226\",\"1595775\",\"0.0-226.0\",\"\",\"\",\"2-1\",\"4495\",\"38\",\"0\",\"Testing\",\"Stims/Figures/139-C-20-2.bmp\",\"ta:kata\",\"Down\",\"40\",\"4\",\"6\",\"2\",\"P\",\"J\",\"78\"
\"\",\"\",\"approach-retreat\",\"227\",\"1601303\",\"0.0-227.0\",\"\",\"\",\"2-1\",\"4015\",\"39\",\"0\",\"Testing\",\"Stims/Figures/100-C-30-3.bmp\",\"ta:kata\",\"Left\",\"37\",\"4\",\"7\",\"2\",\"P\",\"J\",\"79\"
\"\",\"\",\"approach-retreat\",\"228\",\"1607353\",\"0.0-228.0\",\"\",\"\",\"2-1\",\"4532\",\"37\",\"0\",\"Testing\",\"Stims/Figures/144-J-10-3.bmp\",\"nala:na\",\"Left\",\"39\",\"4\",\"8\",\"2\",\"S\",\"J\",\"80\"
\"\",\"\",\"approach-retreat\",\"229\",\"1612913\",\"0.0-229.0\",\"\",\"\",\"2-1\",\"4047\",\"39\",\"0\",\"Testing\",\"Stims/Figures/144-C-30-3.bmp\",\"ta:kata\",\"Left\",\"37\",\"4\",\"9\",\"2\",\"P\",\"J\",\"81\"
\"\",\"\",\"approach-retreat\",\"230\",\"1618465\",\"0.0-230.0\",\"\",\"\",\"2-1\",\"4044\",\"40\",\"0\",\"Testing\",\"Stims/Figures/93-C-30-1.bmp\",\"ta:kata\",\"Up\",\"38\",\"4\",\"10\",\"2\",\"P\",\"J\",\"82\"
\"\",\"\",\"approach-retreat\",\"231\",\"1623978\",\"0.0-231.0\",\"\",\"\",\"2-1\",\"3989\",\"39\",\"0\",\"Testing\",\"Stims/Figures/57-J-0-1.bmp\",\"nala:na\",\"Right\",\"37\",\"4\",\"11\",\"2\",\"S\",\"J\",\"83\"
\"\",\"\",\"approach-retreat\",\"232\",\"1629662\",\"0.0-232.0\",\"\",\"\",\"2-1\",\"4175\",\"37\",\"0\",\"Testing\",\"Stims/Figures/7-C-20-4.bmp\",\"ta:kata\",\"Right\",\"39\",\"4\",\"12\",\"2\",\"P\",\"J\",\"84\"
\"\",\"\",\"approach-retreat\",\"233\",\"1635424\",\"0.0-233.0\",\"\",\"\",\"2-1\",\"4238\",\"37\",\"1\",\"Testing\",\"Stims/Figures/102-J-10-4.bmp\",\"nala:na\",\"Right\",\"37\",\"4\",\"13\",\"2\",\"S\",\"J\",\"85\"
\"\",\"\",\"approach-retreat\",\"234\",\"1640890\",\"0.0-234.0\",\"\",\"\",\"2-1\",\"3947\",\"39\",\"0\",\"Testing\",\"Stims/Figures/118-J-0-2.bmp\",\"nala:na\",\"Right\",\"37\",\"4\",\"14\",\"2\",\"S\",\"J\",\"86\"
\"\",\"\",\"approach-retreat\",\"235\",\"1647391\",\"0.0-235.0\",\"\",\"\",\"2-1\",\"4984\",\"39\",\"0\",\"Testing\",\"Stims/Figures/102-C-20-4.bmp\",\"ta:kata\",\"Left\",\"37\",\"4\",\"15\",\"2\",\"P\",\"J\",\"87\"
\"\",\"\",\"approach-retreat\",\"236\",\"1653134\",\"0.0-236.0\",\"\",\"\",\"2-1\",\"4223\",\"39\",\"0\",\"Testing\",\"Stims/Figures/100-J-10-3.bmp\",\"nala:na\",\"Right\",\"37\",\"4\",\"16\",\"2\",\"S\",\"J\",\"88\"
\"\",\"\",\"approach-retreat\",\"237\",\"1658698\",\"0.0-237.0\",\"\",\"\",\"2-1\",\"4056\",\"37\",\"1\",\"Testing\",\"Stims/Figures/118-C-20-2.bmp\",\"ta:kata\",\"Left\",\"37\",\"4\",\"17\",\"2\",\"P\",\"J\",\"89\"
\"\",\"\",\"approach-retreat\",\"238\",\"1664731\",\"0.0-238.0\",\"\",\"\",\"2-1\",\"4520\",\"40\",\"0\",\"Testing\",\"Stims/Figures/94-J-0-2.bmp\",\"nala:na\",\"Down\",\"38\",\"4\",\"18\",\"2\",\"S\",\"J\",\"90\"
\"\",\"\",\"approach-retreat\",\"239\",\"1670471\",\"0.0-239.0\",\"\",\"\",\"2-1\",\"4210\",\"40\",\"1\",\"Testing\",\"Stims/Figures/93-J-0-1.bmp\",\"nala:na\",\"Up\",\"40\",\"4\",\"19\",\"2\",\"S\",\"J\",\"91\"
\"\",\"\",\"approach-retreat\",\"240\",\"1676469\",\"0.0-240.0\",\"\",\"\",\"2-1\",\"4462\",\"40\",\"0\",\"Testing\",\"Stims/Figures/111-C-30-3.bmp\",\"ta:kata\",\"Up\",\"38\",\"4\",\"20\",\"2\",\"P\",\"J\",\"92\"
\"\",\"\",\"approach-retreat\",\"241\",\"1681991\",\"0.0-241.0\",\"\",\"\",\"2-1\",\"4003\",\"38\",\"1\",\"Testing\",\"Stims/Figures/7-J-10-4.bmp\",\"nala:na\",\"Down\",\"38\",\"4\",\"21\",\"2\",\"S\",\"J\",\"93\"
\"\",\"\",\"approach-retreat\",\"242\",\"1687584\",\"0.0-242.0\",\"\",\"\",\"2-1\",\"4054\",\"38\",\"1\",\"Testing\",\"Stims/Figures/87-J-10-4.bmp\",\"nala:na\",\"Down\",\"38\",\"4\",\"22\",\"2\",\"S\",\"J\",\"94\"
\"\",\"\",\"approach-retreat\",\"243\",\"1693150\",\"0.0-243.0\",\"\",\"\",\"2-1\",\"4058\",\"38\",\"0\",\"Testing\",\"Stims/Figures/57-C-30-1.bmp\",\"ta:kata\",\"Down\",\"40\",\"4\",\"23\",\"2\",\"P\",\"J\",\"95\"
\"\",\"\",\"approach-retreat\",\"244\",\"1698882\",\"0.0-244.0\",\"\",\"\",\"2-1\",\"4220\",\"40\",\"0\",\"Testing\",\"Stims/Figures/87-C-20-4.bmp\",\"ta:kata\",\"Up\",\"38\",\"4\",\"24\",\"2\",\"P\",\"J\",\"96\"
\"39942\",\"\",\"survey-text\",\"245\",\"1738833\",\"0.0-245.0\",\"\",\"{\"\"Q0\"\":\"\"PS120039\"\"}\",\"\",\"\",\"\",\"\",\"\",\"\",\"\",\"\",\"\",\"\",\"\",\"\",\"\",\"\",\"\"
