"rt","key_press","trial_type","trial_index","time_elapsed","internal_node_id","view_history","responses","Id","Rt","ResKeyCode","ResCorr","TrialType2","Image","Label","Location","CorrectResponse","Block","BlockTrial","Condition","LabelType","Subcondition","trialNum"
"165777","32","text","0","165780","0.0-0.0-0.0","","","","","","","","","","","","","","","","",""
"32998","","instructions","1","198780","0.0-1.0","[{""page_index"":0,""viewing_time"":32997}]","","","","","","","","","","","","","","","",""
"103321","","survey-multi-choice","2","302137","0.0-2.0","","{""Q0"":""Da"",""Q1"":""Da"",""Q2"":""Da"",""Q3"":""Da"",""Q4"":""Da"",""Q5"":""Da""}","","","","","","","","","","","","","","",""
"","","bio","3","311499","0.0-3.0","","{""age"":""19"",""gender"":""f"",""specify"":""""}","","","","","","","","","","","","","","",""
"","","approach-retreat","4","327279","0.0-4.0","","","2-1","14270","39","0","Training","Stims/Figures/84-J-0-2.bmp","va:sha:sha","Left","37","1","1","6A","C1","C","1"
"","","approach-retreat","5","339160","0.0-5.0","","","2-1","10374","38","0","Training","Stims/Figures/102-C-20-4.bmp","za:saza","Up","40","1","2","6A","C2","C","2"
"","","approach-retreat","6","349384","0.0-6.0","","","2-1","8718","37","1","Training","Stims/Figures/93-J-0-1.bmp","va:fa:va","Left","37","1","3","6A","C1","C","3"
"","","approach-retreat","7","358007","0.0-7.0","","","2-1","7117","37","0","Training","Stims/Figures/102-J-10-4.bmp","fafa:va","Right","39","1","4","6A","C1","C","4"
"","","approach-retreat","8","371144","0.0-8.0","","","2-1","11631","37","1","Training","Stims/Figures/84-C-20-2.bmp","sa:sa:za","Right","37","1","5","6A","C2","C","5"
"","","approach-retreat","9","379127","0.0-9.0","","","2-1","6475","38","1","Training","Stims/Figures/93-C-30-1.bmp","sa:saza","Down","38","1","6","6A","C2","C","6"
"","","approach-retreat","10","387951","0.0-10.0","","","2-1","7318","37","1","Training","Stims/Figures/27-C-30-1.bmp","za:sa:ha","Right","37","1","7","6A","C2","C","7"
"","","approach-retreat","11","395758","0.0-11.0","","","2-1","6300","38","0","Training","Stims/Figures/100-J-10-3.bmp","fa:shasha","Down","40","1","8","6A","C1","C","8"
"","","approach-retreat","12","402887","0.0-12.0","","","2-1","5623","38","1","Training","Stims/Figures/74-J-10-4.bmp","vafa:sha","Up","38","1","9","6A","C1","C","9"
"","","approach-retreat","13","411631","0.0-13.0","","","2-1","7236","37","0","Training","Stims/Figures/85-C-20-2.bmp","za:sa:za","Left","39","1","10","6A","C2","C","10"
"","","approach-retreat","14","417552","0.0-14.0","","","2-1","4414","38","1","Training","Stims/Figures/44-J-10-3.bmp","fa:fava","Up","38","1","11","6A","C1","C","11"
"","","approach-retreat","15","423614","0.0-15.0","","","2-1","4556","40","0","Training","Stims/Figures/44-C-30-3.bmp","sa:haha","Down","38","1","12","6A","C2","C","12"
"","","approach-retreat","16","429438","0.0-16.0","","","2-1","4317","38","1","Training","Stims/Figures/100-C-30-3.bmp","zaha:ha","Down","38","1","13","6A","C2","C","13"
"","","approach-retreat","17","435311","0.0-17.0","","","2-1","4367","39","1","Training","Stims/Figures/85-J-0-2.bmp","fa:fa:sha","Right","39","1","14","6A","C1","C","14"
"","","approach-retreat","18","441304","0.0-18.0","","","2-1","4486","37","1","Training","Stims/Figures/27-J-0-1.bmp","vafasha","Left","37","1","15","6A","C1","C","15"
"","","approach-retreat","19","446854","0.0-19.0","","","2-1","4043","38","0","Training","Stims/Figures/74-C-20-4.bmp","sa:ha:ha","Up","40","1","16","6A","C2","C","16"
"","","approach-retreat","20","452367","0.0-20.0","","","2-1","4007","39","0","Training","Stims/Figures/93-C-30-1.bmp","sa:saza","Right","37","2","1","6A","C2","C","17"
"","","approach-retreat","21","458510","0.0-21.0","","","2-1","4636","37","1","Training","Stims/Figures/27-J-0-1.bmp","vafasha","Left","37","2","2","6A","C1","C","18"
"","","approach-retreat","22","464791","0.0-22.0","","","2-1","4774","40","0","Training","Stims/Figures/102-C-20-4.bmp","za:saza","Down","38","2","3","6A","C2","C","19"
"","","approach-retreat","23","470175","0.0-23.0","","","2-1","3877","38","1","Training","Stims/Figures/100-J-10-3.bmp","fa:shasha","Up","38","2","4","6A","C1","C","20"
"","","approach-retreat","24","475735","0.0-24.0","","","2-1","4053","39","1","Training","Stims/Figures/74-J-10-4.bmp","vafa:sha","Right","39","2","5","6A","C1","C","21"
"","","approach-retreat","25","481654","0.0-25.0","","","2-1","4413","38","0","Training","Stims/Figures/85-C-20-2.bmp","za:sa:za","Up","40","2","6","6A","C2","C","22"
"","","approach-retreat","26","487391","0.0-26.0","","","2-1","4229","40","0","Training","Stims/Figures/84-C-20-2.bmp","sa:sa:za","Down","38","2","7","6A","C2","C","23"
"","","approach-retreat","27","493494","0.0-27.0","","","2-1","4597","40","1","Training","Stims/Figures/93-J-0-1.bmp","va:fa:va","Down","40","2","8","6A","C1","C","24"
"","","approach-retreat","28","499024","0.0-28.0","","","2-1","4023","37","0","Training","Stims/Figures/100-C-30-3.bmp","zaha:ha","Left","39","2","9","6A","C2","C","25"
"","","approach-retreat","29","505183","0.0-29.0","","","2-1","4653","39","0","Training","Stims/Figures/27-C-30-1.bmp","za:sa:ha","Right","37","2","10","6A","C2","C","26"
"","","approach-retreat","30","511135","0.0-30.0","","","2-1","4446","39","0","Training","Stims/Figures/74-C-20-4.bmp","sa:ha:ha","Right","37","2","11","6A","C2","C","27"
"","","approach-retreat","31","517054","0.0-31.0","","","2-1","4413","40","1","Training","Stims/Figures/85-J-0-2.bmp","fa:fa:sha","Down","40","2","12","6A","C1","C","28"
"","","approach-retreat","32","522751","0.0-32.0","","","2-1","4191","37","1","Training","Stims/Figures/102-J-10-4.bmp","fafa:va","Left","37","2","13","6A","C1","C","29"
"","","approach-retreat","33","528422","0.0-33.0","","","2-1","4165","38","1","Training","Stims/Figures/84-J-0-2.bmp","va:sha:sha","Up","38","2","14","6A","C1","C","30"
"","","approach-retreat","34","533935","0.0-34.0","","","2-1","4006","38","1","Training","Stims/Figures/44-J-10-3.bmp","fa:fava","Up","38","2","15","6A","C1","C","31"
"","","approach-retreat","35","539390","0.0-35.0","","","2-1","3949","37","0","Training","Stims/Figures/44-C-30-3.bmp","sa:haha","Left","39","2","16","6A","C2","C","32"
"","","approach-retreat","36","544905","0.0-36.0","","","2-1","4008","39","1","Training","Stims/Figures/102-C-20-4.bmp","za:saza","Left","39","3","1","6A","C2","C","33"
"","","approach-retreat","37","550542","0.0-37.0","","","2-1","4130","39","1","Training","Stims/Figures/100-J-10-3.bmp","fa:shasha","Right","39","3","2","6A","C1","C","34"
"","","approach-retreat","38","555991","0.0-38.0","","","2-1","3941","37","0","Training","Stims/Figures/74-C-20-4.bmp","sa:ha:ha","Left","39","3","3","6A","C2","C","35"
"","","approach-retreat","39","561646","0.0-39.0","","","2-1","4148","40","1","Training","Stims/Figures/44-C-30-3.bmp","sa:haha","Up","40","3","4","6A","C2","C","36"
"","","approach-retreat","40","567263","0.0-40.0","","","2-1","4110","39","0","Training","Stims/Figures/85-C-20-2.bmp","za:sa:za","Right","37","3","5","6A","C2","C","37"
"","","approach-retreat","41","572822","0.0-41.0","","","2-1","4052","38","1","Training","Stims/Figures/84-J-0-2.bmp","va:sha:sha","Up","38","3","6","6A","C1","C","38"
"","","approach-retreat","42","578727","0.0-42.0","","","2-1","4398","37","0","Training","Stims/Figures/85-J-0-2.bmp","fa:fa:sha","Right","39","3","7","6A","C1","C","39"
"","","approach-retreat","43","584294","0.0-43.0","","","2-1","4061","37","1","Training","Stims/Figures/27-J-0-1.bmp","vafasha","Left","37","3","8","6A","C1","C","40"
"","","approach-retreat","44","590039","0.0-44.0","","","2-1","4239","40","1","Training","Stims/Figures/44-J-10-3.bmp","fa:fava","Down","40","3","9","6A","C1","C","41"
"","","approach-retreat","45","595526","0.0-45.0","","","2-1","3980","38","1","Training","Stims/Figures/74-J-10-4.bmp","vafa:sha","Up","38","3","10","6A","C1","C","42"
"","","approach-retreat","46","601175","0.0-46.0","","","2-1","4141","38","0","Training","Stims/Figures/84-C-20-2.bmp","sa:sa:za","Up","40","3","11","6A","C2","C","43"
"","","approach-retreat","47","606574","0.0-47.0","","","2-1","3893","37","0","Training","Stims/Figures/93-J-0-1.bmp","va:fa:va","Right","39","3","12","6A","C1","C","44"
"","","approach-retreat","48","612119","0.0-48.0","","","2-1","4039","37","0","Training","Stims/Figures/93-C-30-1.bmp","sa:saza","Left","39","3","13","6A","C2","C","45"
"","","approach-retreat","49","617726","0.0-49.0","","","2-1","4101","40","0","Training","Stims/Figures/27-C-30-1.bmp","za:sa:ha","Down","38","3","14","6A","C2","C","46"
"","","approach-retreat","50","623118","0.0-50.0","","","2-1","3886","38","0","Training","Stims/Figures/102-J-10-4.bmp","fafa:va","Down","40","3","15","6A","C1","C","47"
"","","approach-retreat","51","628734","0.0-51.0","","","2-1","4110","40","0","Training","Stims/Figures/100-C-30-3.bmp","zaha:ha","Down","38","3","16","6A","C2","C","48"
"","","approach-retreat","52","634502","0.0-52.0","","","2-1","4261","37","1","Training","Stims/Figures/85-J-0-2.bmp","fa:fa:sha","Left","37","4","1","6A","C1","C","49"
"","","approach-retreat","53","640142","0.0-53.0","","","2-1","4133","40","0","Training","Stims/Figures/84-C-20-2.bmp","sa:sa:za","Down","38","4","2","6A","C2","C","50"
"","","approach-retreat","54","645703","0.0-54.0","","","2-1","4055","39","1","Training","Stims/Figures/84-J-0-2.bmp","va:sha:sha","Right","39","4","3","6A","C1","C","51"
"","","approach-retreat","55","651399","0.0-55.0","","","2-1","4190","38","0","Training","Stims/Figures/102-C-20-4.bmp","za:saza","Up","40","4","4","6A","C2","C","52"
"","","approach-retreat","56","656435","0.0-56.0","","","2-1","3530","40","1","Training","Stims/Figures/100-C-30-3.bmp","zaha:ha","Up","40","4","5","6A","C2","C","53"
"","","approach-retreat","57","664654","0.0-57.0","","","2-1","6713","39","1","Training","Stims/Figures/27-C-30-1.bmp","za:sa:ha","Left","39","4","6","6A","C2","C","54"
"","","approach-retreat","58","670846","0.0-58.0","","","2-1","4686","39","0","Training","Stims/Figures/27-J-0-1.bmp","vafasha","Left","37","4","7","6A","C1","C","55"
"","","approach-retreat","59","676782","0.0-59.0","","","2-1","4430","39","0","Training","Stims/Figures/74-C-20-4.bmp","sa:ha:ha","Right","37","4","8","6A","C2","C","56"
"","","approach-retreat","60","682526","0.0-60.0","","","2-1","4238","39","0","Training","Stims/Figures/93-C-30-1.bmp","sa:saza","Right","37","4","9","6A","C2","C","57"
"","","approach-retreat","61","688390","0.0-61.0","","","2-1","4358","40","0","Training","Stims/Figures/85-C-20-2.bmp","za:sa:za","Down","38","4","10","6A","C2","C","58"
"","","approach-retreat","62","694143","0.0-62.0","","","2-1","4248","39","0","Training","Stims/Figures/44-C-30-3.bmp","sa:haha","Right","37","4","11","6A","C2","C","59"
"","","approach-retreat","63","699863","0.0-63.0","","","2-1","4214","38","1","Training","Stims/Figures/100-J-10-3.bmp","fa:shasha","Up","38","4","12","6A","C1","C","60"
"","","approach-retreat","64","705407","0.0-64.0","","","2-1","4038","40","1","Training","Stims/Figures/102-J-10-4.bmp","fafa:va","Down","40","4","13","6A","C1","C","61"
"","","approach-retreat","65","711126","0.0-65.0","","","2-1","4213","38","1","Training","Stims/Figures/93-J-0-1.bmp","va:fa:va","Up","38","4","14","6A","C1","C","62"
"","","approach-retreat","66","716151","0.0-66.0","","","2-1","3519","38","0","Training","Stims/Figures/44-J-10-3.bmp","fa:fava","Down","40","4","15","6A","C1","C","63"
"","","approach-retreat","67","721718","0.0-67.0","","","2-1","4054","37","1","Training","Stims/Figures/74-J-10-4.bmp","vafa:sha","Left","37","4","16","6A","C1","C","64"
"","","approach-retreat","68","727486","0.0-68.0","","","2-1","4262","38","1","Training","Stims/Figures/102-J-10-4.bmp","fafa:va","Up","38","5","1","6A","C1","C","65"
"","","approach-retreat","69","733374","0.0-69.0","","","2-1","4382","37","1","Training","Stims/Figures/44-J-10-3.bmp","fa:fava","Left","37","5","2","6A","C1","C","66"
"","","approach-retreat","70","738895","0.0-70.0","","","2-1","4015","39","0","Training","Stims/Figures/27-C-30-1.bmp","za:sa:ha","Right","37","5","3","6A","C2","C","67"
"","","approach-retreat","71","744406","0.0-71.0","","","2-1","4005","38","1","Training","Stims/Figures/27-J-0-1.bmp","vafasha","Up","38","5","4","6A","C1","C","68"
"","","approach-retreat","72","750095","0.0-72.0","","","2-1","4183","40","1","Training","Stims/Figures/85-C-20-2.bmp","za:sa:za","Up","40","5","5","6A","C2","C","69"
"","","approach-retreat","73","755854","0.0-73.0","","","2-1","4250","40","0","Training","Stims/Figures/102-C-20-4.bmp","za:saza","Down","38","5","6","6A","C2","C","70"
"","","approach-retreat","74","762294","0.0-74.0","","","2-1","4933","38","1","Training","Stims/Figures/74-C-20-4.bmp","sa:ha:ha","Down","38","5","7","6A","C2","C","71"
"","","approach-retreat","75","768079","0.0-75.0","","","2-1","4279","40","1","Training","Stims/Figures/93-J-0-1.bmp","va:fa:va","Down","40","5","8","6A","C1","C","72"
"","","approach-retreat","76","774199","0.0-76.0","","","2-1","4613","37","1","Training","Stims/Figures/84-J-0-2.bmp","va:sha:sha","Left","37","5","9","6A","C1","C","73"
"","","approach-retreat","77","780038","0.0-77.0","","","2-1","4333","39","1","Training","Stims/Figures/85-J-0-2.bmp","fa:fa:sha","Right","39","5","10","6A","C1","C","74"
"","","approach-retreat","78","786935","0.0-78.0","","","2-1","5391","37","0","Training","Stims/Figures/74-J-10-4.bmp","vafa:sha","Right","39","5","11","6A","C1","C","75"
"","","approach-retreat","79","792870","0.0-79.0","","","2-1","4428","39","1","Training","Stims/Figures/44-C-30-3.bmp","sa:haha","Left","39","5","12","6A","C2","C","76"
"","","approach-retreat","80","798615","0.0-80.0","","","2-1","4236","37","0","Training","Stims/Figures/84-C-20-2.bmp","sa:sa:za","Left","39","5","13","6A","C2","C","77"
"","","approach-retreat","81","804358","0.0-81.0","","","2-1","4237","38","1","Training","Stims/Figures/100-J-10-3.bmp","fa:shasha","Up","38","5","14","6A","C1","C","78"
"","","approach-retreat","82","810183","0.0-82.0","","","2-1","4319","39","0","Training","Stims/Figures/100-C-30-3.bmp","zaha:ha","Right","37","5","15","6A","C2","C","79"
"","","approach-retreat","83","817866","0.0-83.0","","","2-1","6177","38","1","Training","Stims/Figures/93-C-30-1.bmp","sa:saza","Down","38","5","16","6A","C2","C","80"
"","","approach-retreat","84","823702","0.0-84.0","","","2-1","4329","40","0","Training","Stims/Figures/84-C-20-2.bmp","sa:sa:za","Down","38","6","1","6A","C2","C","81"
"","","approach-retreat","85","830382","0.0-85.0","","","2-1","5174","40","1","Training","Stims/Figures/27-C-30-1.bmp","za:sa:ha","Up","40","6","2","6A","C2","C","82"
"","","approach-retreat","86","835998","0.0-86.0","","","2-1","4110","39","1","Training","Stims/Figures/84-J-0-2.bmp","va:sha:sha","Right","39","6","3","6A","C1","C","83"
"","","approach-retreat","87","841678","0.0-87.0","","","2-1","4173","37","0","Training","Stims/Figures/93-C-30-1.bmp","sa:saza","Left","39","6","4","6A","C2","C","84"
"","","approach-retreat","88","847511","0.0-88.0","","","2-1","4327","38","0","Training","Stims/Figures/85-C-20-2.bmp","za:sa:za","Up","40","6","5","6A","C2","C","85"
"","","approach-retreat","89","852694","0.0-89.0","","","2-1","3677","37","0","Training","Stims/Figures/102-J-10-4.bmp","fafa:va","Right","39","6","6","6A","C1","C","86"
"","","approach-retreat","90","858438","0.0-90.0","","","2-1","4239","37","1","Training","Stims/Figures/74-J-10-4.bmp","vafa:sha","Left","37","6","7","6A","C1","C","87"
"","","approach-retreat","91","864390","0.0-91.0","","","2-1","4446","39","0","Training","Stims/Figures/74-C-20-4.bmp","sa:ha:ha","Right","37","6","8","6A","C2","C","88"
"","","approach-retreat","92","869446","0.0-92.0","","","2-1","3551","38","0","Training","Stims/Figures/85-J-0-2.bmp","fa:fa:sha","Down","40","6","9","6A","C1","C","89"
"","","approach-retreat","93","874519","0.0-93.0","","","2-1","3567","40","0","Training","Stims/Figures/44-C-30-3.bmp","sa:haha","Down","38","6","10","6A","C2","C","90"
"","","approach-retreat","94","880791","0.0-94.0","","","2-1","4766","37","0","Training","Stims/Figures/102-C-20-4.bmp","za:saza","Left","39","6","11","6A","C2","C","91"
"","","approach-retreat","95","887551","0.0-95.0","","","2-1","5254","38","0","Training","Stims/Figures/93-J-0-1.bmp","va:fa:va","Down","40","6","12","6A","C1","C","92"
"","","approach-retreat","96","893615","0.0-96.0","","","2-1","4556","40","0","Training","Stims/Figures/27-J-0-1.bmp","vafasha","Up","38","6","13","6A","C1","C","93"
"","","approach-retreat","97","899575","0.0-97.0","","","2-1","4454","39","1","Training","Stims/Figures/100-J-10-3.bmp","fa:shasha","Right","39","6","14","6A","C1","C","94"
"","","approach-retreat","98","905559","0.0-98.0","","","2-1","4478","37","1","Training","Stims/Figures/44-J-10-3.bmp","fa:fava","Left","37","6","15","6A","C1","C","95"
"","","approach-retreat","99","911679","0.0-99.0","","","2-1","4614","38","0","Training","Stims/Figures/100-C-30-3.bmp","zaha:ha","Up","40","6","16","6A","C2","C","96"
"","","approach-retreat","100","917280","0.0-100.0","","","2-1","4095","40","1","Training","Stims/Figures/84-C-20-2.bmp","sa:sa:za","Up","40","7","1","6A","C2","C","97"
"","","approach-retreat","101","923071","0.0-101.0","","","2-1","4284","39","1","Training","Stims/Figures/84-J-0-2.bmp","va:sha:sha","Right","39","7","2","6A","C1","C","98"
"","","approach-retreat","102","928952","0.0-102.0","","","2-1","4375","38","0","Training","Stims/Figures/74-C-20-4.bmp","sa:ha:ha","Up","40","7","3","6A","C2","C","99"
"","","approach-retreat","103","934590","0.0-103.0","","","2-1","4132","39","1","Training","Stims/Figures/85-J-0-2.bmp","fa:fa:sha","Right","39","7","4","6A","C1","C","100"
"","","approach-retreat","104","940551","0.0-104.0","","","2-1","4454","38","0","Training","Stims/Figures/102-C-20-4.bmp","za:saza","Up","40","7","5","6A","C2","C","101"
"","","approach-retreat","105","947206","0.0-105.0","","","2-1","5148","40","0","Training","Stims/Figures/44-C-30-3.bmp","sa:haha","Down","38","7","6","6A","C2","C","102"
"","","approach-retreat","106","3409280","0.0-106.0","","","2-1","2460568","39","1","Training","Stims/Figures/85-C-20-2.bmp","za:sa:za","Left","39","7","7","6A","C2","C","103"
"","","approach-retreat","107","3417678","0.0-107.0","","","2-1","6891","38","0","Training","Stims/Figures/27-J-0-1.bmp","vafasha","Down","40","7","8","6A","C1","C","104"
"","","approach-retreat","108","3425535","0.0-108.0","","","2-1","6351","39","0","Training","Stims/Figures/93-C-30-1.bmp","sa:saza","Right","37","7","9","6A","C2","C","105"
"","","approach-retreat","109","3434342","0.0-109.0","","","2-1","7301","39","1","Training","Stims/Figures/27-C-30-1.bmp","za:sa:ha","Left","39","7","10","6A","C2","C","106"
"","","approach-retreat","110","3441846","0.0-110.0","","","2-1","5996","40","0","Training","Stims/Figures/44-J-10-3.bmp","fa:fava","Up","38","7","11","6A","C1","C","107"
"","","approach-retreat","111","3448399","0.0-111.0","","","2-1","5047","39","1","Training","Stims/Figures/100-C-30-3.bmp","zaha:ha","Left","39","7","12","6A","C2","C","108"
"","","approach-retreat","112","3456431","0.0-112.0","","","2-1","6526","38","0","Training","Stims/Figures/74-J-10-4.bmp","vafa:sha","Down","40","7","13","6A","C1","C","109"
"","","approach-retreat","113","3464326","0.0-113.0","","","2-1","6389","40","1","Training","Stims/Figures/102-J-10-4.bmp","fafa:va","Down","40","7","14","6A","C1","C","110"
"","","approach-retreat","114","3471231","0.0-114.0","","","2-1","5399","39","1","Training","Stims/Figures/100-J-10-3.bmp","fa:shasha","Right","39","7","15","6A","C1","C","111"
"","","approach-retreat","115","3479543","0.0-115.0","","","2-1","6806","37","1","Training","Stims/Figures/93-J-0-1.bmp","va:fa:va","Left","37","7","16","6A","C1","C","112"
"","","approach-retreat","116","3486471","0.0-116.0","","","2-1","5422","39","0","Training","Stims/Figures/85-J-0-2.bmp","fa:fa:sha","Left","37","8","1","6A","C1","C","113"
"","","approach-retreat","117","3493087","0.0-117.0","","","2-1","5110","38","0","Training","Stims/Figures/100-C-30-3.bmp","zaha:ha","Up","40","8","2","6A","C2","C","114"
"","","approach-retreat","118","3500895","0.0-118.0","","","2-1","6302","38","0","Training","Stims/Figures/93-C-30-1.bmp","sa:saza","Up","40","8","3","6A","C2","C","115"
"","","approach-retreat","119","3507694","0.0-119.0","","","2-1","5293","40","0","Training","Stims/Figures/84-C-20-2.bmp","sa:sa:za","Down","38","8","4","6A","C2","C","116"
"","","approach-retreat","120","3515951","0.0-120.0","","","2-1","6751","38","0","Training","Stims/Figures/93-J-0-1.bmp","va:fa:va","Down","40","8","5","6A","C1","C","117"
"","","approach-retreat","121","3522134","0.0-121.0","","","2-1","4677","37","1","Training","Stims/Figures/100-J-10-3.bmp","fa:shasha","Left","37","8","6","6A","C1","C","118"
"","","approach-retreat","122","3527967","0.0-122.0","","","2-1","4326","39","0","Training","Stims/Figures/44-C-30-3.bmp","sa:haha","Right","37","8","7","6A","C2","C","119"
"","","approach-retreat","123","3535087","0.0-123.0","","","2-1","5614","38","1","Training","Stims/Figures/85-C-20-2.bmp","za:sa:za","Down","38","8","8","6A","C2","C","120"
"","","approach-retreat","124","3540687","0.0-124.0","","","2-1","4094","39","1","Training","Stims/Figures/84-J-0-2.bmp","va:sha:sha","Right","39","8","9","6A","C1","C","121"
"","","approach-retreat","125","3547367","0.0-125.0","","","2-1","5174","37","0","Training","Stims/Figures/74-J-10-4.bmp","vafa:sha","Right","39","8","10","6A","C1","C","122"
"","","approach-retreat","126","3554727","0.0-126.0","","","2-1","5854","38","1","Training","Stims/Figures/27-C-30-1.bmp","za:sa:ha","Down","38","8","11","6A","C2","C","123"
"","","approach-retreat","127","3561367","0.0-127.0","","","2-1","5132","40","1","Training","Stims/Figures/74-C-20-4.bmp","sa:ha:ha","Up","40","8","12","6A","C2","C","124"
"","","approach-retreat","128","3568832","0.0-128.0","","","2-1","5959","40","1","Training","Stims/Figures/102-C-20-4.bmp","za:saza","Up","40","8","13","6A","C2","C","125"
"","","approach-retreat","129","3575038","0.0-129.0","","","2-1","4699","37","1","Training","Stims/Figures/102-J-10-4.bmp","fafa:va","Left","37","8","14","6A","C1","C","126"
"","","approach-retreat","130","3581326","0.0-130.0","","","2-1","4782","37","1","Training","Stims/Figures/44-J-10-3.bmp","fa:fava","Left","37","8","15","6A","C1","C","127"
"","","approach-retreat","131","3593055","0.0-131.0","","","2-1","10223","39","1","Training","Stims/Figures/27-J-0-1.bmp","vafasha","Right","39","8","16","6A","C1","C","128"
"","","approach-retreat","132","3601231","0.0-132.0","","","2-1","6668","38","1","Training","Stims/Figures/102-J-10-4.bmp","fafa:va","Up","38","9","1","6A","C1","C","129"
"","","approach-retreat","133","3613239","0.0-133.0","","","2-1","10502","40","0","Training","Stims/Figures/27-C-30-1.bmp","za:sa:ha","Down","38","9","2","6A","C2","C","130"
"","","approach-retreat","134","3621079","0.0-134.0","","","2-1","6334","39","1","Training","Stims/Figures/102-C-20-4.bmp","za:saza","Left","39","9","3","6A","C2","C","131"
"","","approach-retreat","135","3632967","0.0-135.0","","","2-1","10381","40","0","Training","Stims/Figures/27-J-0-1.bmp","vafasha","Up","38","9","4","6A","C1","C","132"
"","","approach-retreat","136","3663607","0.0-136.0","","","2-1","29134","37","1","Training","Stims/Figures/100-J-10-3.bmp","fa:shasha","Left","37","9","5","6A","C1","C","133"
"","","approach-retreat","137","3670951","0.0-137.0","","","2-1","5838","37","1","Training","Stims/Figures/84-J-0-2.bmp","va:sha:sha","Left","37","9","6","6A","C1","C","134"
"","","approach-retreat","138","3677392","0.0-138.0","","","2-1","4935","40","0","Training","Stims/Figures/100-C-30-3.bmp","zaha:ha","Down","38","9","7","6A","C2","C","135"
"","","approach-retreat","139","3683094","0.0-139.0","","","2-1","4197","39","0","Training","Stims/Figures/74-J-10-4.bmp","vafa:sha","Left","37","9","8","6A","C1","C","136"
"","","approach-retreat","140","3689143","0.0-140.0","","","2-1","4543","38","0","Training","Stims/Figures/84-C-20-2.bmp","sa:sa:za","Up","40","9","9","6A","C2","C","137"
"","","approach-retreat","141","3707792","0.0-141.0","","","2-1","17143","39","0","Training","Stims/Figures/93-C-30-1.bmp","sa:saza","Right","37","9","10","6A","C2","C","138"
"","","approach-retreat","142","3715206","0.0-142.0","","","2-1","5908","37","0","Training","Stims/Figures/44-J-10-3.bmp","fa:fava","Right","39","9","11","6A","C1","C","139"
"","","approach-retreat","143","3721903","0.0-143.0","","","2-1","5191","38","0","Training","Stims/Figures/85-J-0-2.bmp","fa:fa:sha","Down","40","9","12","6A","C1","C","140"
"","","approach-retreat","144","3728390","0.0-144.0","","","2-1","4981","37","1","Training","Stims/Figures/85-C-20-2.bmp","za:sa:za","Right","37","9","13","6A","C2","C","141"
"","","approach-retreat","145","3734751","0.0-145.0","","","2-1","4855","38","0","Training","Stims/Figures/93-J-0-1.bmp","va:fa:va","Down","40","9","14","6A","C1","C","142"
"","","approach-retreat","146","3740487","0.0-146.0","","","2-1","4230","38","0","Training","Stims/Figures/74-C-20-4.bmp","sa:ha:ha","Up","40","9","15","6A","C2","C","143"
"","","approach-retreat","147","3746135","0.0-147.0","","","2-1","4143","39","0","Training","Stims/Figures/44-C-30-3.bmp","sa:haha","Right","37","9","16","6A","C2","C","144"
"60205","","instructions","148","3806341","0.0-148.0","[{""page_index"":0,""viewing_time"":60205}]","","","","","","","","","","","","","","","",""
"","","approach-retreat","149","3813839","0.0-149.0","","","2-1","5993","40","1","Testing","Stims/Figures/100-J-10-3.bmp","fa:shasha","Down","40","1","1","6A","C1","C","1"
"","","approach-retreat","150","3820879","0.0-150.0","","","2-1","5535","38","0","Testing","Stims/Figures/85-C-20-2.bmp","za:sa:za","Up","40","1","2","6A","C2","C","2"
"","","approach-retreat","151","3826815","0.0-151.0","","","2-1","4431","38","0","Testing","Stims/Figures/128-C-30-3.bmp","za:haza","Up","40","1","3","6A","C2","C","3"
"","","approach-retreat","152","3833087","0.0-152.0","","","2-1","4767","40","1","Testing","Stims/Figures/74-C-20-4.bmp","sa:ha:ha","Up","40","1","4","6A","C2","C","4"
"","","approach-retreat","153","3838662","0.0-153.0","","","2-1","4065","39","1","Testing","Stims/Figures/44-J-10-3.bmp","fa:fava","Right","39","1","5","6A","C1","C","5"
"","","approach-retreat","154","3845088","0.0-154.0","","","2-1","4921","37","1","Testing","Stims/Figures/84-C-20-2.bmp","sa:sa:za","Right","37","1","6","6A","C2","C","6"
"","","approach-retreat","155","3851031","0.0-155.0","","","2-1","4438","40","0","Testing","Stims/Figures/128-J-10-3.bmp","fa:sha:va","Up","38","1","7","6A","C1","C","7"
"","","approach-retreat","156","3856751","0.0-156.0","","","2-1","4215","38","1","Testing","Stims/Figures/44-C-30-3.bmp","sa:haha","Down","38","1","8","6A","C2","C","8"
"","","approach-retreat","157","3862799","0.0-157.0","","","2-1","4543","39","1","Testing","Stims/Figures/93-C-30-1.bmp","sa:saza","Left","39","1","9","6A","C2","C","9"
"","","approach-retreat","158","3869230","0.0-158.0","","","2-1","4926","40","0","Testing","Stims/Figures/118-C-20-2.bmp","sasa:ha","Down","38","1","10","6A","C2","C","10"
"","","approach-retreat","159","3875357","0.0-159.0","","","2-1","4622","39","1","Testing","Stims/Figures/93-J-0-1.bmp","va:fa:va","Right","39","1","11","6A","C1","C","11"
"","","approach-retreat","160","3880991","0.0-160.0","","","2-1","4129","37","1","Testing","Stims/Figures/74-J-10-4.bmp","vafa:sha","Left","37","1","12","6A","C1","C","12"
"","","approach-retreat","161","3887054","0.0-161.0","","","2-1","4558","39","0","Testing","Stims/Figures/27-J-0-1.bmp","vafasha","Left","37","1","13","6A","C1","C","13"
"","","approach-retreat","162","3893054","0.0-162.0","","","2-1","4495","40","1","Testing","Stims/Figures/118-J-0-2.bmp","va:shava","Down","40","1","14","6A","C1","C","14"
"","","approach-retreat","163","3899150","0.0-163.0","","","2-1","4591","40","1","Testing","Stims/Figures/84-J-0-2.bmp","va:sha:sha","Down","40","1","15","6A","C1","C","15"
"","","approach-retreat","164","3905143","0.0-164.0","","","2-1","4488","37","0","Testing","Stims/Figures/71-J-0-1.bmp","va:fasha","Right","39","1","16","6A","C1","C","16"
"","","approach-retreat","165","3910821","0.0-165.0","","","2-1","4173","39","0","Testing","Stims/Figures/102-C-20-4.bmp","za:saza","Right","37","1","17","6A","C2","C","17"
"","","approach-retreat","166","3916783","0.0-166.0","","","2-1","4457","39","0","Testing","Stims/Figures/100-C-30-3.bmp","zaha:ha","Right","37","1","18","6A","C2","C","18"
"","","approach-retreat","167","3922502","0.0-167.0","","","2-1","4213","38","1","Testing","Stims/Figures/102-J-10-4.bmp","fafa:va","Up","38","1","19","6A","C1","C","19"
"","","approach-retreat","168","3928119","0.0-168.0","","","2-1","4111","38","1","Testing","Stims/Figures/87-J-10-4.bmp","va:sha:va","Up","38","1","20","6A","C1","C","20"
"","","approach-retreat","169","3933719","0.0-169.0","","","2-1","4095","37","0","Testing","Stims/Figures/27-C-30-1.bmp","za:sa:ha","Left","39","1","21","6A","C2","C","21"
"","","approach-retreat","170","3939361","0.0-170.0","","","2-1","4136","39","0","Testing","Stims/Figures/85-J-0-2.bmp","fa:fa:sha","Left","37","1","22","6A","C1","C","22"
"","","approach-retreat","171","3944918","0.0-171.0","","","2-1","4051","37","0","Testing","Stims/Figures/71-C-30-1.bmp","zasa:ha","Left","39","1","23","6A","C2","C","23"
"","","approach-retreat","172","3950736","0.0-172.0","","","2-1","4313","38","1","Testing","Stims/Figures/87-C-20-4.bmp","za:haha","Down","38","1","24","6A","C2","C","24"
"","","approach-retreat","173","3956463","0.0-173.0","","","2-1","4222","38","1","Testing","Stims/Figures/27-C-30-1.bmp","za:sa:ha","Down","38","2","1","6A","C2","C","25"
"","","approach-retreat","174","3962199","0.0-174.0","","","2-1","4231","37","1","Testing","Stims/Figures/27-J-0-1.bmp","vafasha","Left","37","2","2","6A","C1","C","26"
"","","approach-retreat","175","3967887","0.0-175.0","","","2-1","4182","39","0","Testing","Stims/Figures/71-J-0-1.bmp","va:fasha","Left","37","2","3","6A","C1","C","27"
"","","approach-retreat","176","3973623","0.0-176.0","","","2-1","4231","37","0","Testing","Stims/Figures/102-J-10-4.bmp","fafa:va","Right","39","2","4","6A","C1","C","28"
"","","approach-retreat","177","3979574","0.0-177.0","","","2-1","4446","39","0","Testing","Stims/Figures/74-J-10-4.bmp","vafa:sha","Left","37","2","5","6A","C1","C","29"
"","","approach-retreat","178","3985120","0.0-178.0","","","2-1","4041","38","0","Testing","Stims/Figures/102-C-20-4.bmp","za:saza","Up","40","2","6","6A","C2","C","30"
"","","approach-retreat","179","3990710","0.0-179.0","","","2-1","4085","39","0","Testing","Stims/Figures/71-C-30-1.bmp","zasa:ha","Right","37","2","7","6A","C2","C","31"
"","","approach-retreat","180","3996470","0.0-180.0","","","2-1","4255","38","0","Testing","Stims/Figures/84-J-0-2.bmp","va:sha:sha","Down","40","2","8","6A","C1","C","32"
"","","approach-retreat","181","4002710","0.0-181.0","","","2-1","4735","38","1","Testing","Stims/Figures/84-C-20-2.bmp","sa:sa:za","Down","38","2","9","6A","C2","C","33"
"","","approach-retreat","182","4009694","0.0-182.0","","","2-1","5479","39","1","Testing","Stims/Figures/118-J-0-2.bmp","va:shava","Right","39","2","10","6A","C1","C","34"
"","","approach-retreat","183","4015861","0.0-183.0","","","2-1","4662","39","1","Testing","Stims/Figures/85-C-20-2.bmp","za:sa:za","Left","39","2","11","6A","C2","C","35"
"","","approach-retreat","184","4021646","0.0-184.0","","","2-1","4280","38","1","Testing","Stims/Figures/93-J-0-1.bmp","va:fa:va","Up","38","2","12","6A","C1","C","36"
"","","approach-retreat","185","4027198","0.0-185.0","","","2-1","4046","40","0","Testing","Stims/Figures/128-C-30-3.bmp","za:haza","Down","38","2","13","6A","C2","C","37"
"","","approach-retreat","186","4034798","0.0-186.0","","","2-1","6095","39","1","Testing","Stims/Figures/100-C-30-3.bmp","zaha:ha","Left","39","2","14","6A","C2","C","38"
"","","approach-retreat","187","4040550","0.0-187.0","","","2-1","4247","39","0","Testing","Stims/Figures/118-C-20-2.bmp","sasa:ha","Right","37","2","15","6A","C2","C","39"
"","","approach-retreat","188","4046909","0.0-188.0","","","2-1","4854","40","0","Testing","Stims/Figures/44-C-30-3.bmp","sa:haha","Down","38","2","16","6A","C2","C","40"
"","","approach-retreat","189","4052670","0.0-189.0","","","2-1","4256","39","0","Testing","Stims/Figures/85-J-0-2.bmp","fa:fa:sha","Left","37","2","17","6A","C1","C","41"
"","","approach-retreat","190","4057839","0.0-190.0","","","2-1","3664","38","0","Testing","Stims/Figures/87-C-20-4.bmp","za:haha","Up","40","2","18","6A","C2","C","42"
"","","approach-retreat","191","4063247","0.0-191.0","","","2-1","3903","38","1","Testing","Stims/Figures/100-J-10-3.bmp","fa:shasha","Up","38","2","19","6A","C1","C","43"
"","","approach-retreat","192","4069063","0.0-192.0","","","2-1","4311","40","0","Testing","Stims/Figures/128-J-10-3.bmp","fa:sha:va","Up","38","2","20","6A","C1","C","44"
"","","approach-retreat","193","4074655","0.0-193.0","","","2-1","4087","39","0","Testing","Stims/Figures/93-C-30-1.bmp","sa:saza","Right","37","2","21","6A","C2","C","45"
"","","approach-retreat","194","4080007","0.0-194.0","","","2-1","3847","40","1","Testing","Stims/Figures/74-C-20-4.bmp","sa:ha:ha","Up","40","2","22","6A","C2","C","46"
"","","approach-retreat","195","4085119","0.0-195.0","","","2-1","3607","39","1","Testing","Stims/Figures/87-J-10-4.bmp","va:sha:va","Right","39","2","23","6A","C1","C","47"
"","","approach-retreat","196","4090383","0.0-196.0","","","2-1","3759","40","1","Testing","Stims/Figures/44-J-10-3.bmp","fa:fava","Down","40","2","24","6A","C1","C","48"
"","","approach-retreat","197","4096031","0.0-197.0","","","2-1","4143","39","1","Testing","Stims/Figures/27-J-0-1.bmp","vafasha","Right","39","3","1","6A","C1","C","49"
"","","approach-retreat","198","4101478","0.0-198.0","","","2-1","3942","39","0","Testing","Stims/Figures/84-C-20-2.bmp","sa:sa:za","Right","37","3","2","6A","C2","C","50"
"","","approach-retreat","199","4106614","0.0-199.0","","","2-1","3631","40","0","Testing","Stims/Figures/87-J-10-4.bmp","va:sha:va","Up","38","3","3","6A","C1","C","51"
"","","approach-retreat","200","4112662","0.0-200.0","","","2-1","4544","39","0","Testing","Stims/Figures/102-C-20-4.bmp","za:saza","Right","37","3","4","6A","C2","C","52"
"","","approach-retreat","201","4118069","0.0-201.0","","","2-1","3902","38","1","Testing","Stims/Figures/128-J-10-3.bmp","fa:sha:va","Up","38","3","5","6A","C1","C","53"
"","","approach-retreat","202","4123526","0.0-202.0","","","2-1","3952","38","0","Testing","Stims/Figures/93-C-30-1.bmp","sa:saza","Up","40","3","6","6A","C2","C","54"
"","","approach-retreat","203","4128982","0.0-203.0","","","2-1","3951","40","0","Testing","Stims/Figures/87-C-20-4.bmp","za:haha","Down","38","3","7","6A","C2","C","55"
"","","approach-retreat","204","4134630","0.0-204.0","","","2-1","4143","37","0","Testing","Stims/Figures/44-C-30-3.bmp","sa:haha","Left","39","3","8","6A","C2","C","56"
"","","approach-retreat","205","4140269","0.0-205.0","","","2-1","4134","39","1","Testing","Stims/Figures/118-J-0-2.bmp","va:shava","Right","39","3","9","6A","C1","C","57"
"","","approach-retreat","206","4145888","0.0-206.0","","","2-1","4113","38","1","Testing","Stims/Figures/118-C-20-2.bmp","sasa:ha","Down","38","3","10","6A","C2","C","58"
"","","approach-retreat","207","4151534","0.0-207.0","","","2-1","4139","39","1","Testing","Stims/Figures/85-J-0-2.bmp","fa:fa:sha","Right","39","3","11","6A","C1","C","59"
"","","approach-retreat","208","4157214","0.0-208.0","","","2-1","4175","38","1","Testing","Stims/Figures/84-J-0-2.bmp","va:sha:sha","Up","38","3","12","6A","C1","C","60"
"","","approach-retreat","209","4162702","0.0-209.0","","","2-1","3983","37","0","Testing","Stims/Figures/85-C-20-2.bmp","za:sa:za","Left","39","3","13","6A","C2","C","61"
"","","approach-retreat","210","4168735","0.0-210.0","","","2-1","4528","40","0","Testing","Stims/Figures/71-C-30-1.bmp","zasa:ha","Down","38","3","14","6A","C2","C","62"
"","","approach-retreat","211","4173758","0.0-211.0","","","2-1","3517","39","0","Testing","Stims/Figures/100-J-10-3.bmp","fa:shasha","Left","37","3","15","6A","C1","C","63"
"","","approach-retreat","212","4179087","0.0-212.0","","","2-1","3824","40","1","Testing","Stims/Figures/44-J-10-3.bmp","fa:fava","Down","40","3","16","6A","C1","C","64"
"","","approach-retreat","213","4184767","0.0-213.0","","","2-1","4175","40","1","Testing","Stims/Figures/27-C-30-1.bmp","za:sa:ha","Up","40","3","17","6A","C2","C","65"
"","","approach-retreat","214","4189934","0.0-214.0","","","2-1","3661","39","0","Testing","Stims/Figures/74-J-10-4.bmp","vafa:sha","Left","37","3","18","6A","C1","C","66"
"","","approach-retreat","215","4195111","0.0-215.0","","","2-1","3672","40","1","Testing","Stims/Figures/102-J-10-4.bmp","fafa:va","Down","40","3","19","6A","C1","C","67"
"","","approach-retreat","216","4200223","0.0-216.0","","","2-1","3607","38","0","Testing","Stims/Figures/128-C-30-3.bmp","za:haza","Up","40","3","20","6A","C2","C","68"
"","","approach-retreat","217","4205958","0.0-217.0","","","2-1","4230","39","0","Testing","Stims/Figures/93-J-0-1.bmp","va:fa:va","Left","37","3","21","6A","C1","C","69"
"","","approach-retreat","218","4211174","0.0-218.0","","","2-1","3711","40","0","Testing","Stims/Figures/100-C-30-3.bmp","zaha:ha","Down","38","3","22","6A","C2","C","70"
"","","approach-retreat","219","4216184","0.0-219.0","","","2-1","3505","37","1","Testing","Stims/Figures/71-J-0-1.bmp","va:fasha","Left","37","3","23","6A","C1","C","71"
"","","approach-retreat","220","4221926","0.0-220.0","","","2-1","4237","39","0","Testing","Stims/Figures/74-C-20-4.bmp","sa:ha:ha","Right","37","3","24","6A","C2","C","72"
"","","approach-retreat","221","4226990","0.0-221.0","","","2-1","3559","38","1","Testing","Stims/Figures/118-J-0-2.bmp","va:shava","Up","38","4","1","6A","C1","C","73"
"","","approach-retreat","222","4232079","0.0-222.0","","","2-1","3579","40","0","Testing","Stims/Figures/102-J-10-4.bmp","fafa:va","Up","38","4","2","6A","C1","C","74"
"","","approach-retreat","223","4237613","0.0-223.0","","","2-1","4029","40","1","Testing","Stims/Figures/74-J-10-4.bmp","vafa:sha","Down","40","4","3","6A","C1","C","75"
"","","approach-retreat","224","4243797","0.0-224.0","","","2-1","4679","39","1","Testing","Stims/Figures/87-C-20-4.bmp","za:haha","Left","39","4","4","6A","C2","C","76"
"","","approach-retreat","225","4249278","0.0-225.0","","","2-1","3976","38","0","Testing","Stims/Figures/102-C-20-4.bmp","za:saza","Up","40","4","5","6A","C2","C","77"
"","","approach-retreat","226","4254494","0.0-226.0","","","2-1","3709","40","0","Testing","Stims/Figures/128-C-30-3.bmp","za:haza","Down","38","4","6","6A","C2","C","78"
"","","approach-retreat","227","4259910","0.0-227.0","","","2-1","3911","38","0","Testing","Stims/Figures/74-C-20-4.bmp","sa:ha:ha","Up","40","4","7","6A","C2","C","79"
"","","approach-retreat","228","4265310","0.0-228.0","","","2-1","3895","37","0","Testing","Stims/Figures/85-C-20-2.bmp","za:sa:za","Left","39","4","8","6A","C2","C","80"
"","","approach-retreat","229","4270334","0.0-229.0","","","2-1","3519","37","0","Testing","Stims/Figures/44-J-10-3.bmp","fa:fava","Right","39","4","9","6A","C1","C","81"
"","","approach-retreat","230","4276021","0.0-230.0","","","2-1","4182","37","1","Testing","Stims/Figures/93-C-30-1.bmp","sa:saza","Right","37","4","10","6A","C2","C","82"
"","","approach-retreat","231","4281422","0.0-231.0","","","2-1","3896","37","0","Testing","Stims/Figures/71-C-30-1.bmp","zasa:ha","Left","39","4","11","6A","C2","C","83"
"","","approach-retreat","232","4286438","0.0-232.0","","","2-1","3511","39","1","Testing","Stims/Figures/128-J-10-3.bmp","fa:sha:va","Right","39","4","12","6A","C1","C","84"
"","","approach-retreat","233","4291517","0.0-233.0","","","2-1","3574","40","1","Testing","Stims/Figures/87-J-10-4.bmp","va:sha:va","Down","40","4","13","6A","C1","C","85"
"","","approach-retreat","234","4296582","0.0-234.0","","","2-1","3559","40","1","Testing","Stims/Figures/84-C-20-2.bmp","sa:sa:za","Up","40","4","14","6A","C2","C","86"
"","","approach-retreat","235","4301703","0.0-235.0","","","2-1","3616","40","0","Testing","Stims/Figures/71-J-0-1.bmp","va:fasha","Up","38","4","15","6A","C1","C","87"
"","","approach-retreat","236","4307182","0.0-236.0","","","2-1","3974","37","1","Testing","Stims/Figures/84-J-0-2.bmp","va:sha:sha","Left","37","4","16","6A","C1","C","88"
"","","approach-retreat","237","4312606","0.0-237.0","","","2-1","3919","38","0","Testing","Stims/Figures/85-J-0-2.bmp","fa:fa:sha","Down","40","4","17","6A","C1","C","89"
"","","approach-retreat","238","4317887","0.0-238.0","","","2-1","3776","40","0","Testing","Stims/Figures/100-C-30-3.bmp","zaha:ha","Down","38","4","18","6A","C2","C","90"
"","","approach-retreat","239","4322895","0.0-239.0","","","2-1","3503","37","1","Testing","Stims/Figures/44-C-30-3.bmp","sa:haha","Right","37","4","19","6A","C2","C","91"
"","","approach-retreat","240","4328150","0.0-240.0","","","2-1","3750","37","1","Testing","Stims/Figures/118-C-20-2.bmp","sasa:ha","Right","37","4","20","6A","C2","C","92"
"","","approach-retreat","241","4333574","0.0-241.0","","","2-1","3919","39","1","Testing","Stims/Figures/27-C-30-1.bmp","za:sa:ha","Left","39","4","21","6A","C2","C","93"
"","","approach-retreat","242","4338623","0.0-242.0","","","2-1","3544","39","0","Testing","Stims/Figures/100-J-10-3.bmp","fa:shasha","Left","37","4","22","6A","C1","C","94"
"","","approach-retreat","243","4343910","0.0-243.0","","","2-1","3782","38","0","Testing","Stims/Figures/93-J-0-1.bmp","va:fa:va","Down","40","4","23","6A","C1","C","95"
"","","approach-retreat","244","4349182","0.0-244.0","","","2-1","3767","37","0","Testing","Stims/Figures/27-J-0-1.bmp","vafasha","Right","39","4","24","6A","C1","C","96"
"102273","","survey-text","245","4451462","0.0-245.0","","{""Q0"":""00642018""}","","","","","","","","","","","","","","",""
