\"rt\",\"key_press\",\"trial_type\",\"trial_index\",\"time_elapsed\",\"internal_node_id\",\"view_history\",\"responses\",\"Id\",\"Rt\",\"ResKeyCode\",\"ResCorr\",\"TrialType2\",\"Image\",\"Label\",\"Location\",\"CorrectResponse\",\"Block\",\"BlockTrial\",\"Condition\",\"LabelType\",\"Subcondition\",\"trialNum\"
\"2814\",\"32\",\"text\",\"0\",\"2820\",\"0.0-0.0-0.0\",\"\",\"\",\"\",\"\",\"\",\"\",\"\",\"\",\"\",\"\",\"\",\"\",\"\",\"\",\"\",\"\",\"\"
\"1873\",\"\",\"instructions\",\"1\",\"4700\",\"0.0-1.0\",\"[{\"\"page_index\"\":0,\"\"viewing_time\"\":1870}]\",\"\",\"\",\"\",\"\",\"\",\"\",\"\",\"\",\"\",\"\",\"\",\"\",\"\",\"\",\"\",\"\"
\"8795\",\"\",\"survey-multi-choice\",\"2\",\"13544\",\"0.0-2.0\",\"\",\"{\"\"Q0\"\":\"\"Da\"\",\"\"Q1\"\":\"\"Da\"\",\"\"Q2\"\":\"\"Da\"\",\"\"Q3\"\":\"\"Da\"\",\"\"Q4\"\":\"\"Da\"\",\"\"Q5\"\":\"\"Da\"\"}\",\"\",\"\",\"\",\"\",\"\",\"\",\"\",\"\",\"\",\"\",\"\",\"\",\"\",\"\",\"\"
\"\",\"\",\"bio\",\"3\",\"24760\",\"0.0-3.0\",\"\",\"{\"\"age\"\":\"\"20\"\",\"\"gender\"\":\"\"f\"\",\"\"specify\"\":\"\"\"\"}\",\"\",\"\",\"\",\"\",\"\",\"\",\"\",\"\",\"\",\"\",\"\",\"\",\"\",\"\",\"\"
\"\",\"\",\"approach-retreat\",\"4\",\"30949\",\"0.0-4.0\",\"\",\"\",\"1-4\",\"4676\",\"38\",\"0\",\"Training\",\"Stims/Figures/74-C-20-4.bmp\",\"ta:ka:ka\",\"Up\",\"40\",\"1\",\"1\",\"2\",\"P\",\"C\",\"1\"
\"\",\"\",\"approach-retreat\",\"5\",\"36587\",\"0.0-5.0\",\"\",\"\",\"1-4\",\"4127\",\"38\",\"1\",\"Training\",\"Stims/Figures/118-C-20-2.bmp\",\"ta:ka:ka\",\"Down\",\"38\",\"1\",\"2\",\"2\",\"P\",\"C\",\"2\"
\"\",\"\",\"approach-retreat\",\"6\",\"43172\",\"0.0-6.0\",\"\",\"\",\"1-4\",\"5077\",\"39\",\"1\",\"Training\",\"Stims/Figures/111-C-30-3.bmp\",\"ta:ka:ka\",\"Left\",\"39\",\"1\",\"3\",\"2\",\"P\",\"C\",\"3\"
\"\",\"\",\"approach-retreat\",\"7\",\"48428\",\"0.0-7.0\",\"\",\"\",\"1-4\",\"3748\",\"38\",\"1\",\"Training\",\"Stims/Figures/57-C-30-1.bmp\",\"ta:ka:ka\",\"Down\",\"38\",\"1\",\"4\",\"2\",\"P\",\"C\",\"4\"
\"\",\"\",\"approach-retreat\",\"8\",\"55996\",\"0.0-8.0\",\"\",\"\",\"1-4\",\"6061\",\"39\",\"1\",\"Training\",\"Stims/Figures/85-J-0-2.bmp\",\"ma:la:na\",\"Right\",\"39\",\"1\",\"5\",\"2\",\"S\",\"C\",\"5\"
\"\",\"\",\"approach-retreat\",\"9\",\"61707\",\"0.0-9.0\",\"\",\"\",\"1-4\",\"4203\",\"37\",\"1\",\"Training\",\"Stims/Figures/93-C-30-1.bmp\",\"ta:ka:ka\",\"Right\",\"37\",\"1\",\"6\",\"2\",\"P\",\"C\",\"6\"
\"\",\"\",\"approach-retreat\",\"10\",\"67052\",\"0.0-10.0\",\"\",\"\",\"1-4\",\"3837\",\"37\",\"1\",\"Training\",\"Stims/Figures/111-J-10-3.bmp\",\"ma:la:na\",\"Left\",\"37\",\"1\",\"7\",\"2\",\"S\",\"C\",\"7\"
\"\",\"\",\"approach-retreat\",\"11\",\"72516\",\"0.0-11.0\",\"\",\"\",\"1-4\",\"3955\",\"39\",\"1\",\"Training\",\"Stims/Figures/74-J-10-4.bmp\",\"ma:la:na\",\"Right\",\"39\",\"1\",\"8\",\"2\",\"S\",\"C\",\"8\"
\"\",\"\",\"approach-retreat\",\"12\",\"78068\",\"0.0-12.0\",\"\",\"\",\"1-4\",\"4044\",\"40\",\"0\",\"Training\",\"Stims/Figures/19-J-10-4.bmp\",\"ma:la:na\",\"Up\",\"38\",\"1\",\"9\",\"2\",\"S\",\"C\",\"9\"
\"\",\"\",\"approach-retreat\",\"13\",\"83109\",\"0.0-13.0\",\"\",\"\",\"1-4\",\"3535\",\"38\",\"1\",\"Training\",\"Stims/Figures/100-C-30-3.bmp\",\"ta:ka:ka\",\"Down\",\"38\",\"1\",\"10\",\"2\",\"P\",\"C\",\"10\"
\"\",\"\",\"approach-retreat\",\"14\",\"88940\",\"0.0-14.0\",\"\",\"\",\"1-4\",\"4324\",\"37\",\"0\",\"Training\",\"Stims/Figures/118-J-0-2.bmp\",\"ma:la:na\",\"Right\",\"39\",\"1\",\"11\",\"2\",\"S\",\"C\",\"11\"
\"\",\"\",\"approach-retreat\",\"15\",\"94316\",\"0.0-15.0\",\"\",\"\",\"1-4\",\"3869\",\"38\",\"1\",\"Training\",\"Stims/Figures/100-J-10-3.bmp\",\"ma:la:na\",\"Up\",\"38\",\"1\",\"12\",\"2\",\"S\",\"C\",\"12\"
\"\",\"\",\"approach-retreat\",\"16\",\"99571\",\"0.0-16.0\",\"\",\"\",\"1-4\",\"3748\",\"39\",\"1\",\"Training\",\"Stims/Figures/85-C-20-2.bmp\",\"ta:ka:ka\",\"Left\",\"39\",\"1\",\"13\",\"2\",\"P\",\"C\",\"13\"
\"\",\"\",\"approach-retreat\",\"17\",\"105796\",\"0.0-17.0\",\"\",\"\",\"1-4\",\"4716\",\"40\",\"0\",\"Training\",\"Stims/Figures/19-C-20-4.bmp\",\"ta:ka:ka\",\"Down\",\"38\",\"1\",\"14\",\"2\",\"P\",\"C\",\"14\"
\"\",\"\",\"approach-retreat\",\"18\",\"111578\",\"0.0-18.0\",\"\",\"\",\"1-4\",\"4271\",\"37\",\"1\",\"Training\",\"Stims/Figures/93-J-0-1.bmp\",\"ma:la:na\",\"Left\",\"37\",\"1\",\"15\",\"2\",\"S\",\"C\",\"15\"
\"\",\"\",\"approach-retreat\",\"19\",\"117108\",\"0.0-19.0\",\"\",\"\",\"1-4\",\"4021\",\"38\",\"1\",\"Training\",\"Stims/Figures/57-J-0-1.bmp\",\"ma:la:na\",\"Up\",\"38\",\"1\",\"16\",\"2\",\"S\",\"C\",\"16\"
\"\",\"\",\"approach-retreat\",\"20\",\"122140\",\"0.0-20.0\",\"\",\"\",\"1-4\",\"3524\",\"40\",\"0\",\"Training\",\"Stims/Figures/100-J-10-3.bmp\",\"ma:la:na\",\"Up\",\"38\",\"2\",\"1\",\"2\",\"S\",\"C\",\"17\"
\"\",\"\",\"approach-retreat\",\"21\",\"127627\",\"0.0-21.0\",\"\",\"\",\"1-4\",\"3980\",\"40\",\"1\",\"Training\",\"Stims/Figures/85-C-20-2.bmp\",\"ta:ka:ka\",\"Up\",\"40\",\"2\",\"2\",\"2\",\"P\",\"C\",\"18\"
\"\",\"\",\"approach-retreat\",\"22\",\"133130\",\"0.0-22.0\",\"\",\"\",\"1-4\",\"3996\",\"40\",\"1\",\"Training\",\"Stims/Figures/74-J-10-4.bmp\",\"ma:la:na\",\"Down\",\"40\",\"2\",\"3\",\"2\",\"S\",\"C\",\"19\"
\"\",\"\",\"approach-retreat\",\"23\",\"138908\",\"0.0-23.0\",\"\",\"\",\"1-4\",\"4269\",\"39\",\"1\",\"Training\",\"Stims/Figures/74-C-20-4.bmp\",\"ta:ka:ka\",\"Left\",\"39\",\"2\",\"4\",\"2\",\"P\",\"C\",\"20\"
\"\",\"\",\"approach-retreat\",\"24\",\"144338\",\"0.0-24.0\",\"\",\"\",\"1-4\",\"3923\",\"39\",\"1\",\"Training\",\"Stims/Figures/118-C-20-2.bmp\",\"ta:ka:ka\",\"Left\",\"39\",\"2\",\"5\",\"2\",\"P\",\"C\",\"21\"
\"\",\"\",\"approach-retreat\",\"25\",\"151787\",\"0.0-25.0\",\"\",\"\",\"1-4\",\"5939\",\"37\",\"1\",\"Training\",\"Stims/Figures/57-J-0-1.bmp\",\"ma:la:na\",\"Left\",\"37\",\"2\",\"6\",\"2\",\"S\",\"C\",\"22\"
\"\",\"\",\"approach-retreat\",\"26\",\"157970\",\"0.0-26.0\",\"\",\"\",\"1-4\",\"4677\",\"39\",\"0\",\"Training\",\"Stims/Figures/100-C-30-3.bmp\",\"ta:ka:ka\",\"Right\",\"37\",\"2\",\"7\",\"2\",\"P\",\"C\",\"23\"
\"\",\"\",\"approach-retreat\",\"27\",\"163737\",\"0.0-27.0\",\"\",\"\",\"1-4\",\"4261\",\"37\",\"0\",\"Training\",\"Stims/Figures/93-J-0-1.bmp\",\"ma:la:na\",\"Right\",\"39\",\"2\",\"8\",\"2\",\"S\",\"C\",\"24\"
\"\",\"\",\"approach-retreat\",\"28\",\"169254\",\"0.0-28.0\",\"\",\"\",\"1-4\",\"4010\",\"40\",\"0\",\"Training\",\"Stims/Figures/111-J-10-3.bmp\",\"ma:la:na\",\"Up\",\"38\",\"2\",\"9\",\"2\",\"S\",\"C\",\"25\"
\"\",\"\",\"approach-retreat\",\"29\",\"174266\",\"0.0-29.0\",\"\",\"\",\"1-4\",\"3505\",\"40\",\"0\",\"Training\",\"Stims/Figures/85-J-0-2.bmp\",\"ma:la:na\",\"Up\",\"38\",\"2\",\"10\",\"2\",\"S\",\"C\",\"26\"
\"\",\"\",\"approach-retreat\",\"30\",\"186847\",\"0.0-30.0\",\"\",\"\",\"1-4\",\"11072\",\"39\",\"1\",\"Training\",\"Stims/Figures/118-J-0-2.bmp\",\"ma:la:na\",\"Right\",\"39\",\"2\",\"11\",\"2\",\"S\",\"C\",\"27\"
\"\",\"\",\"approach-retreat\",\"31\",\"195375\",\"0.0-31.0\",\"\",\"\",\"1-4\",\"7020\",\"38\",\"1\",\"Training\",\"Stims/Figures/93-C-30-1.bmp\",\"ta:ka:ka\",\"Down\",\"38\",\"2\",\"12\",\"2\",\"P\",\"C\",\"28\"
\"\",\"\",\"approach-retreat\",\"32\",\"201357\",\"0.0-32.0\",\"\",\"\",\"1-4\",\"4476\",\"40\",\"0\",\"Training\",\"Stims/Figures/111-C-30-3.bmp\",\"ta:ka:ka\",\"Down\",\"38\",\"2\",\"13\",\"2\",\"P\",\"C\",\"29\"
\"\",\"\",\"approach-retreat\",\"33\",\"206632\",\"0.0-33.0\",\"\",\"\",\"1-4\",\"3766\",\"39\",\"1\",\"Training\",\"Stims/Figures/19-C-20-4.bmp\",\"ta:ka:ka\",\"Left\",\"39\",\"2\",\"14\",\"2\",\"P\",\"C\",\"30\"
\"\",\"\",\"approach-retreat\",\"34\",\"211958\",\"0.0-34.0\",\"\",\"\",\"1-4\",\"3818\",\"37\",\"0\",\"Training\",\"Stims/Figures/19-J-10-4.bmp\",\"ma:la:na\",\"Right\",\"39\",\"2\",\"15\",\"2\",\"S\",\"C\",\"31\"
\"\",\"\",\"approach-retreat\",\"35\",\"217398\",\"0.0-35.0\",\"\",\"\",\"1-4\",\"3933\",\"38\",\"1\",\"Training\",\"Stims/Figures/57-C-30-1.bmp\",\"ta:ka:ka\",\"Down\",\"38\",\"2\",\"16\",\"2\",\"P\",\"C\",\"32\"
\"\",\"\",\"approach-retreat\",\"36\",\"224062\",\"0.0-36.0\",\"\",\"\",\"1-4\",\"5158\",\"39\",\"0\",\"Training\",\"Stims/Figures/93-C-30-1.bmp\",\"ta:ka:ka\",\"Right\",\"37\",\"3\",\"1\",\"2\",\"P\",\"C\",\"33\"
\"\",\"\",\"approach-retreat\",\"37\",\"229969\",\"0.0-37.0\",\"\",\"\",\"1-4\",\"4402\",\"39\",\"0\",\"Training\",\"Stims/Figures/19-C-20-4.bmp\",\"ta:ka:ka\",\"Right\",\"37\",\"3\",\"2\",\"2\",\"P\",\"C\",\"34\"
\"\",\"\",\"approach-retreat\",\"38\",\"235568\",\"0.0-38.0\",\"\",\"\",\"1-4\",\"4093\",\"37\",\"0\",\"Training\",\"Stims/Figures/118-J-0-2.bmp\",\"ma:la:na\",\"Right\",\"39\",\"3\",\"3\",\"2\",\"S\",\"C\",\"35\"
\"\",\"\",\"approach-retreat\",\"39\",\"240602\",\"0.0-39.0\",\"\",\"\",\"1-4\",\"3526\",\"40\",\"0\",\"Training\",\"Stims/Figures/74-C-20-4.bmp\",\"ta:ka:ka\",\"Down\",\"38\",\"3\",\"4\",\"2\",\"P\",\"C\",\"36\"
\"\",\"\",\"approach-retreat\",\"40\",\"248721\",\"0.0-40.0\",\"\",\"\",\"1-4\",\"6612\",\"40\",\"1\",\"Training\",\"Stims/Figures/100-J-10-3.bmp\",\"ma:la:na\",\"Down\",\"40\",\"3\",\"5\",\"2\",\"S\",\"C\",\"37\"
\"\",\"\",\"approach-retreat\",\"41\",\"256065\",\"0.0-41.0\",\"\",\"\",\"1-4\",\"5837\",\"39\",\"1\",\"Training\",\"Stims/Figures/19-J-10-4.bmp\",\"ma:la:na\",\"Right\",\"39\",\"3\",\"6\",\"2\",\"S\",\"C\",\"38\"
\"\",\"\",\"approach-retreat\",\"42\",\"261600\",\"0.0-42.0\",\"\",\"\",\"1-4\",\"4029\",\"40\",\"0\",\"Training\",\"Stims/Figures/93-J-0-1.bmp\",\"ma:la:na\",\"Up\",\"38\",\"3\",\"7\",\"2\",\"S\",\"C\",\"39\"
\"\",\"\",\"approach-retreat\",\"43\",\"266744\",\"0.0-43.0\",\"\",\"\",\"1-4\",\"3637\",\"40\",\"0\",\"Training\",\"Stims/Figures/57-J-0-1.bmp\",\"ma:la:na\",\"Up\",\"38\",\"3\",\"8\",\"2\",\"S\",\"C\",\"40\"
\"\",\"\",\"approach-retreat\",\"44\",\"272079\",\"0.0-44.0\",\"\",\"\",\"1-4\",\"3829\",\"38\",\"0\",\"Training\",\"Stims/Figures/85-J-0-2.bmp\",\"ma:la:na\",\"Down\",\"40\",\"3\",\"9\",\"2\",\"S\",\"C\",\"41\"
\"\",\"\",\"approach-retreat\",\"45\",\"277305\",\"0.0-45.0\",\"\",\"\",\"1-4\",\"3718\",\"37\",\"0\",\"Training\",\"Stims/Figures/57-C-30-1.bmp\",\"ta:ka:ka\",\"Left\",\"39\",\"3\",\"10\",\"2\",\"P\",\"C\",\"42\"
\"\",\"\",\"approach-retreat\",\"46\",\"283889\",\"0.0-46.0\",\"\",\"\",\"1-4\",\"5077\",\"37\",\"1\",\"Training\",\"Stims/Figures/111-J-10-3.bmp\",\"ma:la:na\",\"Left\",\"37\",\"3\",\"11\",\"2\",\"S\",\"C\",\"43\"
\"\",\"\",\"approach-retreat\",\"47\",\"290648\",\"0.0-47.0\",\"\",\"\",\"1-4\",\"5252\",\"37\",\"0\",\"Training\",\"Stims/Figures/100-C-30-3.bmp\",\"ta:ka:ka\",\"Left\",\"39\",\"3\",\"12\",\"2\",\"P\",\"C\",\"44\"
\"\",\"\",\"approach-retreat\",\"48\",\"297840\",\"0.0-48.0\",\"\",\"\",\"1-4\",\"5684\",\"40\",\"1\",\"Training\",\"Stims/Figures/111-C-30-3.bmp\",\"ta:ka:ka\",\"Up\",\"40\",\"3\",\"13\",\"2\",\"P\",\"C\",\"45\"
\"\",\"\",\"approach-retreat\",\"49\",\"303657\",\"0.0-49.0\",\"\",\"\",\"1-4\",\"4311\",\"40\",\"0\",\"Training\",\"Stims/Figures/118-C-20-2.bmp\",\"ta:ka:ka\",\"Down\",\"38\",\"3\",\"14\",\"2\",\"P\",\"C\",\"46\"
\"\",\"\",\"approach-retreat\",\"50\",\"309720\",\"0.0-50.0\",\"\",\"\",\"1-4\",\"4556\",\"40\",\"0\",\"Training\",\"Stims/Figures/74-J-10-4.bmp\",\"ma:la:na\",\"Up\",\"38\",\"3\",\"15\",\"2\",\"S\",\"C\",\"47\"
\"\",\"\",\"approach-retreat\",\"51\",\"316104\",\"0.0-51.0\",\"\",\"\",\"1-4\",\"4877\",\"37\",\"0\",\"Training\",\"Stims/Figures/85-C-20-2.bmp\",\"ta:ka:ka\",\"Left\",\"39\",\"3\",\"16\",\"2\",\"P\",\"C\",\"48\"
\"\",\"\",\"approach-retreat\",\"52\",\"321265\",\"0.0-52.0\",\"\",\"\",\"1-4\",\"3653\",\"38\",\"1\",\"Training\",\"Stims/Figures/100-J-10-3.bmp\",\"ma:la:na\",\"Up\",\"38\",\"4\",\"1\",\"2\",\"S\",\"C\",\"49\"
\"\",\"\",\"approach-retreat\",\"53\",\"327039\",\"0.0-53.0\",\"\",\"\",\"1-4\",\"4263\",\"37\",\"1\",\"Training\",\"Stims/Figures/85-J-0-2.bmp\",\"ma:la:na\",\"Left\",\"37\",\"4\",\"2\",\"2\",\"S\",\"C\",\"50\"
\"\",\"\",\"approach-retreat\",\"54\",\"332808\",\"0.0-54.0\",\"\",\"\",\"1-4\",\"4262\",\"40\",\"1\",\"Training\",\"Stims/Figures/118-J-0-2.bmp\",\"ma:la:na\",\"Down\",\"40\",\"4\",\"3\",\"2\",\"S\",\"C\",\"51\"
\"\",\"\",\"approach-retreat\",\"55\",\"340416\",\"0.0-55.0\",\"\",\"\",\"1-4\",\"6102\",\"37\",\"0\",\"Training\",\"Stims/Figures/118-C-20-2.bmp\",\"ta:ka:ka\",\"Left\",\"39\",\"4\",\"4\",\"2\",\"P\",\"C\",\"52\"
\"\",\"\",\"approach-retreat\",\"56\",\"346747\",\"0.0-56.0\",\"\",\"\",\"1-4\",\"4822\",\"37\",\"1\",\"Training\",\"Stims/Figures/74-J-10-4.bmp\",\"ma:la:na\",\"Left\",\"37\",\"4\",\"5\",\"2\",\"S\",\"C\",\"53\"
\"\",\"\",\"approach-retreat\",\"57\",\"352451\",\"0.0-57.0\",\"\",\"\",\"1-4\",\"4197\",\"37\",\"1\",\"Training\",\"Stims/Figures/111-C-30-3.bmp\",\"ta:ka:ka\",\"Right\",\"37\",\"4\",\"6\",\"2\",\"P\",\"C\",\"54\"
\"\",\"\",\"approach-retreat\",\"58\",\"358475\",\"0.0-58.0\",\"\",\"\",\"1-4\",\"4517\",\"38\",\"0\",\"Training\",\"Stims/Figures/85-C-20-2.bmp\",\"ta:ka:ka\",\"Up\",\"40\",\"4\",\"7\",\"2\",\"P\",\"C\",\"55\"
\"\",\"\",\"approach-retreat\",\"59\",\"364652\",\"0.0-59.0\",\"\",\"\",\"1-4\",\"4670\",\"37\",\"1\",\"Training\",\"Stims/Figures/74-C-20-4.bmp\",\"ta:ka:ka\",\"Right\",\"37\",\"4\",\"8\",\"2\",\"P\",\"C\",\"56\"
\"\",\"\",\"approach-retreat\",\"60\",\"370611\",\"0.0-60.0\",\"\",\"\",\"1-4\",\"4452\",\"37\",\"1\",\"Training\",\"Stims/Figures/19-J-10-4.bmp\",\"ma:la:na\",\"Left\",\"37\",\"4\",\"9\",\"2\",\"S\",\"C\",\"57\"
\"\",\"\",\"approach-retreat\",\"61\",\"377636\",\"0.0-61.0\",\"\",\"\",\"1-4\",\"5519\",\"38\",\"1\",\"Training\",\"Stims/Figures/100-C-30-3.bmp\",\"ta:ka:ka\",\"Down\",\"38\",\"4\",\"10\",\"2\",\"P\",\"C\",\"58\"
\"\",\"\",\"approach-retreat\",\"62\",\"383147\",\"0.0-62.0\",\"\",\"\",\"1-4\",\"4005\",\"38\",\"1\",\"Training\",\"Stims/Figures/57-C-30-1.bmp\",\"ta:ka:ka\",\"Down\",\"38\",\"4\",\"11\",\"2\",\"P\",\"C\",\"59\"
\"\",\"\",\"approach-retreat\",\"63\",\"389226\",\"0.0-63.0\",\"\",\"\",\"1-4\",\"4572\",\"37\",\"0\",\"Training\",\"Stims/Figures/111-J-10-3.bmp\",\"ma:la:na\",\"Right\",\"39\",\"4\",\"12\",\"2\",\"S\",\"C\",\"60\"
\"\",\"\",\"approach-retreat\",\"64\",\"394420\",\"0.0-64.0\",\"\",\"\",\"1-4\",\"3685\",\"38\",\"0\",\"Training\",\"Stims/Figures/19-C-20-4.bmp\",\"ta:ka:ka\",\"Up\",\"40\",\"4\",\"13\",\"2\",\"P\",\"C\",\"61\"
\"\",\"\",\"approach-retreat\",\"65\",\"400530\",\"0.0-65.0\",\"\",\"\",\"1-4\",\"4603\",\"38\",\"0\",\"Training\",\"Stims/Figures/57-J-0-1.bmp\",\"ma:la:na\",\"Down\",\"40\",\"4\",\"14\",\"2\",\"S\",\"C\",\"62\"
\"\",\"\",\"approach-retreat\",\"66\",\"407248\",\"0.0-66.0\",\"\",\"\",\"1-4\",\"5211\",\"39\",\"1\",\"Training\",\"Stims/Figures/93-J-0-1.bmp\",\"ma:la:na\",\"Right\",\"39\",\"4\",\"15\",\"2\",\"S\",\"C\",\"63\"
\"\",\"\",\"approach-retreat\",\"67\",\"413377\",\"0.0-67.0\",\"\",\"\",\"1-4\",\"4622\",\"38\",\"0\",\"Training\",\"Stims/Figures/93-C-30-1.bmp\",\"ta:ka:ka\",\"Up\",\"40\",\"4\",\"16\",\"2\",\"P\",\"C\",\"64\"
\"\",\"\",\"approach-retreat\",\"68\",\"420624\",\"0.0-68.0\",\"\",\"\",\"1-4\",\"5741\",\"38\",\"1\",\"Training\",\"Stims/Figures/57-J-0-1.bmp\",\"ma:la:na\",\"Up\",\"38\",\"5\",\"1\",\"2\",\"S\",\"C\",\"65\"
\"\",\"\",\"approach-retreat\",\"69\",\"428062\",\"0.0-69.0\",\"\",\"\",\"1-4\",\"5931\",\"37\",\"1\",\"Training\",\"Stims/Figures/93-C-30-1.bmp\",\"ta:ka:ka\",\"Right\",\"37\",\"5\",\"2\",\"2\",\"P\",\"C\",\"66\"
\"\",\"\",\"approach-retreat\",\"70\",\"433639\",\"0.0-70.0\",\"\",\"\",\"1-4\",\"4070\",\"37\",\"0\",\"Training\",\"Stims/Figures/111-J-10-3.bmp\",\"ma:la:na\",\"Right\",\"39\",\"5\",\"3\",\"2\",\"S\",\"C\",\"67\"
\"\",\"\",\"approach-retreat\",\"71\",\"439095\",\"0.0-71.0\",\"\",\"\",\"1-4\",\"3950\",\"37\",\"1\",\"Training\",\"Stims/Figures/57-C-30-1.bmp\",\"ta:ka:ka\",\"Right\",\"37\",\"5\",\"4\",\"2\",\"P\",\"C\",\"68\"
\"\",\"\",\"approach-retreat\",\"72\",\"447135\",\"0.0-72.0\",\"\",\"\",\"1-4\",\"6533\",\"37\",\"0\",\"Training\",\"Stims/Figures/100-C-30-3.bmp\",\"ta:ka:ka\",\"Left\",\"39\",\"5\",\"5\",\"2\",\"P\",\"C\",\"69\"
\"\",\"\",\"approach-retreat\",\"73\",\"453062\",\"0.0-73.0\",\"\",\"\",\"1-4\",\"4421\",\"39\",\"1\",\"Training\",\"Stims/Figures/19-C-20-4.bmp\",\"ta:ka:ka\",\"Left\",\"39\",\"5\",\"6\",\"2\",\"P\",\"C\",\"70\"
\"\",\"\",\"approach-retreat\",\"74\",\"459942\",\"0.0-74.0\",\"\",\"\",\"1-4\",\"5373\",\"40\",\"0\",\"Training\",\"Stims/Figures/93-J-0-1.bmp\",\"ma:la:na\",\"Up\",\"38\",\"5\",\"7\",\"2\",\"S\",\"C\",\"71\"
\"\",\"\",\"approach-retreat\",\"75\",\"465614\",\"0.0-75.0\",\"\",\"\",\"1-4\",\"4165\",\"39\",\"0\",\"Training\",\"Stims/Figures/118-J-0-2.bmp\",\"ma:la:na\",\"Left\",\"37\",\"5\",\"8\",\"2\",\"S\",\"C\",\"72\"
\"\",\"\",\"approach-retreat\",\"76\",\"471128\",\"0.0-76.0\",\"\",\"\",\"1-4\",\"4005\",\"40\",\"1\",\"Training\",\"Stims/Figures/100-J-10-3.bmp\",\"ma:la:na\",\"Down\",\"40\",\"5\",\"9\",\"2\",\"S\",\"C\",\"73\"
\"\",\"\",\"approach-retreat\",\"77\",\"476623\",\"0.0-77.0\",\"\",\"\",\"1-4\",\"3988\",\"38\",\"0\",\"Training\",\"Stims/Figures/74-J-10-4.bmp\",\"ma:la:na\",\"Down\",\"40\",\"5\",\"10\",\"2\",\"S\",\"C\",\"74\"
\"\",\"\",\"approach-retreat\",\"78\",\"482816\",\"0.0-78.0\",\"\",\"\",\"1-4\",\"4686\",\"40\",\"1\",\"Training\",\"Stims/Figures/111-C-30-3.bmp\",\"ta:ka:ka\",\"Up\",\"40\",\"5\",\"11\",\"2\",\"P\",\"C\",\"75\"
\"\",\"\",\"approach-retreat\",\"79\",\"488671\",\"0.0-79.0\",\"\",\"\",\"1-4\",\"4348\",\"40\",\"1\",\"Training\",\"Stims/Figures/118-C-20-2.bmp\",\"ta:ka:ka\",\"Up\",\"40\",\"5\",\"12\",\"2\",\"P\",\"C\",\"76\"
\"\",\"\",\"approach-retreat\",\"80\",\"494408\",\"0.0-80.0\",\"\",\"\",\"1-4\",\"4230\",\"38\",\"0\",\"Training\",\"Stims/Figures/85-J-0-2.bmp\",\"ma:la:na\",\"Down\",\"40\",\"5\",\"13\",\"2\",\"S\",\"C\",\"77\"
\"\",\"\",\"approach-retreat\",\"81\",\"500759\",\"0.0-81.0\",\"\",\"\",\"1-4\",\"4844\",\"39\",\"0\",\"Training\",\"Stims/Figures/19-J-10-4.bmp\",\"ma:la:na\",\"Left\",\"37\",\"5\",\"14\",\"2\",\"S\",\"C\",\"78\"
\"\",\"\",\"approach-retreat\",\"82\",\"507567\",\"0.0-82.0\",\"\",\"\",\"1-4\",\"5300\",\"39\",\"0\",\"Training\",\"Stims/Figures/85-C-20-2.bmp\",\"ta:ka:ka\",\"Right\",\"37\",\"5\",\"15\",\"2\",\"P\",\"C\",\"79\"
\"\",\"\",\"approach-retreat\",\"83\",\"513352\",\"0.0-83.0\",\"\",\"\",\"1-4\",\"4277\",\"38\",\"1\",\"Training\",\"Stims/Figures/74-C-20-4.bmp\",\"ta:ka:ka\",\"Down\",\"38\",\"5\",\"16\",\"2\",\"P\",\"C\",\"80\"
\"\",\"\",\"approach-retreat\",\"84\",\"519288\",\"0.0-84.0\",\"\",\"\",\"1-4\",\"4429\",\"40\",\"1\",\"Training\",\"Stims/Figures/74-C-20-4.bmp\",\"ta:ka:ka\",\"Up\",\"40\",\"6\",\"1\",\"2\",\"P\",\"C\",\"81\"
\"\",\"\",\"approach-retreat\",\"85\",\"525190\",\"0.0-85.0\",\"\",\"\",\"1-4\",\"4396\",\"39\",\"1\",\"Training\",\"Stims/Figures/118-C-20-2.bmp\",\"ta:ka:ka\",\"Left\",\"39\",\"6\",\"2\",\"2\",\"P\",\"C\",\"82\"
\"\",\"\",\"approach-retreat\",\"86\",\"531935\",\"0.0-86.0\",\"\",\"\",\"1-4\",\"5237\",\"37\",\"0\",\"Training\",\"Stims/Figures/57-J-0-1.bmp\",\"ma:la:na\",\"Right\",\"39\",\"6\",\"3\",\"2\",\"S\",\"C\",\"83\"
\"\",\"\",\"approach-retreat\",\"87\",\"538086\",\"0.0-87.0\",\"\",\"\",\"1-4\",\"4645\",\"40\",\"0\",\"Training\",\"Stims/Figures/100-J-10-3.bmp\",\"ma:la:na\",\"Up\",\"38\",\"6\",\"4\",\"2\",\"S\",\"C\",\"84\"
\"\",\"\",\"approach-retreat\",\"88\",\"543806\",\"0.0-88.0\",\"\",\"\",\"1-4\",\"4212\",\"37\",\"0\",\"Training\",\"Stims/Figures/111-J-10-3.bmp\",\"ma:la:na\",\"Right\",\"39\",\"6\",\"5\",\"2\",\"S\",\"C\",\"85\"
\"\",\"\",\"approach-retreat\",\"89\",\"549640\",\"0.0-89.0\",\"\",\"\",\"1-4\",\"4326\",\"40\",\"0\",\"Training\",\"Stims/Figures/19-J-10-4.bmp\",\"ma:la:na\",\"Up\",\"38\",\"6\",\"6\",\"2\",\"S\",\"C\",\"86\"
\"\",\"\",\"approach-retreat\",\"90\",\"555511\",\"0.0-90.0\",\"\",\"\",\"1-4\",\"4364\",\"37\",\"1\",\"Training\",\"Stims/Figures/19-C-20-4.bmp\",\"ta:ka:ka\",\"Right\",\"37\",\"6\",\"7\",\"2\",\"P\",\"C\",\"87\"
\"\",\"\",\"approach-retreat\",\"91\",\"563590\",\"0.0-91.0\",\"\",\"\",\"1-4\",\"6573\",\"39\",\"0\",\"Training\",\"Stims/Figures/85-J-0-2.bmp\",\"ma:la:na\",\"Left\",\"37\",\"6\",\"8\",\"2\",\"S\",\"C\",\"88\"
\"\",\"\",\"approach-retreat\",\"92\",\"570023\",\"0.0-92.0\",\"\",\"\",\"1-4\",\"4926\",\"39\",\"0\",\"Training\",\"Stims/Figures/74-J-10-4.bmp\",\"ma:la:na\",\"Left\",\"37\",\"6\",\"9\",\"2\",\"S\",\"C\",\"89\"
\"\",\"\",\"approach-retreat\",\"93\",\"576303\",\"0.0-93.0\",\"\",\"\",\"1-4\",\"4772\",\"40\",\"1\",\"Training\",\"Stims/Figures/100-C-30-3.bmp\",\"ta:ka:ka\",\"Up\",\"40\",\"6\",\"10\",\"2\",\"P\",\"C\",\"90\"
\"\",\"\",\"approach-retreat\",\"94\",\"582143\",\"0.0-94.0\",\"\",\"\",\"1-4\",\"4334\",\"37\",\"1\",\"Training\",\"Stims/Figures/57-C-30-1.bmp\",\"ta:ka:ka\",\"Right\",\"37\",\"6\",\"11\",\"2\",\"P\",\"C\",\"91\"
\"\",\"\",\"approach-retreat\",\"95\",\"588598\",\"0.0-95.0\",\"\",\"\",\"1-4\",\"4949\",\"39\",\"0\",\"Training\",\"Stims/Figures/118-J-0-2.bmp\",\"ma:la:na\",\"Left\",\"37\",\"6\",\"12\",\"2\",\"S\",\"C\",\"92\"
\"\",\"\",\"approach-retreat\",\"96\",\"595372\",\"0.0-96.0\",\"\",\"\",\"1-4\",\"5265\",\"40\",\"0\",\"Training\",\"Stims/Figures/85-C-20-2.bmp\",\"ta:ka:ka\",\"Down\",\"38\",\"6\",\"13\",\"2\",\"P\",\"C\",\"93\"
\"\",\"\",\"approach-retreat\",\"97\",\"601493\",\"0.0-97.0\",\"\",\"\",\"1-4\",\"4614\",\"40\",\"1\",\"Training\",\"Stims/Figures/93-J-0-1.bmp\",\"ma:la:na\",\"Down\",\"40\",\"6\",\"14\",\"2\",\"S\",\"C\",\"94\"
\"\",\"\",\"approach-retreat\",\"98\",\"607317\",\"0.0-98.0\",\"\",\"\",\"1-4\",\"4316\",\"38\",\"1\",\"Training\",\"Stims/Figures/93-C-30-1.bmp\",\"ta:ka:ka\",\"Down\",\"38\",\"6\",\"15\",\"2\",\"P\",\"C\",\"95\"
\"\",\"\",\"approach-retreat\",\"99\",\"613772\",\"0.0-99.0\",\"\",\"\",\"1-4\",\"4948\",\"40\",\"0\",\"Training\",\"Stims/Figures/111-C-30-3.bmp\",\"ta:ka:ka\",\"Down\",\"38\",\"6\",\"16\",\"2\",\"P\",\"C\",\"96\"
\"\",\"\",\"approach-retreat\",\"100\",\"619829\",\"0.0-100.0\",\"\",\"\",\"1-4\",\"4550\",\"39\",\"0\",\"Training\",\"Stims/Figures/118-J-0-2.bmp\",\"ma:la:na\",\"Left\",\"37\",\"7\",\"1\",\"2\",\"S\",\"C\",\"97\"
\"\",\"\",\"approach-retreat\",\"101\",\"626531\",\"0.0-101.0\",\"\",\"\",\"1-4\",\"5195\",\"39\",\"1\",\"Training\",\"Stims/Figures/93-J-0-1.bmp\",\"ma:la:na\",\"Right\",\"39\",\"7\",\"2\",\"2\",\"S\",\"C\",\"98\"
\"\",\"\",\"approach-retreat\",\"102\",\"632756\",\"0.0-102.0\",\"\",\"\",\"1-4\",\"4719\",\"37\",\"1\",\"Training\",\"Stims/Figures/57-C-30-1.bmp\",\"ta:ka:ka\",\"Right\",\"37\",\"7\",\"3\",\"2\",\"P\",\"C\",\"99\"
\"\",\"\",\"approach-retreat\",\"103\",\"639115\",\"0.0-103.0\",\"\",\"\",\"1-4\",\"4853\",\"40\",\"1\",\"Training\",\"Stims/Figures/118-C-20-2.bmp\",\"ta:ka:ka\",\"Up\",\"40\",\"7\",\"4\",\"2\",\"P\",\"C\",\"100\"
\"\",\"\",\"approach-retreat\",\"104\",\"644915\",\"0.0-104.0\",\"\",\"\",\"1-4\",\"4291\",\"39\",\"1\",\"Training\",\"Stims/Figures/85-J-0-2.bmp\",\"ma:la:na\",\"Right\",\"39\",\"7\",\"5\",\"2\",\"S\",\"C\",\"101\"
\"\",\"\",\"approach-retreat\",\"105\",\"650971\",\"0.0-105.0\",\"\",\"\",\"1-4\",\"4549\",\"40\",\"0\",\"Training\",\"Stims/Figures/19-J-10-4.bmp\",\"ma:la:na\",\"Up\",\"38\",\"7\",\"6\",\"2\",\"S\",\"C\",\"102\"
\"\",\"\",\"approach-retreat\",\"106\",\"656622\",\"0.0-106.0\",\"\",\"\",\"1-4\",\"4144\",\"40\",\"0\",\"Training\",\"Stims/Figures/74-J-10-4.bmp\",\"ma:la:na\",\"Up\",\"38\",\"7\",\"7\",\"2\",\"S\",\"C\",\"103\"
\"\",\"\",\"approach-retreat\",\"107\",\"662798\",\"0.0-107.0\",\"\",\"\",\"1-4\",\"4669\",\"38\",\"1\",\"Training\",\"Stims/Figures/19-C-20-4.bmp\",\"ta:ka:ka\",\"Down\",\"38\",\"7\",\"8\",\"2\",\"P\",\"C\",\"104\"
\"\",\"\",\"approach-retreat\",\"108\",\"668358\",\"0.0-108.0\",\"\",\"\",\"1-4\",\"4053\",\"38\",\"1\",\"Training\",\"Stims/Figures/111-C-30-3.bmp\",\"ta:ka:ka\",\"Down\",\"38\",\"7\",\"9\",\"2\",\"P\",\"C\",\"105\"
\"\",\"\",\"approach-retreat\",\"109\",\"675519\",\"0.0-109.0\",\"\",\"\",\"1-4\",\"5654\",\"37\",\"1\",\"Training\",\"Stims/Figures/74-C-20-4.bmp\",\"ta:ka:ka\",\"Right\",\"37\",\"7\",\"10\",\"2\",\"P\",\"C\",\"106\"
\"\",\"\",\"approach-retreat\",\"110\",\"682319\",\"0.0-110.0\",\"\",\"\",\"1-4\",\"5292\",\"40\",\"1\",\"Training\",\"Stims/Figures/57-J-0-1.bmp\",\"ma:la:na\",\"Down\",\"40\",\"7\",\"11\",\"2\",\"S\",\"C\",\"107\"
\"\",\"\",\"approach-retreat\",\"111\",\"688079\",\"0.0-111.0\",\"\",\"\",\"1-4\",\"4252\",\"39\",\"1\",\"Training\",\"Stims/Figures/93-C-30-1.bmp\",\"ta:ka:ka\",\"Left\",\"39\",\"7\",\"12\",\"2\",\"P\",\"C\",\"108\"
\"\",\"\",\"approach-retreat\",\"112\",\"694030\",\"0.0-112.0\",\"\",\"\",\"1-4\",\"4443\",\"38\",\"1\",\"Training\",\"Stims/Figures/100-C-30-3.bmp\",\"ta:ka:ka\",\"Down\",\"38\",\"7\",\"13\",\"2\",\"P\",\"C\",\"109\"
\"\",\"\",\"approach-retreat\",\"113\",\"700061\",\"0.0-113.0\",\"\",\"\",\"1-4\",\"4524\",\"39\",\"1\",\"Training\",\"Stims/Figures/85-C-20-2.bmp\",\"ta:ka:ka\",\"Left\",\"39\",\"7\",\"14\",\"2\",\"P\",\"C\",\"110\"
\"\",\"\",\"approach-retreat\",\"114\",\"707069\",\"0.0-114.0\",\"\",\"\",\"1-4\",\"5502\",\"39\",\"0\",\"Training\",\"Stims/Figures/111-J-10-3.bmp\",\"ma:la:na\",\"Left\",\"37\",\"7\",\"15\",\"2\",\"S\",\"C\",\"111\"
\"\",\"\",\"approach-retreat\",\"115\",\"712294\",\"0.0-115.0\",\"\",\"\",\"1-4\",\"3718\",\"38\",\"1\",\"Training\",\"Stims/Figures/100-J-10-3.bmp\",\"ma:la:na\",\"Up\",\"38\",\"7\",\"16\",\"2\",\"S\",\"C\",\"112\"
\"\",\"\",\"approach-retreat\",\"116\",\"717919\",\"0.0-116.0\",\"\",\"\",\"1-4\",\"4118\",\"39\",\"1\",\"Training\",\"Stims/Figures/93-C-30-1.bmp\",\"ta:ka:ka\",\"Left\",\"39\",\"8\",\"1\",\"2\",\"P\",\"C\",\"113\"
\"\",\"\",\"approach-retreat\",\"117\",\"728679\",\"0.0-117.0\",\"\",\"\",\"1-4\",\"9253\",\"38\",\"0\",\"Training\",\"Stims/Figures/74-J-10-4.bmp\",\"ma:la:na\",\"Down\",\"40\",\"8\",\"2\",\"2\",\"S\",\"C\",\"114\"
\"\",\"\",\"approach-retreat\",\"118\",\"736087\",\"0.0-118.0\",\"\",\"\",\"1-4\",\"5902\",\"40\",\"0\",\"Training\",\"Stims/Figures/111-J-10-3.bmp\",\"ma:la:na\",\"Up\",\"38\",\"8\",\"3\",\"2\",\"S\",\"C\",\"115\"
\"\",\"\",\"approach-retreat\",\"119\",\"742024\",\"0.0-119.0\",\"\",\"\",\"1-4\",\"4428\",\"37\",\"1\",\"Training\",\"Stims/Figures/111-C-30-3.bmp\",\"ta:ka:ka\",\"Right\",\"37\",\"8\",\"4\",\"2\",\"P\",\"C\",\"116\"
\"\",\"\",\"approach-retreat\",\"120\",\"748327\",\"0.0-120.0\",\"\",\"\",\"1-4\",\"4796\",\"40\",\"1\",\"Training\",\"Stims/Figures/85-J-0-2.bmp\",\"ma:la:na\",\"Down\",\"40\",\"8\",\"5\",\"2\",\"S\",\"C\",\"117\"
\"\",\"\",\"approach-retreat\",\"121\",\"754151\",\"0.0-121.0\",\"\",\"\",\"1-4\",\"4317\",\"37\",\"1\",\"Training\",\"Stims/Figures/118-C-20-2.bmp\",\"ta:ka:ka\",\"Right\",\"37\",\"8\",\"6\",\"2\",\"P\",\"C\",\"118\"
\"\",\"\",\"approach-retreat\",\"122\",\"760366\",\"0.0-122.0\",\"\",\"\",\"1-4\",\"4709\",\"40\",\"1\",\"Training\",\"Stims/Figures/19-C-20-4.bmp\",\"ta:ka:ka\",\"Up\",\"40\",\"8\",\"7\",\"2\",\"P\",\"C\",\"119\"
\"\",\"\",\"approach-retreat\",\"123\",\"768552\",\"0.0-123.0\",\"\",\"\",\"1-4\",\"6678\",\"37\",\"1\",\"Training\",\"Stims/Figures/19-J-10-4.bmp\",\"ma:la:na\",\"Left\",\"37\",\"8\",\"8\",\"2\",\"S\",\"C\",\"120\"
\"\",\"\",\"approach-retreat\",\"124\",\"774414\",\"0.0-124.0\",\"\",\"\",\"1-4\",\"4356\",\"40\",\"1\",\"Training\",\"Stims/Figures/93-J-0-1.bmp\",\"ma:la:na\",\"Down\",\"40\",\"8\",\"9\",\"2\",\"S\",\"C\",\"121\"
\"\",\"\",\"approach-retreat\",\"125\",\"780311\",\"0.0-125.0\",\"\",\"\",\"1-4\",\"4390\",\"37\",\"1\",\"Training\",\"Stims/Figures/100-C-30-3.bmp\",\"ta:ka:ka\",\"Right\",\"37\",\"8\",\"10\",\"2\",\"P\",\"C\",\"122\"
\"\",\"\",\"approach-retreat\",\"126\",\"786846\",\"0.0-126.0\",\"\",\"\",\"1-4\",\"5030\",\"39\",\"0\",\"Training\",\"Stims/Figures/57-J-0-1.bmp\",\"ma:la:na\",\"Left\",\"37\",\"8\",\"11\",\"2\",\"S\",\"C\",\"123\"
\"\",\"\",\"approach-retreat\",\"127\",\"802479\",\"0.0-127.0\",\"\",\"\",\"1-4\",\"14126\",\"39\",\"1\",\"Training\",\"Stims/Figures/74-C-20-4.bmp\",\"ta:ka:ka\",\"Left\",\"39\",\"8\",\"12\",\"2\",\"P\",\"C\",\"124\"
\"\",\"\",\"approach-retreat\",\"128\",\"808869\",\"0.0-128.0\",\"\",\"\",\"1-4\",\"4884\",\"38\",\"1\",\"Training\",\"Stims/Figures/57-C-30-1.bmp\",\"ta:ka:ka\",\"Down\",\"38\",\"8\",\"13\",\"2\",\"P\",\"C\",\"125\"
\"\",\"\",\"approach-retreat\",\"129\",\"815006\",\"0.0-129.0\",\"\",\"\",\"1-4\",\"4630\",\"37\",\"0\",\"Training\",\"Stims/Figures/118-J-0-2.bmp\",\"ma:la:na\",\"Right\",\"39\",\"8\",\"14\",\"2\",\"S\",\"C\",\"126\"
\"\",\"\",\"approach-retreat\",\"130\",\"822197\",\"0.0-130.0\",\"\",\"\",\"1-4\",\"5685\",\"40\",\"1\",\"Training\",\"Stims/Figures/85-C-20-2.bmp\",\"ta:ka:ka\",\"Up\",\"40\",\"8\",\"15\",\"2\",\"P\",\"C\",\"127\"
\"\",\"\",\"approach-retreat\",\"131\",\"839935\",\"0.0-131.0\",\"\",\"\",\"1-4\",\"16236\",\"40\",\"0\",\"Training\",\"Stims/Figures/100-J-10-3.bmp\",\"ma:la:na\",\"Up\",\"38\",\"8\",\"16\",\"2\",\"S\",\"C\",\"128\"
\"\",\"\",\"approach-retreat\",\"132\",\"847022\",\"0.0-132.0\",\"\",\"\",\"1-4\",\"5577\",\"39\",\"1\",\"Training\",\"Stims/Figures/93-C-30-1.bmp\",\"ta:ka:ka\",\"Left\",\"39\",\"9\",\"1\",\"2\",\"P\",\"C\",\"129\"
\"\",\"\",\"approach-retreat\",\"133\",\"852880\",\"0.0-133.0\",\"\",\"\",\"1-4\",\"4351\",\"40\",\"1\",\"Training\",\"Stims/Figures/111-C-30-3.bmp\",\"ta:ka:ka\",\"Up\",\"40\",\"9\",\"2\",\"2\",\"P\",\"C\",\"130\"
\"\",\"\",\"approach-retreat\",\"134\",\"858415\",\"0.0-134.0\",\"\",\"\",\"1-4\",\"4027\",\"37\",\"1\",\"Training\",\"Stims/Figures/19-C-20-4.bmp\",\"ta:ka:ka\",\"Right\",\"37\",\"9\",\"3\",\"2\",\"P\",\"C\",\"131\"
\"\",\"\",\"approach-retreat\",\"135\",\"864685\",\"0.0-135.0\",\"\",\"\",\"1-4\",\"4762\",\"40\",\"0\",\"Training\",\"Stims/Figures/100-J-10-3.bmp\",\"ma:la:na\",\"Up\",\"38\",\"9\",\"4\",\"2\",\"S\",\"C\",\"132\"
\"\",\"\",\"approach-retreat\",\"136\",\"872262\",\"0.0-136.0\",\"\",\"\",\"1-4\",\"6069\",\"39\",\"1\",\"Training\",\"Stims/Figures/74-C-20-4.bmp\",\"ta:ka:ka\",\"Left\",\"39\",\"9\",\"5\",\"2\",\"P\",\"C\",\"133\"
\"\",\"\",\"approach-retreat\",\"137\",\"877991\",\"0.0-137.0\",\"\",\"\",\"1-4\",\"4223\",\"38\",\"0\",\"Training\",\"Stims/Figures/111-J-10-3.bmp\",\"ma:la:na\",\"Down\",\"40\",\"9\",\"6\",\"2\",\"S\",\"C\",\"134\"
\"\",\"\",\"approach-retreat\",\"138\",\"883720\",\"0.0-138.0\",\"\",\"\",\"1-4\",\"4221\",\"37\",\"1\",\"Training\",\"Stims/Figures/100-C-30-3.bmp\",\"ta:ka:ka\",\"Right\",\"37\",\"9\",\"7\",\"2\",\"P\",\"C\",\"135\"
\"\",\"\",\"approach-retreat\",\"139\",\"889741\",\"0.0-139.0\",\"\",\"\",\"1-4\",\"4514\",\"37\",\"0\",\"Training\",\"Stims/Figures/85-J-0-2.bmp\",\"ma:la:na\",\"Right\",\"39\",\"9\",\"8\",\"2\",\"S\",\"C\",\"136\"
\"\",\"\",\"approach-retreat\",\"140\",\"897069\",\"0.0-140.0\",\"\",\"\",\"1-4\",\"5821\",\"39\",\"0\",\"Training\",\"Stims/Figures/19-J-10-4.bmp\",\"ma:la:na\",\"Left\",\"37\",\"9\",\"9\",\"2\",\"S\",\"C\",\"137\"
\"\",\"\",\"approach-retreat\",\"141\",\"903294\",\"0.0-141.0\",\"\",\"\",\"1-4\",\"4718\",\"37\",\"0\",\"Training\",\"Stims/Figures/74-J-10-4.bmp\",\"ma:la:na\",\"Right\",\"39\",\"9\",\"10\",\"2\",\"S\",\"C\",\"138\"
\"\",\"\",\"approach-retreat\",\"142\",\"909064\",\"0.0-142.0\",\"\",\"\",\"1-4\",\"4261\",\"38\",\"1\",\"Training\",\"Stims/Figures/118-C-20-2.bmp\",\"ta:ka:ka\",\"Down\",\"38\",\"9\",\"11\",\"2\",\"P\",\"C\",\"139\"
\"\",\"\",\"approach-retreat\",\"143\",\"914990\",\"0.0-143.0\",\"\",\"\",\"1-4\",\"4419\",\"40\",\"1\",\"Training\",\"Stims/Figures/85-C-20-2.bmp\",\"ta:ka:ka\",\"Up\",\"40\",\"9\",\"12\",\"2\",\"P\",\"C\",\"140\"
\"\",\"\",\"approach-retreat\",\"144\",\"920903\",\"0.0-144.0\",\"\",\"\",\"1-4\",\"4405\",\"40\",\"1\",\"Training\",\"Stims/Figures/93-J-0-1.bmp\",\"ma:la:na\",\"Down\",\"40\",\"9\",\"13\",\"2\",\"S\",\"C\",\"141\"
\"\",\"\",\"approach-retreat\",\"145\",\"926886\",\"0.0-145.0\",\"\",\"\",\"1-4\",\"4476\",\"40\",\"0\",\"Training\",\"Stims/Figures/57-J-0-1.bmp\",\"ma:la:na\",\"Up\",\"38\",\"9\",\"14\",\"2\",\"S\",\"C\",\"142\"
\"\",\"\",\"approach-retreat\",\"146\",\"933031\",\"0.0-146.0\",\"\",\"\",\"1-4\",\"4637\",\"39\",\"0\",\"Training\",\"Stims/Figures/118-J-0-2.bmp\",\"ma:la:na\",\"Left\",\"37\",\"9\",\"15\",\"2\",\"S\",\"C\",\"143\"
\"\",\"\",\"approach-retreat\",\"147\",\"939061\",\"0.0-147.0\",\"\",\"\",\"1-4\",\"4523\",\"40\",\"0\",\"Training\",\"Stims/Figures/57-C-30-1.bmp\",\"ta:ka:ka\",\"Down\",\"38\",\"9\",\"16\",\"2\",\"P\",\"C\",\"144\"
\"20025\",\"\",\"instructions\",\"148\",\"959087\",\"0.0-148.0\",\"[{\"\"page_index\"\":0,\"\"viewing_time\"\":20023}]\",\"\",\"\",\"\",\"\",\"\",\"\",\"\",\"\",\"\",\"\",\"\",\"\",\"\",\"\",\"\",\"\"
\"\",\"\",\"approach-retreat\",\"149\",\"965795\",\"0.0-149.0\",\"\",\"\",\"1-4\",\"5202\",\"38\",\"1\",\"Testing\",\"Stims/Figures/85-J-0-2.bmp\",\"ma:la:na\",\"Up\",\"38\",\"1\",\"1\",\"2\",\"S\",\"C\",\"1\"
\"\",\"\",\"approach-retreat\",\"150\",\"972043\",\"0.0-150.0\",\"\",\"\",\"1-4\",\"4741\",\"37\",\"0\",\"Testing\",\"Stims/Figures/111-J-10-3.bmp\",\"ma:la:na\",\"Right\",\"39\",\"1\",\"2\",\"2\",\"S\",\"C\",\"2\"
\"\",\"\",\"approach-retreat\",\"151\",\"978233\",\"0.0-151.0\",\"\",\"\",\"1-4\",\"4684\",\"38\",\"1\",\"Testing\",\"Stims/Figures/74-C-20-4.bmp\",\"ta:ka:ka\",\"Down\",\"38\",\"1\",\"3\",\"2\",\"P\",\"C\",\"3\"
\"\",\"\",\"approach-retreat\",\"152\",\"984449\",\"0.0-152.0\",\"\",\"\",\"1-4\",\"4710\",\"37\",\"1\",\"Testing\",\"Stims/Figures/118-C-20-2.bmp\",\"ta:ka:ka\",\"Right\",\"37\",\"1\",\"4\",\"2\",\"P\",\"C\",\"4\"
\"\",\"\",\"approach-retreat\",\"153\",\"990267\",\"0.0-153.0\",\"\",\"\",\"1-4\",\"4311\",\"39\",\"1\",\"Testing\",\"Stims/Figures/93-C-30-1.bmp\",\"ta:ka:ka\",\"Left\",\"39\",\"1\",\"5\",\"2\",\"P\",\"C\",\"5\"
\"\",\"\",\"approach-retreat\",\"154\",\"996171\",\"0.0-154.0\",\"\",\"\",\"1-4\",\"4398\",\"38\",\"1\",\"Testing\",\"Stims/Figures/94-C-20-2.bmp\",\"ta:ka:ka\",\"Down\",\"38\",\"1\",\"6\",\"2\",\"P\",\"C\",\"6\"
\"\",\"\",\"approach-retreat\",\"155\",\"1002170\",\"0.0-155.0\",\"\",\"\",\"1-4\",\"4492\",\"40\",\"1\",\"Testing\",\"Stims/Figures/19-C-20-4.bmp\",\"ta:ka:ka\",\"Up\",\"40\",\"1\",\"7\",\"2\",\"P\",\"C\",\"7\"
\"\",\"\",\"approach-retreat\",\"156\",\"1007962\",\"0.0-156.0\",\"\",\"\",\"1-4\",\"4284\",\"38\",\"1\",\"Testing\",\"Stims/Figures/74-J-10-4.bmp\",\"ma:la:na\",\"Up\",\"38\",\"1\",\"8\",\"2\",\"S\",\"C\",\"8\"
\"\",\"\",\"approach-retreat\",\"157\",\"1016377\",\"0.0-157.0\",\"\",\"\",\"1-4\",\"6910\",\"40\",\"0\",\"Testing\",\"Stims/Figures/128-C-30-3.bmp\",\"ta:ka:ka\",\"Down\",\"38\",\"1\",\"9\",\"2\",\"P\",\"C\",\"9\"
\"\",\"\",\"approach-retreat\",\"158\",\"1023147\",\"0.0-158.0\",\"\",\"\",\"1-4\",\"5263\",\"37\",\"1\",\"Testing\",\"Stims/Figures/19-J-10-4.bmp\",\"ma:la:na\",\"Left\",\"37\",\"1\",\"10\",\"2\",\"S\",\"C\",\"10\"
\"\",\"\",\"approach-retreat\",\"159\",\"1029034\",\"0.0-159.0\",\"\",\"\",\"1-4\",\"4383\",\"38\",\"1\",\"Testing\",\"Stims/Figures/85-C-20-2.bmp\",\"ta:ka:ka\",\"Down\",\"38\",\"1\",\"11\",\"2\",\"P\",\"C\",\"11\"
\"\",\"\",\"approach-retreat\",\"160\",\"1036034\",\"0.0-160.0\",\"\",\"\",\"1-4\",\"5495\",\"37\",\"1\",\"Testing\",\"Stims/Figures/111-C-30-3.bmp\",\"ta:ka:ka\",\"Right\",\"37\",\"1\",\"12\",\"2\",\"P\",\"C\",\"12\"
\"\",\"\",\"approach-retreat\",\"161\",\"1042267\",\"0.0-161.0\",\"\",\"\",\"1-4\",\"4726\",\"38\",\"1\",\"Testing\",\"Stims/Figures/7-J-10-4.bmp\",\"ma:la:na\",\"Up\",\"38\",\"1\",\"13\",\"2\",\"S\",\"C\",\"13\"
\"\",\"\",\"approach-retreat\",\"162\",\"1048299\",\"0.0-162.0\",\"\",\"\",\"1-4\",\"4526\",\"40\",\"0\",\"Testing\",\"Stims/Figures/7-C-20-4.bmp\",\"ta:ka:ka\",\"Down\",\"38\",\"1\",\"14\",\"2\",\"P\",\"C\",\"14\"
\"\",\"\",\"approach-retreat\",\"163\",\"1055346\",\"0.0-163.0\",\"\",\"\",\"1-4\",\"5542\",\"40\",\"1\",\"Testing\",\"Stims/Figures/57-J-0-1.bmp\",\"ma:la:na\",\"Down\",\"40\",\"1\",\"15\",\"2\",\"S\",\"C\",\"15\"
\"\",\"\",\"approach-retreat\",\"164\",\"1061954\",\"0.0-164.0\",\"\",\"\",\"1-4\",\"5102\",\"39\",\"0\",\"Testing\",\"Stims/Figures/100-J-10-3.bmp\",\"ma:la:na\",\"Left\",\"37\",\"1\",\"16\",\"2\",\"S\",\"C\",\"16\"
\"\",\"\",\"approach-retreat\",\"165\",\"1067937\",\"0.0-165.0\",\"\",\"\",\"1-4\",\"4477\",\"37\",\"1\",\"Testing\",\"Stims/Figures/93-J-0-1.bmp\",\"ma:la:na\",\"Left\",\"37\",\"1\",\"17\",\"2\",\"S\",\"C\",\"17\"
\"\",\"\",\"approach-retreat\",\"166\",\"1074561\",\"0.0-166.0\",\"\",\"\",\"1-4\",\"5118\",\"38\",\"1\",\"Testing\",\"Stims/Figures/118-J-0-2.bmp\",\"ma:la:na\",\"Up\",\"38\",\"1\",\"18\",\"2\",\"S\",\"C\",\"18\"
\"\",\"\",\"approach-retreat\",\"167\",\"1081834\",\"0.0-167.0\",\"\",\"\",\"1-4\",\"5766\",\"40\",\"1\",\"Testing\",\"Stims/Figures/57-C-30-1.bmp\",\"ta:ka:ka\",\"Up\",\"40\",\"1\",\"19\",\"2\",\"P\",\"C\",\"19\"
\"\",\"\",\"approach-retreat\",\"168\",\"1092436\",\"0.0-168.0\",\"\",\"\",\"1-4\",\"9095\",\"37\",\"1\",\"Testing\",\"Stims/Figures/100-C-30-3.bmp\",\"ta:ka:ka\",\"Right\",\"37\",\"1\",\"20\",\"2\",\"P\",\"C\",\"20\"
\"\",\"\",\"approach-retreat\",\"169\",\"1100451\",\"0.0-169.0\",\"\",\"\",\"1-4\",\"6510\",\"39\",\"1\",\"Testing\",\"Stims/Figures/27-J-0-1.bmp\",\"ma:la:na\",\"Right\",\"39\",\"1\",\"21\",\"2\",\"S\",\"C\",\"21\"
\"\",\"\",\"approach-retreat\",\"170\",\"1107212\",\"0.0-170.0\",\"\",\"\",\"1-4\",\"5255\",\"37\",\"1\",\"Testing\",\"Stims/Figures/128-J-10-3.bmp\",\"ma:la:na\",\"Left\",\"37\",\"1\",\"22\",\"2\",\"S\",\"C\",\"22\"
\"\",\"\",\"approach-retreat\",\"171\",\"1113354\",\"0.0-171.0\",\"\",\"\",\"1-4\",\"4636\",\"37\",\"1\",\"Testing\",\"Stims/Figures/94-J-0-2.bmp\",\"ma:la:na\",\"Left\",\"37\",\"1\",\"23\",\"2\",\"S\",\"C\",\"23\"
\"\",\"\",\"approach-retreat\",\"172\",\"1119499\",\"0.0-172.0\",\"\",\"\",\"1-4\",\"4638\",\"37\",\"1\",\"Testing\",\"Stims/Figures/27-C-30-1.bmp\",\"ta:ka:ka\",\"Right\",\"37\",\"1\",\"24\",\"2\",\"P\",\"C\",\"24\"
\"\",\"\",\"approach-retreat\",\"173\",\"1125522\",\"0.0-173.0\",\"\",\"\",\"1-4\",\"4517\",\"38\",\"1\",\"Testing\",\"Stims/Figures/94-J-0-2.bmp\",\"ma:la:na\",\"Up\",\"38\",\"2\",\"1\",\"2\",\"S\",\"C\",\"25\"
\"\",\"\",\"approach-retreat\",\"174\",\"1132370\",\"0.0-174.0\",\"\",\"\",\"1-4\",\"5342\",\"39\",\"1\",\"Testing\",\"Stims/Figures/128-C-30-3.bmp\",\"ta:ka:ka\",\"Left\",\"39\",\"2\",\"2\",\"2\",\"P\",\"C\",\"26\"
\"\",\"\",\"approach-retreat\",\"175\",\"1139234\",\"0.0-175.0\",\"\",\"\",\"1-4\",\"5358\",\"39\",\"1\",\"Testing\",\"Stims/Figures/118-C-20-2.bmp\",\"ta:ka:ka\",\"Left\",\"39\",\"2\",\"3\",\"2\",\"P\",\"C\",\"27\"
\"\",\"\",\"approach-retreat\",\"176\",\"1146978\",\"0.0-176.0\",\"\",\"\",\"1-4\",\"6238\",\"37\",\"0\",\"Testing\",\"Stims/Figures/128-J-10-3.bmp\",\"ma:la:na\",\"Right\",\"39\",\"2\",\"4\",\"2\",\"S\",\"C\",\"28\"
\"\",\"\",\"approach-retreat\",\"177\",\"1154311\",\"0.0-177.0\",\"\",\"\",\"1-4\",\"5826\",\"39\",\"1\",\"Testing\",\"Stims/Figures/93-C-30-1.bmp\",\"ta:ka:ka\",\"Left\",\"39\",\"2\",\"5\",\"2\",\"P\",\"C\",\"29\"
\"\",\"\",\"approach-retreat\",\"178\",\"1160751\",\"0.0-178.0\",\"\",\"\",\"1-4\",\"4934\",\"37\",\"1\",\"Testing\",\"Stims/Figures/74-C-20-4.bmp\",\"ta:ka:ka\",\"Right\",\"37\",\"2\",\"6\",\"2\",\"P\",\"C\",\"30\"
\"\",\"\",\"approach-retreat\",\"179\",\"1169182\",\"0.0-179.0\",\"\",\"\",\"1-4\",\"6926\",\"38\",\"1\",\"Testing\",\"Stims/Figures/94-C-20-2.bmp\",\"ta:ka:ka\",\"Down\",\"38\",\"2\",\"7\",\"2\",\"P\",\"C\",\"31\"
\"\",\"\",\"approach-retreat\",\"180\",\"1176174\",\"0.0-180.0\",\"\",\"\",\"1-4\",\"5486\",\"38\",\"0\",\"Testing\",\"Stims/Figures/74-J-10-4.bmp\",\"ma:la:na\",\"Down\",\"40\",\"2\",\"8\",\"2\",\"S\",\"C\",\"32\"
\"\",\"\",\"approach-retreat\",\"181\",\"1181941\",\"0.0-181.0\",\"\",\"\",\"1-4\",\"4261\",\"37\",\"0\",\"Testing\",\"Stims/Figures/100-J-10-3.bmp\",\"ma:la:na\",\"Right\",\"39\",\"2\",\"9\",\"2\",\"S\",\"C\",\"33\"
\"\",\"\",\"approach-retreat\",\"182\",\"1191285\",\"0.0-182.0\",\"\",\"\",\"1-4\",\"7838\",\"40\",\"1\",\"Testing\",\"Stims/Figures/85-C-20-2.bmp\",\"ta:ka:ka\",\"Up\",\"40\",\"2\",\"10\",\"2\",\"P\",\"C\",\"34\"
\"\",\"\",\"approach-retreat\",\"183\",\"1200357\",\"0.0-183.0\",\"\",\"\",\"1-4\",\"7566\",\"37\",\"1\",\"Testing\",\"Stims/Figures/19-C-20-4.bmp\",\"ta:ka:ka\",\"Right\",\"37\",\"2\",\"11\",\"2\",\"P\",\"C\",\"35\"
\"\",\"\",\"approach-retreat\",\"184\",\"1213794\",\"0.0-184.0\",\"\",\"\",\"1-4\",\"11934\",\"37\",\"1\",\"Testing\",\"Stims/Figures/27-C-30-1.bmp\",\"ta:ka:ka\",\"Right\",\"37\",\"2\",\"12\",\"2\",\"P\",\"C\",\"36\"
\"\",\"\",\"approach-retreat\",\"185\",\"1220272\",\"0.0-185.0\",\"\",\"\",\"1-4\",\"4972\",\"38\",\"0\",\"Testing\",\"Stims/Figures/19-J-10-4.bmp\",\"ma:la:na\",\"Down\",\"40\",\"2\",\"13\",\"2\",\"S\",\"C\",\"37\"
\"\",\"\",\"approach-retreat\",\"186\",\"1226593\",\"0.0-186.0\",\"\",\"\",\"1-4\",\"4815\",\"38\",\"0\",\"Testing\",\"Stims/Figures/7-C-20-4.bmp\",\"ta:ka:ka\",\"Up\",\"40\",\"2\",\"14\",\"2\",\"P\",\"C\",\"38\"
\"\",\"\",\"approach-retreat\",\"187\",\"1232905\",\"0.0-187.0\",\"\",\"\",\"1-4\",\"4806\",\"40\",\"1\",\"Testing\",\"Stims/Figures/85-J-0-2.bmp\",\"ma:la:na\",\"Down\",\"40\",\"2\",\"15\",\"2\",\"S\",\"C\",\"39\"
\"\",\"\",\"approach-retreat\",\"188\",\"1238994\",\"0.0-188.0\",\"\",\"\",\"1-4\",\"4582\",\"37\",\"1\",\"Testing\",\"Stims/Figures/118-J-0-2.bmp\",\"ma:la:na\",\"Left\",\"37\",\"2\",\"16\",\"2\",\"S\",\"C\",\"40\"
\"\",\"\",\"approach-retreat\",\"189\",\"1245802\",\"0.0-189.0\",\"\",\"\",\"1-4\",\"5301\",\"38\",\"1\",\"Testing\",\"Stims/Figures/57-J-0-1.bmp\",\"ma:la:na\",\"Up\",\"38\",\"2\",\"17\",\"2\",\"S\",\"C\",\"41\"
\"\",\"\",\"approach-retreat\",\"190\",\"1252434\",\"0.0-190.0\",\"\",\"\",\"1-4\",\"5125\",\"39\",\"1\",\"Testing\",\"Stims/Figures/93-J-0-1.bmp\",\"ma:la:na\",\"Right\",\"39\",\"2\",\"18\",\"2\",\"S\",\"C\",\"42\"
\"\",\"\",\"approach-retreat\",\"191\",\"1266306\",\"0.0-191.0\",\"\",\"\",\"1-4\",\"12365\",\"38\",\"1\",\"Testing\",\"Stims/Figures/57-C-30-1.bmp\",\"ta:ka:ka\",\"Down\",\"38\",\"2\",\"19\",\"2\",\"P\",\"C\",\"43\"
\"\",\"\",\"approach-retreat\",\"192\",\"1273553\",\"0.0-192.0\",\"\",\"\",\"1-4\",\"5741\",\"37\",\"1\",\"Testing\",\"Stims/Figures/7-J-10-4.bmp\",\"ma:la:na\",\"Left\",\"37\",\"2\",\"20\",\"2\",\"S\",\"C\",\"44\"
\"\",\"\",\"approach-retreat\",\"193\",\"1280410\",\"0.0-193.0\",\"\",\"\",\"1-4\",\"5351\",\"39\",\"0\",\"Testing\",\"Stims/Figures/27-J-0-1.bmp\",\"ma:la:na\",\"Left\",\"37\",\"2\",\"21\",\"2\",\"S\",\"C\",\"45\"
\"\",\"\",\"approach-retreat\",\"194\",\"1286210\",\"0.0-194.0\",\"\",\"\",\"1-4\",\"4294\",\"38\",\"1\",\"Testing\",\"Stims/Figures/100-C-30-3.bmp\",\"ta:ka:ka\",\"Down\",\"38\",\"2\",\"22\",\"2\",\"P\",\"C\",\"46\"
\"\",\"\",\"approach-retreat\",\"195\",\"1292179\",\"0.0-195.0\",\"\",\"\",\"1-4\",\"4462\",\"40\",\"0\",\"Testing\",\"Stims/Figures/111-J-10-3.bmp\",\"ma:la:na\",\"Up\",\"38\",\"2\",\"23\",\"2\",\"S\",\"C\",\"47\"
\"\",\"\",\"approach-retreat\",\"196\",\"1298025\",\"0.0-196.0\",\"\",\"\",\"1-4\",\"4340\",\"40\",\"1\",\"Testing\",\"Stims/Figures/111-C-30-3.bmp\",\"ta:ka:ka\",\"Up\",\"40\",\"2\",\"24\",\"2\",\"P\",\"C\",\"48\"
\"\",\"\",\"approach-retreat\",\"197\",\"1305475\",\"0.0-197.0\",\"\",\"\",\"1-4\",\"5943\",\"38\",\"1\",\"Testing\",\"Stims/Figures/57-J-0-1.bmp\",\"ma:la:na\",\"Up\",\"38\",\"3\",\"1\",\"2\",\"S\",\"C\",\"49\"
\"\",\"\",\"approach-retreat\",\"198\",\"1312817\",\"0.0-198.0\",\"\",\"\",\"1-4\",\"5837\",\"40\",\"1\",\"Testing\",\"Stims/Figures/27-J-0-1.bmp\",\"ma:la:na\",\"Down\",\"40\",\"3\",\"2\",\"2\",\"S\",\"C\",\"50\"
\"\",\"\",\"approach-retreat\",\"199\",\"1318938\",\"0.0-199.0\",\"\",\"\",\"1-4\",\"4615\",\"39\",\"0\",\"Testing\",\"Stims/Figures/128-J-10-3.bmp\",\"ma:la:na\",\"Left\",\"37\",\"3\",\"3\",\"2\",\"S\",\"C\",\"51\"
\"\",\"\",\"approach-retreat\",\"200\",\"1325754\",\"0.0-200.0\",\"\",\"\",\"1-4\",\"5309\",\"40\",\"1\",\"Testing\",\"Stims/Figures/93-C-30-1.bmp\",\"ta:ka:ka\",\"Up\",\"40\",\"3\",\"4\",\"2\",\"P\",\"C\",\"52\"
\"\",\"\",\"approach-retreat\",\"201\",\"1331649\",\"0.0-201.0\",\"\",\"\",\"1-4\",\"4389\",\"37\",\"1\",\"Testing\",\"Stims/Figures/111-C-30-3.bmp\",\"ta:ka:ka\",\"Right\",\"37\",\"3\",\"5\",\"2\",\"P\",\"C\",\"53\"
\"\",\"\",\"approach-retreat\",\"202\",\"1337701\",\"0.0-202.0\",\"\",\"\",\"1-4\",\"4545\",\"39\",\"1\",\"Testing\",\"Stims/Figures/7-C-20-4.bmp\",\"ta:ka:ka\",\"Left\",\"39\",\"3\",\"6\",\"2\",\"P\",\"C\",\"54\"
\"\",\"\",\"approach-retreat\",\"203\",\"1343740\",\"0.0-203.0\",\"\",\"\",\"1-4\",\"4533\",\"39\",\"1\",\"Testing\",\"Stims/Figures/74-C-20-4.bmp\",\"ta:ka:ka\",\"Left\",\"39\",\"3\",\"7\",\"2\",\"P\",\"C\",\"55\"
\"\",\"\",\"approach-retreat\",\"204\",\"1349596\",\"0.0-204.0\",\"\",\"\",\"1-4\",\"4350\",\"37\",\"1\",\"Testing\",\"Stims/Figures/118-C-20-2.bmp\",\"ta:ka:ka\",\"Right\",\"37\",\"3\",\"8\",\"2\",\"P\",\"C\",\"56\"
\"\",\"\",\"approach-retreat\",\"205\",\"1355468\",\"0.0-205.0\",\"\",\"\",\"1-4\",\"4366\",\"38\",\"0\",\"Testing\",\"Stims/Figures/100-J-10-3.bmp\",\"ma:la:na\",\"Down\",\"40\",\"3\",\"9\",\"2\",\"S\",\"C\",\"57\"
\"\",\"\",\"approach-retreat\",\"206\",\"1362899\",\"0.0-206.0\",\"\",\"\",\"1-4\",\"5925\",\"40\",\"1\",\"Testing\",\"Stims/Figures/7-J-10-4.bmp\",\"ma:la:na\",\"Down\",\"40\",\"3\",\"10\",\"2\",\"S\",\"C\",\"58\"
\"\",\"\",\"approach-retreat\",\"207\",\"1368611\",\"0.0-207.0\",\"\",\"\",\"1-4\",\"4206\",\"37\",\"1\",\"Testing\",\"Stims/Figures/128-C-30-3.bmp\",\"ta:ka:ka\",\"Right\",\"37\",\"3\",\"11\",\"2\",\"P\",\"C\",\"59\"
\"\",\"\",\"approach-retreat\",\"208\",\"1375067\",\"0.0-208.0\",\"\",\"\",\"1-4\",\"4950\",\"39\",\"1\",\"Testing\",\"Stims/Figures/19-C-20-4.bmp\",\"ta:ka:ka\",\"Left\",\"39\",\"3\",\"12\",\"2\",\"P\",\"C\",\"60\"
\"\",\"\",\"approach-retreat\",\"209\",\"1381251\",\"0.0-209.0\",\"\",\"\",\"1-4\",\"4678\",\"40\",\"1\",\"Testing\",\"Stims/Figures/57-C-30-1.bmp\",\"ta:ka:ka\",\"Up\",\"40\",\"3\",\"13\",\"2\",\"P\",\"C\",\"61\"
\"\",\"\",\"approach-retreat\",\"210\",\"1387220\",\"0.0-210.0\",\"\",\"\",\"1-4\",\"4462\",\"38\",\"1\",\"Testing\",\"Stims/Figures/118-J-0-2.bmp\",\"ma:la:na\",\"Up\",\"38\",\"3\",\"14\",\"2\",\"S\",\"C\",\"62\"
\"\",\"\",\"approach-retreat\",\"211\",\"1393565\",\"0.0-211.0\",\"\",\"\",\"1-4\",\"4839\",\"39\",\"1\",\"Testing\",\"Stims/Figures/93-J-0-1.bmp\",\"ma:la:na\",\"Right\",\"39\",\"3\",\"15\",\"2\",\"S\",\"C\",\"63\"
\"\",\"\",\"approach-retreat\",\"212\",\"1400200\",\"0.0-212.0\",\"\",\"\",\"1-4\",\"5130\",\"40\",\"0\",\"Testing\",\"Stims/Figures/74-J-10-4.bmp\",\"ma:la:na\",\"Up\",\"38\",\"3\",\"16\",\"2\",\"S\",\"C\",\"64\"
\"\",\"\",\"approach-retreat\",\"213\",\"1406481\",\"0.0-213.0\",\"\",\"\",\"1-4\",\"4774\",\"37\",\"1\",\"Testing\",\"Stims/Figures/94-J-0-2.bmp\",\"ma:la:na\",\"Left\",\"37\",\"3\",\"17\",\"2\",\"S\",\"C\",\"65\"
\"\",\"\",\"approach-retreat\",\"214\",\"1412408\",\"0.0-214.0\",\"\",\"\",\"1-4\",\"4420\",\"37\",\"0\",\"Testing\",\"Stims/Figures/19-J-10-4.bmp\",\"ma:la:na\",\"Right\",\"39\",\"3\",\"18\",\"2\",\"S\",\"C\",\"66\"
\"\",\"\",\"approach-retreat\",\"215\",\"1419297\",\"0.0-215.0\",\"\",\"\",\"1-4\",\"5382\",\"39\",\"1\",\"Testing\",\"Stims/Figures/85-J-0-2.bmp\",\"ma:la:na\",\"Right\",\"39\",\"3\",\"19\",\"2\",\"S\",\"C\",\"67\"
\"\",\"\",\"approach-retreat\",\"216\",\"1425297\",\"0.0-216.0\",\"\",\"\",\"1-4\",\"4492\",\"39\",\"0\",\"Testing\",\"Stims/Figures/111-J-10-3.bmp\",\"ma:la:na\",\"Left\",\"37\",\"3\",\"20\",\"2\",\"S\",\"C\",\"68\"
\"\",\"\",\"approach-retreat\",\"217\",\"1431513\",\"0.0-217.0\",\"\",\"\",\"1-4\",\"4710\",\"38\",\"1\",\"Testing\",\"Stims/Figures/27-C-30-1.bmp\",\"ta:ka:ka\",\"Down\",\"38\",\"3\",\"21\",\"2\",\"P\",\"C\",\"69\"
\"\",\"\",\"approach-retreat\",\"218\",\"1437367\",\"0.0-218.0\",\"\",\"\",\"1-4\",\"4348\",\"40\",\"0\",\"Testing\",\"Stims/Figures/100-C-30-3.bmp\",\"ta:ka:ka\",\"Down\",\"38\",\"3\",\"22\",\"2\",\"P\",\"C\",\"70\"
\"\",\"\",\"approach-retreat\",\"219\",\"1443583\",\"0.0-219.0\",\"\",\"\",\"1-4\",\"4711\",\"38\",\"1\",\"Testing\",\"Stims/Figures/94-C-20-2.bmp\",\"ta:ka:ka\",\"Down\",\"38\",\"3\",\"23\",\"2\",\"P\",\"C\",\"71\"
\"\",\"\",\"approach-retreat\",\"220\",\"1450048\",\"0.0-220.0\",\"\",\"\",\"1-4\",\"4958\",\"40\",\"1\",\"Testing\",\"Stims/Figures/85-C-20-2.bmp\",\"ta:ka:ka\",\"Up\",\"40\",\"3\",\"24\",\"2\",\"P\",\"C\",\"72\"
\"\",\"\",\"approach-retreat\",\"221\",\"1455919\",\"0.0-221.0\",\"\",\"\",\"1-4\",\"4366\",\"40\",\"1\",\"Testing\",\"Stims/Figures/94-J-0-2.bmp\",\"ma:la:na\",\"Down\",\"40\",\"4\",\"1\",\"2\",\"S\",\"C\",\"73\"
\"\",\"\",\"approach-retreat\",\"222\",\"1461984\",\"0.0-222.0\",\"\",\"\",\"1-4\",\"4557\",\"38\",\"0\",\"Testing\",\"Stims/Figures/128-J-10-3.bmp\",\"ma:la:na\",\"Down\",\"40\",\"4\",\"2\",\"2\",\"S\",\"C\",\"74\"
\"\",\"\",\"approach-retreat\",\"223\",\"1467790\",\"0.0-223.0\",\"\",\"\",\"1-4\",\"4299\",\"37\",\"1\",\"Testing\",\"Stims/Figures/128-C-30-3.bmp\",\"ta:ka:ka\",\"Right\",\"37\",\"4\",\"3\",\"2\",\"P\",\"C\",\"75\"
\"\",\"\",\"approach-retreat\",\"224\",\"1473887\",\"0.0-224.0\",\"\",\"\",\"1-4\",\"4590\",\"40\",\"1\",\"Testing\",\"Stims/Figures/93-J-0-1.bmp\",\"ma:la:na\",\"Down\",\"40\",\"4\",\"4\",\"2\",\"S\",\"C\",\"76\"
\"\",\"\",\"approach-retreat\",\"225\",\"1480126\",\"0.0-225.0\",\"\",\"\",\"1-4\",\"4734\",\"40\",\"0\",\"Testing\",\"Stims/Figures/100-J-10-3.bmp\",\"ma:la:na\",\"Up\",\"38\",\"4\",\"5\",\"2\",\"S\",\"C\",\"77\"
\"\",\"\",\"approach-retreat\",\"226\",\"1486102\",\"0.0-226.0\",\"\",\"\",\"1-4\",\"4470\",\"37\",\"1\",\"Testing\",\"Stims/Figures/85-C-20-2.bmp\",\"ta:ka:ka\",\"Right\",\"37\",\"4\",\"6\",\"2\",\"P\",\"C\",\"78\"
\"\",\"\",\"approach-retreat\",\"227\",\"1492607\",\"0.0-227.0\",\"\",\"\",\"1-4\",\"4999\",\"40\",\"1\",\"Testing\",\"Stims/Figures/85-J-0-2.bmp\",\"ma:la:na\",\"Down\",\"40\",\"4\",\"7\",\"2\",\"S\",\"C\",\"79\"
\"\",\"\",\"approach-retreat\",\"228\",\"1498365\",\"0.0-228.0\",\"\",\"\",\"1-4\",\"4253\",\"37\",\"1\",\"Testing\",\"Stims/Figures/74-C-20-4.bmp\",\"ta:ka:ka\",\"Right\",\"37\",\"4\",\"8\",\"2\",\"P\",\"C\",\"80\"
\"\",\"\",\"approach-retreat\",\"229\",\"1504151\",\"0.0-229.0\",\"\",\"\",\"1-4\",\"4280\",\"40\",\"1\",\"Testing\",\"Stims/Figures/100-C-30-3.bmp\",\"ta:ka:ka\",\"Up\",\"40\",\"4\",\"9\",\"2\",\"P\",\"C\",\"81\"
\"\",\"\",\"approach-retreat\",\"230\",\"1510333\",\"0.0-230.0\",\"\",\"\",\"1-4\",\"4678\",\"40\",\"1\",\"Testing\",\"Stims/Figures/118-C-20-2.bmp\",\"ta:ka:ka\",\"Up\",\"40\",\"4\",\"10\",\"2\",\"P\",\"C\",\"82\"
\"\",\"\",\"approach-retreat\",\"231\",\"1520445\",\"0.0-231.0\",\"\",\"\",\"1-4\",\"8607\",\"37\",\"1\",\"Testing\",\"Stims/Figures/27-J-0-1.bmp\",\"ma:la:na\",\"Left\",\"37\",\"4\",\"11\",\"2\",\"S\",\"C\",\"83\"
\"\",\"\",\"approach-retreat\",\"232\",\"1526175\",\"0.0-232.0\",\"\",\"\",\"1-4\",\"4223\",\"40\",\"1\",\"Testing\",\"Stims/Figures/118-J-0-2.bmp\",\"ma:la:na\",\"Down\",\"40\",\"4\",\"12\",\"2\",\"S\",\"C\",\"84\"
\"\",\"\",\"approach-retreat\",\"233\",\"1532143\",\"0.0-233.0\",\"\",\"\",\"1-4\",\"4462\",\"38\",\"0\",\"Testing\",\"Stims/Figures/111-J-10-3.bmp\",\"ma:la:na\",\"Down\",\"40\",\"4\",\"13\",\"2\",\"S\",\"C\",\"85\"
\"\",\"\",\"approach-retreat\",\"234\",\"1539454\",\"0.0-234.0\",\"\",\"\",\"1-4\",\"5805\",\"40\",\"1\",\"Testing\",\"Stims/Figures/111-C-30-3.bmp\",\"ta:ka:ka\",\"Up\",\"40\",\"4\",\"14\",\"2\",\"P\",\"C\",\"86\"
\"\",\"\",\"approach-retreat\",\"235\",\"1545015\",\"0.0-235.0\",\"\",\"\",\"1-4\",\"4055\",\"40\",\"1\",\"Testing\",\"Stims/Figures/7-C-20-4.bmp\",\"ta:ka:ka\",\"Up\",\"40\",\"4\",\"15\",\"2\",\"P\",\"C\",\"87\"
\"\",\"\",\"approach-retreat\",\"236\",\"1550909\",\"0.0-236.0\",\"\",\"\",\"1-4\",\"4388\",\"39\",\"1\",\"Testing\",\"Stims/Figures/27-C-30-1.bmp\",\"ta:ka:ka\",\"Left\",\"39\",\"4\",\"16\",\"2\",\"P\",\"C\",\"88\"
\"\",\"\",\"approach-retreat\",\"237\",\"1556758\",\"0.0-237.0\",\"\",\"\",\"1-4\",\"4344\",\"39\",\"1\",\"Testing\",\"Stims/Figures/94-C-20-2.bmp\",\"ta:ka:ka\",\"Left\",\"39\",\"4\",\"17\",\"2\",\"P\",\"C\",\"89\"
\"\",\"\",\"approach-retreat\",\"238\",\"1562541\",\"0.0-238.0\",\"\",\"\",\"1-4\",\"4278\",\"37\",\"1\",\"Testing\",\"Stims/Figures/93-C-30-1.bmp\",\"ta:ka:ka\",\"Right\",\"37\",\"4\",\"18\",\"2\",\"P\",\"C\",\"90\"
\"\",\"\",\"approach-retreat\",\"239\",\"1568205\",\"0.0-239.0\",\"\",\"\",\"1-4\",\"4158\",\"37\",\"1\",\"Testing\",\"Stims/Figures/57-C-30-1.bmp\",\"ta:ka:ka\",\"Right\",\"37\",\"4\",\"19\",\"2\",\"P\",\"C\",\"91\"
\"\",\"\",\"approach-retreat\",\"240\",\"1575439\",\"0.0-240.0\",\"\",\"\",\"1-4\",\"5727\",\"39\",\"1\",\"Testing\",\"Stims/Figures/19-C-20-4.bmp\",\"ta:ka:ka\",\"Left\",\"39\",\"4\",\"20\",\"2\",\"P\",\"C\",\"92\"
\"\",\"\",\"approach-retreat\",\"241\",\"1581575\",\"0.0-241.0\",\"\",\"\",\"1-4\",\"4636\",\"39\",\"0\",\"Testing\",\"Stims/Figures/7-J-10-4.bmp\",\"ma:la:na\",\"Left\",\"37\",\"4\",\"21\",\"2\",\"S\",\"C\",\"93\"
\"\",\"\",\"approach-retreat\",\"242\",\"1587742\",\"0.0-242.0\",\"\",\"\",\"1-4\",\"4662\",\"40\",\"0\",\"Testing\",\"Stims/Figures/74-J-10-4.bmp\",\"ma:la:na\",\"Up\",\"38\",\"4\",\"22\",\"2\",\"S\",\"C\",\"94\"
\"\",\"\",\"approach-retreat\",\"243\",\"1593750\",\"0.0-243.0\",\"\",\"\",\"1-4\",\"4503\",\"37\",\"1\",\"Testing\",\"Stims/Figures/19-J-10-4.bmp\",\"ma:la:na\",\"Left\",\"37\",\"4\",\"23\",\"2\",\"S\",\"C\",\"95\"
\"\",\"\",\"approach-retreat\",\"244\",\"1600727\",\"0.0-244.0\",\"\",\"\",\"1-4\",\"5471\",\"39\",\"1\",\"Testing\",\"Stims/Figures/57-J-0-1.bmp\",\"ma:la:na\",\"Right\",\"39\",\"4\",\"24\",\"2\",\"S\",\"C\",\"96\"
\"38428\",\"\",\"survey-text\",\"245\",\"1639168\",\"0.0-245.0\",\"\",\"{\"\"Q0\"\":\"\"1432\"\"}\",\"\",\"\",\"\",\"\",\"\",\"\",\"\",\"\",\"\",\"\",\"\",\"\",\"\",\"\",\"\"
