"rt","key_press","trial_type","trial_index","time_elapsed","internal_node_id","view_history","responses","Id","Rt","ResKeyCode","ResCorr","TrialType2","Image","Label","Location","CorrectResponse","Block","BlockTrial","Condition","LabelType","Subcondition","trialNum"
"107738","32","text","0","107740","0.0-0.0-0.0","","","","","","","","","","","","","","","","",""
"2548625","","instructions","1","2656367","0.0-1.0","[{""page_index"":0,""viewing_time"":2548624}]","","","","","","","","","","","","","","","",""
"99504","","survey-multi-choice","2","2755890","0.0-2.0","","{""Q0"":""Da"",""Q1"":""Da"",""Q2"":""Da"",""Q3"":""Da"",""Q4"":""Da"",""Q5"":""Da""}","","","","","","","","","","","","","","",""
"","","bio","3","2770944","0.0-3.0","","{""age"":""18"",""gender"":""f"",""specify"":""""}","","","","","","","","","","","","","","",""
"","","approach-retreat","4","2778117","0.0-4.0","","","2-3","5667","38","1","Training","Stims/Figures/57-J-0-1.bmp","ta:pa:ta","Down","38","1","1","7","P","J","1"
"","","approach-retreat","5","2786157","0.0-5.0","","","2-3","6536","40","0","Training","Stims/Figures/100-C-30-3.bmp","namana","Up","38","1","2","7","S","J","2"
"","","approach-retreat","6","2793617","0.0-6.0","","","2-3","5956","39","0","Training","Stims/Figures/102-C-20-4.bmp","namala","Left","37","1","3","7","S","J","3"
"","","approach-retreat","7","2799611","0.0-7.0","","","2-3","4489","39","1","Training","Stims/Figures/118-J-0-2.bmp","tapa:ka","Left","39","1","4","7","P","J","4"
"","","approach-retreat","8","2806489","0.0-8.0","","","2-3","5373","39","1","Training","Stims/Figures/19-J-10-4.bmp","mala:la","Left","39","1","5","7","S","J","5"
"","","approach-retreat","9","2814602","0.0-9.0","","","2-3","6611","39","1","Training","Stims/Figures/118-C-20-2.bmp","tapaka","Right","39","1","6","7","P","J","6"
"","","approach-retreat","10","2821363","0.0-10.0","","","2-3","5256","40","0","Training","Stims/Figures/84-J-0-2.bmp","pa:pa:ka","Down","38","1","7","7","P","J","7"
"","","approach-retreat","11","2827746","0.0-11.0","","","2-3","4877","39","1","Training","Stims/Figures/111-C-30-3.bmp","nala:la","Right","39","1","8","7","S","J","8"
"","","approach-retreat","12","2834163","0.0-12.0","","","2-3","4912","40","1","Training","Stims/Figures/102-J-10-4.bmp","ma:ma:na","Up","40","1","9","7","S","J","9"
"","","approach-retreat","13","2840343","0.0-13.0","","","2-3","4675","38","0","Training","Stims/Figures/100-J-10-3.bmp","malana","Up","40","1","10","7","S","J","10"
"","","approach-retreat","14","2846472","0.0-14.0","","","2-3","4623","39","0","Training","Stims/Figures/111-J-10-3.bmp","na:mana","Right","37","1","11","7","S","J","11"
"","","approach-retreat","15","2852576","0.0-15.0","","","2-3","4598","37","0","Training","Stims/Figures/57-C-30-1.bmp","pa:kaka","Right","39","1","12","7","P","J","12"
"","","approach-retreat","16","2859839","0.0-16.0","","","2-3","5758","38","0","Training","Stims/Figures/84-C-20-2.bmp","ta:pa:ka","Down","40","1","13","7","P","J","13"
"","","approach-retreat","17","2865467","0.0-17.0","","","2-3","4122","38","0","Training","Stims/Figures/86-C-30-1.bmp","ta:kaka","Down","40","1","14","7","P","J","14"
"","","approach-retreat","18","2871767","0.0-18.0","","","2-3","4793","38","0","Training","Stims/Figures/86-J-0-1.bmp","taka:ta","Up","40","1","15","7","P","J","15"
"","","approach-retreat","19","2877923","0.0-19.0","","","2-3","4643","39","0","Training","Stims/Figures/19-C-20-4.bmp","na:ma:la","Left","37","1","16","7","S","J","16"
"","","approach-retreat","20","2884225","0.0-20.0","","","2-3","4799","40","1","Training","Stims/Figures/86-J-0-1.bmp","taka:ta","Up","40","2","1","7","P","J","17"
"","","approach-retreat","21","2890462","0.0-21.0","","","2-3","4732","38","0","Training","Stims/Figures/84-C-20-2.bmp","ta:pa:ka","Down","40","2","2","7","P","J","18"
"","","approach-retreat","22","2896544","0.0-22.0","","","2-3","4577","39","0","Training","Stims/Figures/111-C-30-3.bmp","nala:la","Left","37","2","3","7","S","J","19"
"","","approach-retreat","23","2902780","0.0-23.0","","","2-3","4730","37","1","Training","Stims/Figures/111-J-10-3.bmp","na:mana","Right","37","2","4","7","S","J","20"
"","","approach-retreat","24","2909178","0.0-24.0","","","2-3","4894","37","0","Training","Stims/Figures/118-J-0-2.bmp","tapa:ka","Left","39","2","5","7","P","J","21"
"","","approach-retreat","25","2915389","0.0-25.0","","","2-3","4706","39","1","Training","Stims/Figures/86-C-30-1.bmp","ta:kaka","Right","39","2","6","7","P","J","22"
"","","approach-retreat","26","2921333","0.0-26.0","","","2-3","4439","37","0","Training","Stims/Figures/57-J-0-1.bmp","ta:pa:ta","Left","39","2","7","7","P","J","23"
"","","approach-retreat","27","2927562","0.0-27.0","","","2-3","4725","40","1","Training","Stims/Figures/19-J-10-4.bmp","mala:la","Up","40","2","8","7","S","J","24"
"","","approach-retreat","28","2933424","0.0-28.0","","","2-3","4358","37","0","Training","Stims/Figures/100-C-30-3.bmp","namana","Right","39","2","9","7","S","J","25"
"","","approach-retreat","29","2939650","0.0-29.0","","","2-3","4723","38","0","Training","Stims/Figures/19-C-20-4.bmp","na:ma:la","Down","40","2","10","7","S","J","26"
"","","approach-retreat","30","2945526","0.0-30.0","","","2-3","4372","38","0","Training","Stims/Figures/57-C-30-1.bmp","pa:kaka","Down","40","2","11","7","P","J","27"
"","","approach-retreat","31","2951554","0.0-31.0","","","2-3","4523","37","0","Training","Stims/Figures/84-J-0-2.bmp","pa:pa:ka","Left","39","2","12","7","P","J","28"
"","","approach-retreat","32","2958414","0.0-32.0","","","2-3","5355","40","0","Training","Stims/Figures/102-C-20-4.bmp","namala","Up","38","2","13","7","S","J","29"
"","","approach-retreat","33","2964731","0.0-33.0","","","2-3","4812","38","0","Training","Stims/Figures/100-J-10-3.bmp","malana","Up","40","2","14","7","S","J","30"
"","","approach-retreat","34","2970582","0.0-34.0","","","2-3","4346","38","0","Training","Stims/Figures/118-C-20-2.bmp","tapaka","Down","40","2","15","7","P","J","31"
"","","approach-retreat","35","2976569","0.0-35.0","","","2-3","4485","39","0","Training","Stims/Figures/102-J-10-4.bmp","ma:ma:na","Right","37","2","16","7","S","J","32"
"","","approach-retreat","36","2982507","0.0-36.0","","","2-3","4433","40","0","Training","Stims/Figures/86-C-30-1.bmp","ta:kaka","Up","38","3","1","7","P","J","33"
"","","approach-retreat","37","2988177","0.0-37.0","","","2-3","4165","37","0","Training","Stims/Figures/84-C-20-2.bmp","ta:pa:ka","Right","39","3","2","7","P","J","34"
"","","approach-retreat","38","2994145","0.0-38.0","","","2-3","4464","37","1","Training","Stims/Figures/102-J-10-4.bmp","ma:ma:na","Right","37","3","3","7","S","J","35"
"","","approach-retreat","39","3000033","0.0-39.0","","","2-3","4383","39","0","Training","Stims/Figures/19-J-10-4.bmp","mala:la","Right","37","3","4","7","S","J","36"
"","","approach-retreat","40","3006133","0.0-40.0","","","2-3","4594","40","1","Training","Stims/Figures/57-J-0-1.bmp","ta:pa:ta","Up","40","3","5","7","P","J","37"
"","","approach-retreat","41","3012034","0.0-41.0","","","2-3","4395","38","0","Training","Stims/Figures/118-C-20-2.bmp","tapaka","Down","40","3","6","7","P","J","38"
"","","approach-retreat","42","3017890","0.0-42.0","","","2-3","4352","40","1","Training","Stims/Figures/19-C-20-4.bmp","na:ma:la","Down","40","3","7","7","S","J","39"
"","","approach-retreat","43","3024616","0.0-43.0","","","2-3","5222","37","1","Training","Stims/Figures/111-J-10-3.bmp","na:mana","Right","37","3","8","7","S","J","40"
"","","approach-retreat","44","3031003","0.0-44.0","","","2-3","4883","38","1","Training","Stims/Figures/102-C-20-4.bmp","namala","Up","38","3","9","7","S","J","41"
"","","approach-retreat","45","3036895","0.0-45.0","","","2-3","4387","37","1","Training","Stims/Figures/57-C-30-1.bmp","pa:kaka","Left","37","3","10","7","P","J","42"
"","","approach-retreat","46","3043002","0.0-46.0","","","2-3","4602","40","1","Training","Stims/Figures/86-J-0-1.bmp","taka:ta","Up","40","3","11","7","P","J","43"
"","","approach-retreat","47","3049274","0.0-47.0","","","2-3","4767","38","0","Training","Stims/Figures/100-C-30-3.bmp","namana","Down","40","3","12","7","S","J","44"
"","","approach-retreat","48","3055245","0.0-48.0","","","2-3","4466","40","0","Training","Stims/Figures/100-J-10-3.bmp","malana","Down","38","3","13","7","S","J","45"
"","","approach-retreat","49","3061543","0.0-49.0","","","2-3","4795","37","0","Training","Stims/Figures/84-J-0-2.bmp","pa:pa:ka","Left","39","3","14","7","P","J","46"
"","","approach-retreat","50","3067989","0.0-50.0","","","2-3","4941","39","0","Training","Stims/Figures/111-C-30-3.bmp","nala:la","Left","37","3","15","7","S","J","47"
"","","approach-retreat","51","3075604","0.0-51.0","","","2-3","6111","39","1","Training","Stims/Figures/118-J-0-2.bmp","tapa:ka","Left","39","3","16","7","P","J","48"
"","","approach-retreat","52","3081681","0.0-52.0","","","2-3","4573","40","1","Training","Stims/Figures/84-J-0-2.bmp","pa:pa:ka","Up","40","4","1","7","P","J","49"
"","","approach-retreat","53","3087917","0.0-53.0","","","2-3","4731","38","0","Training","Stims/Figures/111-C-30-3.bmp","nala:la","Down","40","4","2","7","S","J","50"
"","","approach-retreat","54","3094337","0.0-54.0","","","2-3","4913","37","0","Training","Stims/Figures/86-J-0-1.bmp","taka:ta","Left","39","4","3","7","P","J","51"
"","","approach-retreat","55","3101162","0.0-55.0","","","2-3","5321","37","0","Training","Stims/Figures/57-C-30-1.bmp","pa:kaka","Right","39","4","4","7","P","J","52"
"","","approach-retreat","56","3106954","0.0-56.0","","","2-3","4288","37","1","Training","Stims/Figures/111-J-10-3.bmp","na:mana","Right","37","4","5","7","S","J","53"
"","","approach-retreat","57","3113754","0.0-57.0","","","2-3","5295","40","1","Training","Stims/Figures/102-J-10-4.bmp","ma:ma:na","Up","40","4","6","7","S","J","54"
"","","approach-retreat","58","3119667","0.0-58.0","","","2-3","4409","37","0","Training","Stims/Figures/57-J-0-1.bmp","ta:pa:ta","Left","39","4","7","7","P","J","55"
"","","approach-retreat","59","3127528","0.0-59.0","","","2-3","6356","38","1","Training","Stims/Figures/84-C-20-2.bmp","ta:pa:ka","Up","38","4","8","7","P","J","56"
"","","approach-retreat","60","3135104","0.0-60.0","","","2-3","6071","40","1","Training","Stims/Figures/118-C-20-2.bmp","tapaka","Down","40","4","9","7","P","J","57"
"","","approach-retreat","61","3142006","0.0-61.0","","","2-3","5398","39","1","Training","Stims/Figures/100-J-10-3.bmp","malana","Left","39","4","10","7","S","J","58"
"","","approach-retreat","62","3149181","0.0-62.0","","","2-3","5671","40","0","Training","Stims/Figures/102-C-20-4.bmp","namala","Up","38","4","11","7","S","J","59"
"","","approach-retreat","63","3155219","0.0-63.0","","","2-3","4534","39","0","Training","Stims/Figures/118-J-0-2.bmp","tapa:ka","Right","37","4","12","7","P","J","60"
"","","approach-retreat","64","3161148","0.0-64.0","","","2-3","4425","38","0","Training","Stims/Figures/86-C-30-1.bmp","ta:kaka","Down","40","4","13","7","P","J","61"
"","","approach-retreat","65","3167669","0.0-65.0","","","2-3","5015","38","0","Training","Stims/Figures/19-C-20-4.bmp","na:ma:la","Down","40","4","14","7","S","J","62"
"","","approach-retreat","66","3173642","0.0-66.0","","","2-3","4469","37","0","Training","Stims/Figures/100-C-30-3.bmp","namana","Right","39","4","15","7","S","J","63"
"","","approach-retreat","67","3180301","0.0-67.0","","","2-3","5154","39","1","Training","Stims/Figures/19-J-10-4.bmp","mala:la","Left","39","4","16","7","S","J","64"
"","","approach-retreat","68","3188029","0.0-68.0","","","2-3","6223","38","1","Training","Stims/Figures/57-J-0-1.bmp","ta:pa:ta","Down","38","5","1","7","P","J","65"
"","","approach-retreat","69","3194360","0.0-69.0","","","2-3","4826","40","1","Training","Stims/Figures/84-C-20-2.bmp","ta:pa:ka","Down","40","5","2","7","P","J","66"
"","","approach-retreat","70","3200858","0.0-70.0","","","2-3","4994","40","1","Training","Stims/Figures/86-J-0-1.bmp","taka:ta","Up","40","5","3","7","P","J","67"
"","","approach-retreat","71","3208295","0.0-71.0","","","2-3","5934","38","0","Training","Stims/Figures/19-C-20-4.bmp","na:ma:la","Down","40","5","4","7","S","J","68"
"","","approach-retreat","72","3214260","0.0-72.0","","","2-3","4460","40","0","Training","Stims/Figures/84-J-0-2.bmp","pa:pa:ka","Down","38","5","5","7","P","J","69"
"","","approach-retreat","73","3224526","0.0-73.0","","","2-3","8761","40","0","Training","Stims/Figures/102-C-20-4.bmp","namala","Up","38","5","6","7","S","J","70"
"","","approach-retreat","74","3231421","0.0-74.0","","","2-3","5390","37","1","Training","Stims/Figures/19-J-10-4.bmp","mala:la","Right","37","5","7","7","S","J","71"
"","","approach-retreat","75","3237270","0.0-75.0","","","2-3","4345","39","1","Training","Stims/Figures/57-C-30-1.bmp","pa:kaka","Right","39","5","8","7","P","J","72"
"","","approach-retreat","76","3244636","0.0-76.0","","","2-3","5862","38","1","Training","Stims/Figures/111-C-30-3.bmp","nala:la","Up","38","5","9","7","S","J","73"
"","","approach-retreat","77","3252320","0.0-77.0","","","2-3","6180","37","1","Training","Stims/Figures/102-J-10-4.bmp","ma:ma:na","Right","37","5","10","7","S","J","74"
"","","approach-retreat","78","3258828","0.0-78.0","","","2-3","5005","39","1","Training","Stims/Figures/100-J-10-3.bmp","malana","Left","39","5","11","7","S","J","75"
"","","approach-retreat","79","3265093","0.0-79.0","","","2-3","4762","37","0","Training","Stims/Figures/86-C-30-1.bmp","ta:kaka","Right","39","5","12","7","P","J","76"
"","","approach-retreat","80","3271101","0.0-80.0","","","2-3","4503","37","1","Training","Stims/Figures/118-C-20-2.bmp","tapaka","Left","37","5","13","7","P","J","77"
"","","approach-retreat","81","3279519","0.0-81.0","","","2-3","6914","39","0","Training","Stims/Figures/100-C-30-3.bmp","namana","Left","37","5","14","7","S","J","78"
"","","approach-retreat","82","3286175","0.0-82.0","","","2-3","5151","39","1","Training","Stims/Figures/111-J-10-3.bmp","na:mana","Left","39","5","15","7","S","J","79"
"","","approach-retreat","83","3292281","0.0-83.0","","","2-3","4602","40","1","Training","Stims/Figures/118-J-0-2.bmp","tapa:ka","Up","40","5","16","7","P","J","80"
"","","approach-retreat","84","3298860","0.0-84.0","","","2-3","5075","39","0","Training","Stims/Figures/84-C-20-2.bmp","ta:pa:ka","Left","37","6","1","7","P","J","81"
"","","approach-retreat","85","3305320","0.0-85.0","","","2-3","4956","40","1","Training","Stims/Figures/102-J-10-4.bmp","ma:ma:na","Up","40","6","2","7","S","J","82"
"","","approach-retreat","86","3313321","0.0-86.0","","","2-3","6498","40","1","Training","Stims/Figures/19-J-10-4.bmp","mala:la","Up","40","6","3","7","S","J","83"
"","","approach-retreat","87","3320891","0.0-87.0","","","2-3","6065","38","0","Training","Stims/Figures/111-C-30-3.bmp","nala:la","Down","40","6","4","7","S","J","84"
"","","approach-retreat","88","3327430","0.0-88.0","","","2-3","5035","37","1","Training","Stims/Figures/118-J-0-2.bmp","tapa:ka","Right","37","6","5","7","P","J","85"
"","","approach-retreat","89","3333802","0.0-89.0","","","2-3","4868","40","0","Training","Stims/Figures/84-J-0-2.bmp","pa:pa:ka","Down","38","6","6","7","P","J","86"
"","","approach-retreat","90","3343755","0.0-90.0","","","2-3","8449","39","1","Training","Stims/Figures/86-C-30-1.bmp","ta:kaka","Right","39","6","7","7","P","J","87"
"","","approach-retreat","91","3349913","0.0-91.0","","","2-3","4654","39","0","Training","Stims/Figures/57-J-0-1.bmp","ta:pa:ta","Right","37","6","8","7","P","J","88"
"","","approach-retreat","92","3355770","0.0-92.0","","","2-3","4352","37","1","Training","Stims/Figures/118-C-20-2.bmp","tapaka","Left","37","6","9","7","P","J","89"
"","","approach-retreat","93","3362595","0.0-93.0","","","2-3","5320","40","1","Training","Stims/Figures/57-C-30-1.bmp","pa:kaka","Down","40","6","10","7","P","J","90"
"","","approach-retreat","94","3369647","0.0-94.0","","","2-3","5548","39","0","Training","Stims/Figures/19-C-20-4.bmp","na:ma:la","Left","37","6","11","7","S","J","91"
"","","approach-retreat","95","3376094","0.0-95.0","","","2-3","4941","39","0","Training","Stims/Figures/102-C-20-4.bmp","namala","Left","37","6","12","7","S","J","92"
"","","approach-retreat","96","3383366","0.0-96.0","","","2-3","5766","40","0","Training","Stims/Figures/100-C-30-3.bmp","namana","Up","38","6","13","7","S","J","93"
"","","approach-retreat","97","3389701","0.0-97.0","","","2-3","4832","40","1","Training","Stims/Figures/100-J-10-3.bmp","malana","Up","40","6","14","7","S","J","94"
"","","approach-retreat","98","3395825","0.0-98.0","","","2-3","4619","37","1","Training","Stims/Figures/86-J-0-1.bmp","taka:ta","Right","37","6","15","7","P","J","95"
"","","approach-retreat","99","3402289","0.0-99.0","","","2-3","4959","38","1","Training","Stims/Figures/111-J-10-3.bmp","na:mana","Down","38","6","16","7","S","J","96"
"","","approach-retreat","100","3408480","0.0-100.0","","","2-3","4689","38","0","Training","Stims/Figures/100-C-30-3.bmp","namana","Down","40","7","1","7","S","J","97"
"","","approach-retreat","101","3414954","0.0-101.0","","","2-3","4969","39","1","Training","Stims/Figures/100-J-10-3.bmp","malana","Left","39","7","2","7","S","J","98"
"","","approach-retreat","102","3420973","0.0-102.0","","","2-3","4514","37","0","Training","Stims/Figures/84-J-0-2.bmp","pa:pa:ka","Left","39","7","3","7","P","J","99"
"","","approach-retreat","103","3426974","0.0-103.0","","","2-3","4497","37","1","Training","Stims/Figures/86-C-30-1.bmp","ta:kaka","Left","37","7","4","7","P","J","100"
"","","approach-retreat","104","3433781","0.0-104.0","","","2-3","5303","38","1","Training","Stims/Figures/118-J-0-2.bmp","tapa:ka","Down","38","7","5","7","P","J","101"
"","","approach-retreat","105","3439907","0.0-105.0","","","2-3","4623","37","1","Training","Stims/Figures/111-J-10-3.bmp","na:mana","Right","37","7","6","7","S","J","102"
"","","approach-retreat","106","3445744","0.0-106.0","","","2-3","4334","39","1","Training","Stims/Figures/118-C-20-2.bmp","tapaka","Right","39","7","7","7","P","J","103"
"","","approach-retreat","107","3451531","0.0-107.0","","","2-3","4283","39","1","Training","Stims/Figures/57-C-30-1.bmp","pa:kaka","Right","39","7","8","7","P","J","104"
"","","approach-retreat","108","3457776","0.0-108.0","","","2-3","4741","40","0","Training","Stims/Figures/102-C-20-4.bmp","namala","Up","38","7","9","7","S","J","105"
"","","approach-retreat","109","3463779","0.0-109.0","","","2-3","4498","38","1","Training","Stims/Figures/19-J-10-4.bmp","mala:la","Down","38","7","10","7","S","J","106"
"","","approach-retreat","110","3469417","0.0-110.0","","","2-3","4135","38","1","Training","Stims/Figures/102-J-10-4.bmp","ma:ma:na","Down","38","7","11","7","S","J","107"
"","","approach-retreat","111","3475167","0.0-111.0","","","2-3","4247","37","0","Training","Stims/Figures/111-C-30-3.bmp","nala:la","Right","39","7","12","7","S","J","108"
"","","approach-retreat","112","3481731","0.0-112.0","","","2-3","5060","38","0","Training","Stims/Figures/57-J-0-1.bmp","ta:pa:ta","Up","40","7","13","7","P","J","109"
"","","approach-retreat","113","3487802","0.0-113.0","","","2-3","4567","39","0","Training","Stims/Figures/19-C-20-4.bmp","na:ma:la","Left","37","7","14","7","S","J","110"
"","","approach-retreat","114","3493760","0.0-114.0","","","2-3","4453","40","0","Training","Stims/Figures/84-C-20-2.bmp","ta:pa:ka","Up","38","7","15","7","P","J","111"
"","","approach-retreat","115","3499895","0.0-115.0","","","2-3","4631","40","1","Training","Stims/Figures/86-J-0-1.bmp","taka:ta","Up","40","7","16","7","P","J","112"
"","","approach-retreat","116","3505755","0.0-116.0","","","2-3","4356","39","1","Training","Stims/Figures/100-J-10-3.bmp","malana","Left","39","8","1","7","S","J","113"
"","","approach-retreat","117","3512770","0.0-117.0","","","2-3","5511","40","0","Training","Stims/Figures/111-C-30-3.bmp","nala:la","Up","38","8","2","7","S","J","114"
"","","approach-retreat","118","3519211","0.0-118.0","","","2-3","4936","40","0","Training","Stims/Figures/86-J-0-1.bmp","taka:ta","Down","38","8","3","7","P","J","115"
"","","approach-retreat","119","3525510","0.0-119.0","","","2-3","4794","38","1","Training","Stims/Figures/118-C-20-2.bmp","tapaka","Up","38","8","4","7","P","J","116"
"","","approach-retreat","120","3532718","0.0-120.0","","","2-3","5703","40","1","Training","Stims/Figures/111-J-10-3.bmp","na:mana","Up","40","8","5","7","S","J","117"
"","","approach-retreat","121","3542757","0.0-121.0","","","2-3","8535","38","0","Training","Stims/Figures/102-C-20-4.bmp","namala","Down","40","8","6","7","S","J","118"
"","","approach-retreat","122","3549389","0.0-122.0","","","2-3","5128","38","0","Training","Stims/Figures/100-C-30-3.bmp","namana","Down","40","8","7","7","S","J","119"
"","","approach-retreat","123","3555888","0.0-123.0","","","2-3","4995","38","1","Training","Stims/Figures/86-C-30-1.bmp","ta:kaka","Up","38","8","8","7","P","J","120"
"","","approach-retreat","124","3563550","0.0-124.0","","","2-3","6158","37","0","Training","Stims/Figures/57-J-0-1.bmp","ta:pa:ta","Left","39","8","9","7","P","J","121"
"","","approach-retreat","125","3569481","0.0-125.0","","","2-3","4426","37","1","Training","Stims/Figures/19-J-10-4.bmp","mala:la","Right","37","8","10","7","S","J","122"
"","","approach-retreat","126","3575393","0.0-126.0","","","2-3","4408","40","1","Training","Stims/Figures/57-C-30-1.bmp","pa:kaka","Down","40","8","11","7","P","J","123"
"","","approach-retreat","127","3581982","0.0-127.0","","","2-3","5080","39","1","Training","Stims/Figures/118-J-0-2.bmp","tapa:ka","Left","39","8","12","7","P","J","124"
"","","approach-retreat","128","3590767","0.0-128.0","","","2-3","7281","39","0","Training","Stims/Figures/84-J-0-2.bmp","pa:pa:ka","Right","37","8","13","7","P","J","125"
"","","approach-retreat","129","3597143","0.0-129.0","","","2-3","4872","37","0","Training","Stims/Figures/19-C-20-4.bmp","na:ma:la","Right","39","8","14","7","S","J","126"
"","","approach-retreat","130","3604228","0.0-130.0","","","2-3","5580","39","0","Training","Stims/Figures/84-C-20-2.bmp","ta:pa:ka","Left","37","8","15","7","P","J","127"
"","","approach-retreat","131","3610981","0.0-131.0","","","2-3","5249","37","1","Training","Stims/Figures/102-J-10-4.bmp","ma:ma:na","Right","37","8","16","7","S","J","128"
"","","approach-retreat","132","3621109","0.0-132.0","","","2-3","8622","39","0","Training","Stims/Figures/57-J-0-1.bmp","ta:pa:ta","Right","37","9","1","7","P","J","129"
"","","approach-retreat","133","3627856","0.0-133.0","","","2-3","5243","40","1","Training","Stims/Figures/111-J-10-3.bmp","na:mana","Up","40","9","2","7","S","J","130"
"","","approach-retreat","134","3638146","0.0-134.0","","","2-3","8786","38","1","Training","Stims/Figures/57-C-30-1.bmp","pa:kaka","Up","38","9","3","7","P","J","131"
"","","approach-retreat","135","3645179","0.0-135.0","","","2-3","5528","38","1","Training","Stims/Figures/86-J-0-1.bmp","taka:ta","Down","38","9","4","7","P","J","132"
"","","approach-retreat","136","3651405","0.0-136.0","","","2-3","4720","38","1","Training","Stims/Figures/84-J-0-2.bmp","pa:pa:ka","Down","38","9","5","7","P","J","133"
"","","approach-retreat","137","3657618","0.0-137.0","","","2-3","4710","37","1","Training","Stims/Figures/118-J-0-2.bmp","tapa:ka","Right","37","9","6","7","P","J","134"
"","","approach-retreat","138","3664751","0.0-138.0","","","2-3","5631","39","1","Training","Stims/Figures/102-J-10-4.bmp","ma:ma:na","Left","39","9","7","7","S","J","135"
"","","approach-retreat","139","3671967","0.0-139.0","","","2-3","5712","38","0","Training","Stims/Figures/86-C-30-1.bmp","ta:kaka","Down","40","9","8","7","P","J","136"
"","","approach-retreat","140","3678948","0.0-140.0","","","2-3","5477","39","1","Training","Stims/Figures/118-C-20-2.bmp","tapaka","Right","39","9","9","7","P","J","137"
"","","approach-retreat","141","3685532","0.0-141.0","","","2-3","5078","39","0","Training","Stims/Figures/19-C-20-4.bmp","na:ma:la","Left","37","9","10","7","S","J","138"
"","","approach-retreat","142","3692001","0.0-142.0","","","2-3","4966","40","1","Training","Stims/Figures/84-C-20-2.bmp","ta:pa:ka","Down","40","9","11","7","P","J","139"
"","","approach-retreat","143","3698128","0.0-143.0","","","2-3","4623","37","1","Training","Stims/Figures/100-J-10-3.bmp","malana","Right","37","9","12","7","S","J","140"
"","","approach-retreat","144","3704814","0.0-144.0","","","2-3","5182","40","0","Training","Stims/Figures/100-C-30-3.bmp","namana","Up","38","9","13","7","S","J","141"
"","","approach-retreat","145","3713007","0.0-145.0","","","2-3","6689","40","0","Training","Stims/Figures/102-C-20-4.bmp","namala","Up","38","9","14","7","S","J","142"
"","","approach-retreat","146","3721101","0.0-146.0","","","2-3","6590","39","0","Training","Stims/Figures/111-C-30-3.bmp","nala:la","Left","37","9","15","7","S","J","143"
"","","approach-retreat","147","3727047","0.0-147.0","","","2-3","4442","39","1","Training","Stims/Figures/19-J-10-4.bmp","mala:la","Left","39","9","16","7","S","J","144"
"33064","","instructions","148","3760111","0.0-148.0","[{""page_index"":0,""viewing_time"":33064}]","","","","","","","","","","","","","","","",""
"","","approach-retreat","149","3768616","0.0-149.0","","","2-3","7000","38","1","Testing","Stims/Figures/86-J-0-1.bmp","taka:ta","Down","38","1","1","7","P","J","1"
"","","approach-retreat","150","3775076","0.0-150.0","","","2-3","4956","39","0","Testing","Stims/Figures/102-C-20-4.bmp","namala","Left","37","1","2","7","S","J","2"
"","","approach-retreat","151","3780994","0.0-151.0","","","2-3","4415","39","0","Testing","Stims/Figures/118-C-20-2.bmp","tapaka","Left","37","1","3","7","P","J","3"
"","","approach-retreat","152","3787233","0.0-152.0","","","2-3","4733","40","0","Testing","Stims/Figures/84-J-0-2.bmp","pa:pa:ka","Down","38","1","4","7","P","J","4"
"","","approach-retreat","153","3793306","0.0-153.0","","","2-3","4566","38","1","Testing","Stims/Figures/139-J-0-2.bmp","tapata","Down","38","1","5","7","P","J","5"
"","","approach-retreat","154","3799355","0.0-154.0","","","2-3","4541","37","0","Testing","Stims/Figures/93-J-0-1.bmp","paka:ka","Left","39","1","6","7","P","J","6"
"","","approach-retreat","155","3805384","0.0-155.0","","","2-3","4526","37","0","Testing","Stims/Figures/19-J-10-4.bmp","mala:la","Left","39","1","7","7","S","J","7"
"","","approach-retreat","156","3812060","0.0-156.0","","","2-3","5172","40","1","Testing","Stims/Figures/74-C-20-4.bmp","ma:ma:la","Down","40","1","8","7","S","J","8"
"","","approach-retreat","157","3819417","0.0-157.0","","","2-3","5851","39","1","Testing","Stims/Figures/93-C-30-1.bmp","pa:ka:ta","Right","39","1","9","7","P","J","9"
"","","approach-retreat","158","3826356","0.0-158.0","","","2-3","5432","37","1","Testing","Stims/Figures/57-C-30-1.bmp","pa:kaka","Left","37","1","10","7","P","J","10"
"","","approach-retreat","159","3833872","0.0-159.0","","","2-3","6009","38","1","Testing","Stims/Figures/74-J-10-4.bmp","ma:lala","Down","38","1","11","7","S","J","11"
"","","approach-retreat","160","3840971","0.0-160.0","","","2-3","5592","39","1","Testing","Stims/Figures/44-J-10-3.bmp","malala","Left","39","1","12","7","S","J","12"
"","","approach-retreat","161","3847190","0.0-161.0","","","2-3","4714","37","0","Testing","Stims/Figures/111-C-30-3.bmp","nala:la","Right","39","1","13","7","S","J","13"
"","","approach-retreat","162","3854235","0.0-162.0","","","2-3","5538","39","0","Testing","Stims/Figures/111-J-10-3.bmp","na:mana","Right","37","1","14","7","S","J","14"
"","","approach-retreat","163","3863159","0.0-163.0","","","2-3","7417","39","1","Testing","Stims/Figures/100-C-30-3.bmp","namana","Right","39","1","15","7","S","J","15"
"","","approach-retreat","164","3877889","0.0-164.0","","","2-3","13227","40","1","Testing","Stims/Figures/100-J-10-3.bmp","malana","Up","40","1","16","7","S","J","16"
"","","approach-retreat","165","3886606","0.0-165.0","","","2-3","7213","38","0","Testing","Stims/Figures/57-J-0-1.bmp","ta:pa:ta","Up","40","1","17","7","P","J","17"
"","","approach-retreat","166","3896212","0.0-166.0","","","2-3","8100","38","0","Testing","Stims/Figures/86-C-30-1.bmp","ta:kaka","Down","40","1","18","7","P","J","18"
"","","approach-retreat","167","3904798","0.0-167.0","","","2-3","7084","40","0","Testing","Stims/Figures/44-C-30-3.bmp","mama:la","Up","38","1","19","7","S","J","19"
"","","approach-retreat","168","3925015","0.0-168.0","","","2-3","18710","37","1","Testing","Stims/Figures/118-J-0-2.bmp","tapa:ka","Right","37","1","20","7","P","J","20"
"","","approach-retreat","169","3945775","0.0-169.0","","","2-3","19254","40","0","Testing","Stims/Figures/84-C-20-2.bmp","ta:pa:ka","Up","38","1","21","7","P","J","21"
"","","approach-retreat","170","3952006","0.0-170.0","","","2-3","4724","38","1","Testing","Stims/Figures/139-C-20-2.bmp","takata","Up","38","1","22","7","P","J","22"
"","","approach-retreat","171","3959354","0.0-171.0","","","2-3","5847","39","0","Testing","Stims/Figures/102-J-10-4.bmp","ma:ma:na","Right","37","1","23","7","S","J","23"
"","","approach-retreat","172","3965956","0.0-172.0","","","2-3","5098","40","0","Testing","Stims/Figures/19-C-20-4.bmp","na:ma:la","Up","38","1","24","7","S","J","24"
"","","approach-retreat","173","3973715","0.0-173.0","","","2-3","6251","39","1","Testing","Stims/Figures/111-J-10-3.bmp","na:mana","Left","39","2","1","7","S","J","25"
"","","approach-retreat","174","3987043","0.0-174.0","","","2-3","11826","39","1","Testing","Stims/Figures/44-J-10-3.bmp","malala","Left","39","2","2","7","S","J","26"
"","","approach-retreat","175","3993999","0.0-175.0","","","2-3","5449","39","1","Testing","Stims/Figures/111-C-30-3.bmp","nala:la","Right","39","2","3","7","S","J","27"
"","","approach-retreat","176","4001768","0.0-176.0","","","2-3","6266","38","0","Testing","Stims/Figures/19-J-10-4.bmp","mala:la","Up","40","2","4","7","S","J","28"
"","","approach-retreat","177","4008500","0.0-177.0","","","2-3","5227","37","0","Testing","Stims/Figures/84-J-0-2.bmp","pa:pa:ka","Left","39","2","5","7","P","J","29"
"","","approach-retreat","178","4015484","0.0-178.0","","","2-3","5480","37","0","Testing","Stims/Figures/139-C-20-2.bmp","takata","Right","39","2","6","7","P","J","30"
"","","approach-retreat","179","4023866","0.0-179.0","","","2-3","6876","37","1","Testing","Stims/Figures/100-J-10-3.bmp","malana","Right","37","2","7","7","S","J","31"
"","","approach-retreat","180","4030524","0.0-180.0","","","2-3","5151","37","0","Testing","Stims/Figures/100-C-30-3.bmp","namana","Right","39","2","8","7","S","J","32"
"","","approach-retreat","181","4037693","0.0-181.0","","","2-3","5667","39","1","Testing","Stims/Figures/118-J-0-2.bmp","tapa:ka","Left","39","2","9","7","P","J","33"
"","","approach-retreat","182","4044942","0.0-182.0","","","2-3","5742","40","0","Testing","Stims/Figures/86-J-0-1.bmp","taka:ta","Down","38","2","10","7","P","J","34"
"","","approach-retreat","183","4051969","0.0-183.0","","","2-3","5521","38","1","Testing","Stims/Figures/139-J-0-2.bmp","tapata","Down","38","2","11","7","P","J","35"
"","","approach-retreat","184","4058308","0.0-184.0","","","2-3","4832","37","1","Testing","Stims/Figures/57-C-30-1.bmp","pa:kaka","Left","37","2","12","7","P","J","36"
"","","approach-retreat","185","4064660","0.0-185.0","","","2-3","4845","39","1","Testing","Stims/Figures/102-C-20-4.bmp","namala","Right","39","2","13","7","S","J","37"
"","","approach-retreat","186","4074968","0.0-186.0","","","2-3","8805","38","0","Testing","Stims/Figures/84-C-20-2.bmp","ta:pa:ka","Down","40","2","14","7","P","J","38"
"","","approach-retreat","187","4083280","0.0-187.0","","","2-3","6809","37","0","Testing","Stims/Figures/93-C-30-1.bmp","pa:ka:ta","Right","39","2","15","7","P","J","39"
"","","approach-retreat","188","4089935","0.0-188.0","","","2-3","5152","40","0","Testing","Stims/Figures/74-J-10-4.bmp","ma:lala","Down","38","2","16","7","S","J","40"
"","","approach-retreat","189","4097949","0.0-189.0","","","2-3","6510","38","0","Testing","Stims/Figures/102-J-10-4.bmp","ma:ma:na","Up","40","2","17","7","S","J","41"
"","","approach-retreat","190","4105111","0.0-190.0","","","2-3","5656","40","0","Testing","Stims/Figures/74-C-20-4.bmp","ma:ma:la","Up","38","2","18","7","S","J","42"
"","","approach-retreat","191","4111936","0.0-191.0","","","2-3","5322","38","1","Testing","Stims/Figures/57-J-0-1.bmp","ta:pa:ta","Down","38","2","19","7","P","J","43"
"","","approach-retreat","192","4119226","0.0-192.0","","","2-3","5787","40","0","Testing","Stims/Figures/118-C-20-2.bmp","tapaka","Up","38","2","20","7","P","J","44"
"","","approach-retreat","193","4125749","0.0-193.0","","","2-3","5016","40","0","Testing","Stims/Figures/86-C-30-1.bmp","ta:kaka","Up","38","2","21","7","P","J","45"
"","","approach-retreat","194","4132061","0.0-194.0","","","2-3","4806","37","1","Testing","Stims/Figures/19-C-20-4.bmp","na:ma:la","Left","37","2","22","7","S","J","46"
"","","approach-retreat","195","4138737","0.0-195.0","","","2-3","5173","40","0","Testing","Stims/Figures/44-C-30-3.bmp","mama:la","Up","38","2","23","7","S","J","47"
"","","approach-retreat","196","4147959","0.0-196.0","","","2-3","7716","38","1","Testing","Stims/Figures/93-J-0-1.bmp","paka:ka","Down","38","2","24","7","P","J","48"
"","","approach-retreat","197","4155586","0.0-197.0","","","2-3","6124","37","1","Testing","Stims/Figures/57-C-30-1.bmp","pa:kaka","Left","37","3","1","7","P","J","49"
"","","approach-retreat","198","4162500","0.0-198.0","","","2-3","5412","37","0","Testing","Stims/Figures/84-J-0-2.bmp","pa:pa:ka","Left","39","3","2","7","P","J","50"
"","","approach-retreat","199","4169884","0.0-199.0","","","2-3","5877","38","0","Testing","Stims/Figures/111-C-30-3.bmp","nala:la","Down","40","3","3","7","S","J","51"
"","","approach-retreat","200","4176763","0.0-200.0","","","2-3","5372","40","0","Testing","Stims/Figures/57-J-0-1.bmp","ta:pa:ta","Down","38","3","4","7","P","J","52"
"","","approach-retreat","201","4184174","0.0-201.0","","","2-3","5903","39","0","Testing","Stims/Figures/74-C-20-4.bmp","ma:ma:la","Left","37","3","5","7","S","J","53"
"","","approach-retreat","202","4190551","0.0-202.0","","","2-3","4870","39","0","Testing","Stims/Figures/44-J-10-3.bmp","malala","Right","37","3","6","7","S","J","54"
"","","approach-retreat","203","4199744","0.0-203.0","","","2-3","7686","38","1","Testing","Stims/Figures/102-C-20-4.bmp","namala","Up","38","3","7","7","S","J","55"
"","","approach-retreat","204","4208213","0.0-204.0","","","2-3","6962","40","0","Testing","Stims/Figures/139-C-20-2.bmp","takata","Up","38","3","8","7","P","J","56"
"","","approach-retreat","205","4217085","0.0-205.0","","","2-3","7366","39","1","Testing","Stims/Figures/118-J-0-2.bmp","tapa:ka","Left","39","3","9","7","P","J","57"
"","","approach-retreat","206","4224495","0.0-206.0","","","2-3","5903","39","1","Testing","Stims/Figures/44-C-30-3.bmp","mama:la","Right","39","3","10","7","S","J","58"
"","","approach-retreat","207","4239069","0.0-207.0","","","2-3","13070","40","0","Testing","Stims/Figures/139-J-0-2.bmp","tapata","Down","38","3","11","7","P","J","59"
"","","approach-retreat","208","4256084","0.0-208.0","","","2-3","15508","40","0","Testing","Stims/Figures/93-C-30-1.bmp","pa:ka:ta","Up","38","3","12","7","P","J","60"
"","","approach-retreat","209","4269872","0.0-209.0","","","2-3","12281","40","1","Testing","Stims/Figures/93-J-0-1.bmp","paka:ka","Up","40","3","13","7","P","J","61"
"","","approach-retreat","210","4277780","0.0-210.0","","","2-3","6401","39","0","Testing","Stims/Figures/86-J-0-1.bmp","taka:ta","Right","37","3","14","7","P","J","62"
"","","approach-retreat","211","4292165","0.0-211.0","","","2-3","12881","39","1","Testing","Stims/Figures/19-J-10-4.bmp","mala:la","Left","39","3","15","7","S","J","63"
"","","approach-retreat","212","4305957","0.0-212.0","","","2-3","12286","40","0","Testing","Stims/Figures/100-C-30-3.bmp","namana","Up","38","3","16","7","S","J","64"
"","","approach-retreat","213","4312533","0.0-213.0","","","2-3","5070","38","1","Testing","Stims/Figures/111-J-10-3.bmp","na:mana","Down","38","3","17","7","S","J","65"
"","","approach-retreat","214","4319193","0.0-214.0","","","2-3","5153","39","1","Testing","Stims/Figures/86-C-30-1.bmp","ta:kaka","Right","39","3","18","7","P","J","66"
"","","approach-retreat","215","4327180","0.0-215.0","","","2-3","6480","38","0","Testing","Stims/Figures/74-J-10-4.bmp","ma:lala","Up","40","3","19","7","S","J","67"
"","","approach-retreat","216","4336055","0.0-216.0","","","2-3","7372","38","1","Testing","Stims/Figures/102-J-10-4.bmp","ma:ma:na","Down","38","3","20","7","S","J","68"
"","","approach-retreat","217","4341912","0.0-217.0","","","2-3","4350","40","0","Testing","Stims/Figures/100-J-10-3.bmp","malana","Down","38","3","21","7","S","J","69"
"","","approach-retreat","218","4348853","0.0-218.0","","","2-3","5434","37","0","Testing","Stims/Figures/118-C-20-2.bmp","tapaka","Right","39","3","22","7","P","J","70"
"","","approach-retreat","219","4354732","0.0-219.0","","","2-3","4376","37","1","Testing","Stims/Figures/84-C-20-2.bmp","ta:pa:ka","Left","37","3","23","7","P","J","71"
"","","approach-retreat","220","4362754","0.0-220.0","","","2-3","6516","37","0","Testing","Stims/Figures/19-C-20-4.bmp","na:ma:la","Right","39","3","24","7","S","J","72"
"","","approach-retreat","221","4369302","0.0-221.0","","","2-3","5041","40","1","Testing","Stims/Figures/19-J-10-4.bmp","mala:la","Up","40","4","1","7","S","J","73"
"","","approach-retreat","222","4375104","0.0-222.0","","","2-3","4297","37","0","Testing","Stims/Figures/100-C-30-3.bmp","namana","Right","39","4","2","7","S","J","74"
"","","approach-retreat","223","4388426","0.0-223.0","","","2-3","11819","37","0","Testing","Stims/Figures/86-J-0-1.bmp","taka:ta","Left","39","4","3","7","P","J","75"
"","","approach-retreat","224","4394294","0.0-224.0","","","2-3","4362","39","0","Testing","Stims/Figures/74-C-20-4.bmp","ma:ma:la","Left","37","4","4","7","S","J","76"
"","","approach-retreat","225","4400890","0.0-225.0","","","2-3","5094","40","1","Testing","Stims/Figures/118-J-0-2.bmp","tapa:ka","Up","40","4","5","7","P","J","77"
"","","approach-retreat","226","4409379","0.0-226.0","","","2-3","6982","40","0","Testing","Stims/Figures/57-C-30-1.bmp","pa:kaka","Up","38","4","6","7","P","J","78"
"","","approach-retreat","227","4419479","0.0-227.0","","","2-3","8596","37","1","Testing","Stims/Figures/57-J-0-1.bmp","ta:pa:ta","Right","37","4","7","7","P","J","79"
"","","approach-retreat","228","4425271","0.0-228.0","","","2-3","4285","37","0","Testing","Stims/Figures/44-C-30-3.bmp","mama:la","Right","39","4","8","7","S","J","80"
"","","approach-retreat","229","4437609","0.0-229.0","","","2-3","10831","37","1","Testing","Stims/Figures/44-J-10-3.bmp","malala","Right","37","4","9","7","S","J","81"
"","","approach-retreat","230","4445005","0.0-230.0","","","2-3","5890","39","0","Testing","Stims/Figures/86-C-30-1.bmp","ta:kaka","Left","37","4","10","7","P","J","82"
"","","approach-retreat","231","4452717","0.0-231.0","","","2-3","6209","38","1","Testing","Stims/Figures/100-J-10-3.bmp","malana","Down","38","4","11","7","S","J","83"
"","","approach-retreat","232","4458898","0.0-232.0","","","2-3","4677","38","0","Testing","Stims/Figures/139-C-20-2.bmp","takata","Down","40","4","12","7","P","J","84"
"","","approach-retreat","233","4464826","0.0-233.0","","","2-3","4424","38","1","Testing","Stims/Figures/93-J-0-1.bmp","paka:ka","Down","38","4","13","7","P","J","85"
"","","approach-retreat","234","4472679","0.0-234.0","","","2-3","6346","38","1","Testing","Stims/Figures/102-C-20-4.bmp","namala","Up","38","4","14","7","S","J","86"
"","","approach-retreat","235","4481527","0.0-235.0","","","2-3","7342","38","1","Testing","Stims/Figures/102-J-10-4.bmp","ma:ma:na","Down","38","4","15","7","S","J","87"
"","","approach-retreat","236","4487676","0.0-236.0","","","2-3","4642","37","0","Testing","Stims/Figures/111-C-30-3.bmp","nala:la","Right","39","4","16","7","S","J","88"
"","","approach-retreat","237","4493511","0.0-237.0","","","2-3","4332","37","1","Testing","Stims/Figures/84-C-20-2.bmp","ta:pa:ka","Left","37","4","17","7","P","J","89"
"","","approach-retreat","238","4501321","0.0-238.0","","","2-3","6308","38","0","Testing","Stims/Figures/19-C-20-4.bmp","na:ma:la","Down","40","4","18","7","S","J","90"
"","","approach-retreat","239","4510057","0.0-239.0","","","2-3","7229","38","0","Testing","Stims/Figures/139-J-0-2.bmp","tapata","Up","40","4","19","7","P","J","91"
"","","approach-retreat","240","4519741","0.0-240.0","","","2-3","8180","37","0","Testing","Stims/Figures/84-J-0-2.bmp","pa:pa:ka","Left","39","4","20","7","P","J","92"
"","","approach-retreat","241","4526741","0.0-241.0","","","2-3","5498","39","1","Testing","Stims/Figures/111-J-10-3.bmp","na:mana","Left","39","4","21","7","S","J","93"
"","","approach-retreat","242","4538901","0.0-242.0","","","2-3","10656","38","0","Testing","Stims/Figures/74-J-10-4.bmp","ma:lala","Up","40","4","22","7","S","J","94"
"","","approach-retreat","243","4545999","0.0-243.0","","","2-3","5594","37","0","Testing","Stims/Figures/118-C-20-2.bmp","tapaka","Right","39","4","23","7","P","J","95"
"","","approach-retreat","244","4552832","0.0-244.0","","","2-3","5329","38","0","Testing","Stims/Figures/93-C-30-1.bmp","pa:ka:ta","Down","40","4","24","7","P","J","96"
"73200","","survey-text","245","4626041","0.0-245.0","","{""Q0"":""1112/2018""}","","","","","","","","","","","","","","",""
