"rt","key_press","trial_type","trial_index","time_elapsed","internal_node_id","view_history","responses","Id","Rt","ResKeyCode","ResCorr","TrialType2","Image","Label","Location","CorrectResponse","Block","BlockTrial","Condition","LabelType","Subcondition","trialNum"
"48128","32","text","0","48145","0.0-0.0-0.0","","","","","","","","","","","","","","","","",""
"72638","","instructions","1","120790","0.0-1.0","[{""page_index"":0,""viewing_time"":72636}]","","","","","","","","","","","","","","","",""
"22113","","survey-multi-choice","2","143005","0.0-2.0","","{""Q0"":""Da"",""Q1"":""Da"",""Q2"":""Da"",""Q3"":""Da"",""Q4"":""Da"",""Q5"":""Da""}","","","","","","","","","","","","","","",""
"","","bio","3","149967","0.0-3.0","","{""age"":""19"",""gender"":""f"",""specify"":""""}","","","","","","","","","","","","","","",""
"","","approach-retreat","4","156098","0.0-4.0","","","2-4","4601","39","0","Training","Stims/Figures/19-J-10-4.bmp","taka:ka","Right","37","1","1","9","P","J","1"
"","","approach-retreat","5","161864","0.0-5.0","","","2-4","4243","40","0","Training","Stims/Figures/7-J-10-4.bmp","fa:shava","Down","38","1","2","9","C1","J","2"
"","","approach-retreat","6","168302","0.0-6.0","","","2-4","4917","38","0","Training","Stims/Figures/19-C-20-4.bmp","za:ha:ha","Down","40","1","3","9","C2","J","3"
"","","approach-retreat","7","175464","0.0-7.0","","","2-4","5640","39","1","Training","Stims/Figures/85-J-0-2.bmp","tapaka","Left","39","1","4","9","P","J","4"
"","","approach-retreat","8","182086","0.0-8.0","","","2-4","5101","37","0","Training","Stims/Figures/144-J-10-3.bmp","ma:lala","Left","39","1","5","9","S","J","5"
"","","approach-retreat","9","188286","0.0-9.0","","","2-4","4678","39","1","Training","Stims/Figures/27-J-0-1.bmp","fafa:sha","Left","39","1","6","9","C1","J","6"
"","","approach-retreat","10","194479","0.0-10.0","","","2-4","4670","40","0","Training","Stims/Figures/7-C-20-4.bmp","ma:mala","Up","38","1","7","9","S","J","7"
"","","approach-retreat","11","201129","0.0-11.0","","","2-4","5127","39","1","Training","Stims/Figures/44-C-30-3.bmp","paka:ta","Right","39","1","8","9","P","J","8"
"","","approach-retreat","12","207790","0.0-12.0","","","2-4","5141","40","0","Training","Stims/Figures/44-J-10-3.bmp","na:ma:na","Down","38","1","9","9","S","J","9"
"","","approach-retreat","13","213398","0.0-13.0","","","2-4","4087","37","0","Training","Stims/Figures/118-J-0-2.bmp","malana","Left","39","1","10","9","S","J","10"
"","","approach-retreat","14","219540","0.0-14.0","","","2-4","4628","40","0","Training","Stims/Figures/27-C-30-1.bmp","zasaha","Up","38","1","11","9","C2","J","11"
"","","approach-retreat","15","225583","0.0-15.0","","","2-4","4529","40","1","Training","Stims/Figures/85-C-20-2.bmp","va:sha:va","Down","40","1","12","9","C1","J","12"
"","","approach-retreat","16","231289","0.0-16.0","","","2-4","4185","38","1","Training","Stims/Figures/118-C-20-2.bmp","malala","Up","38","1","13","9","S","J","13"
"","","approach-retreat","17","238880","0.0-17.0","","","2-4","6070","39","1","Training","Stims/Figures/144-C-30-3.bmp","sasa:za","Right","39","1","14","9","C2","J","14"
"","","approach-retreat","18","245542","0.0-18.0","","","2-4","5114","37","0","Training","Stims/Figures/57-C-30-1.bmp","za:haza","Right","39","1","15","9","C2","J","15"
"","","approach-retreat","19","252832","0.0-19.0","","","2-4","5773","38","0","Training","Stims/Figures/57-J-0-1.bmp","fa:fa:va","Up","40","1","16","9","C1","J","16"
"","","approach-retreat","20","258956","0.0-20.0","","","2-4","4611","39","1","Training","Stims/Figures/144-C-30-3.bmp","sasa:za","Right","39","2","1","9","C2","J","17"
"","","approach-retreat","21","265765","0.0-21.0","","","2-4","5287","37","0","Training","Stims/Figures/27-C-30-1.bmp","zasaha","Right","39","2","2","9","C2","J","18"
"","","approach-retreat","22","271902","0.0-22.0","","","2-4","4615","40","0","Training","Stims/Figures/57-J-0-1.bmp","fa:fa:va","Down","38","2","3","9","C1","J","19"
"","","approach-retreat","23","278026","0.0-23.0","","","2-4","4602","37","1","Training","Stims/Figures/44-C-30-3.bmp","paka:ta","Left","37","2","4","9","P","J","20"
"","","approach-retreat","24","284334","0.0-24.0","","","2-4","4789","39","1","Training","Stims/Figures/27-J-0-1.bmp","fafa:sha","Left","39","2","5","9","C1","J","21"
"","","approach-retreat","25","290032","0.0-25.0","","","2-4","4176","37","0","Training","Stims/Figures/7-J-10-4.bmp","fa:shava","Left","39","2","6","9","C1","J","22"
"","","approach-retreat","26","295704","0.0-26.0","","","2-4","4151","40","1","Training","Stims/Figures/19-C-20-4.bmp","za:ha:ha","Down","40","2","7","9","C2","J","23"
"","","approach-retreat","27","301335","0.0-27.0","","","2-4","4114","38","1","Training","Stims/Figures/57-C-30-1.bmp","za:haza","Up","38","2","8","9","C2","J","24"
"","","approach-retreat","28","307048","0.0-28.0","","","2-4","4191","37","0","Training","Stims/Figures/44-J-10-3.bmp","na:ma:na","Left","39","2","9","9","S","J","25"
"","","approach-retreat","29","312952","0.0-29.0","","","2-4","4382","38","0","Training","Stims/Figures/144-J-10-3.bmp","ma:lala","Up","40","2","10","9","S","J","26"
"","","approach-retreat","30","318693","0.0-30.0","","","2-4","4219","40","0","Training","Stims/Figures/118-C-20-2.bmp","malala","Up","38","2","11","9","S","J","27"
"","","approach-retreat","31","324438","0.0-31.0","","","2-4","4223","38","1","Training","Stims/Figures/7-C-20-4.bmp","ma:mala","Up","38","2","12","9","S","J","28"
"","","approach-retreat","32","330453","0.0-32.0","","","2-4","4492","37","1","Training","Stims/Figures/118-J-0-2.bmp","malana","Right","37","2","13","9","S","J","29"
"","","approach-retreat","33","336966","0.0-33.0","","","2-4","4991","40","1","Training","Stims/Figures/85-C-20-2.bmp","va:sha:va","Down","40","2","14","9","C1","J","30"
"","","approach-retreat","34","344318","0.0-34.0","","","2-4","5831","39","0","Training","Stims/Figures/85-J-0-2.bmp","tapaka","Right","37","2","15","9","P","J","31"
"","","approach-retreat","35","349887","0.0-35.0","","","2-4","4048","38","1","Training","Stims/Figures/19-J-10-4.bmp","taka:ka","Down","38","2","16","9","P","J","32"
"","","approach-retreat","36","355709","0.0-36.0","","","2-4","4300","39","0","Training","Stims/Figures/7-J-10-4.bmp","fa:shava","Right","37","3","1","9","C1","J","33"
"","","approach-retreat","37","361640","0.0-37.0","","","2-4","4408","40","1","Training","Stims/Figures/57-J-0-1.bmp","fa:fa:va","Up","40","3","2","9","C1","J","34"
"","","approach-retreat","38","367586","0.0-38.0","","","2-4","4425","39","1","Training","Stims/Figures/85-J-0-2.bmp","tapaka","Left","39","3","3","9","P","J","35"
"","","approach-retreat","39","373304","0.0-39.0","","","2-4","4194","39","0","Training","Stims/Figures/27-J-0-1.bmp","fafa:sha","Right","37","3","4","9","C1","J","36"
"","","approach-retreat","40","378991","0.0-40.0","","","2-4","4168","37","0","Training","Stims/Figures/19-J-10-4.bmp","taka:ka","Left","39","3","5","9","P","J","37"
"","","approach-retreat","41","384511","0.0-41.0","","","2-4","3999","39","1","Training","Stims/Figures/27-C-30-1.bmp","zasaha","Right","39","3","6","9","C2","J","38"
"","","approach-retreat","42","390239","0.0-42.0","","","2-4","4207","40","1","Training","Stims/Figures/85-C-20-2.bmp","va:sha:va","Down","40","3","7","9","C1","J","39"
"","","approach-retreat","43","395735","0.0-43.0","","","2-4","3977","38","0","Training","Stims/Figures/7-C-20-4.bmp","ma:mala","Down","40","3","8","9","S","J","40"
"","","approach-retreat","44","401813","0.0-44.0","","","2-4","4558","39","1","Training","Stims/Figures/118-J-0-2.bmp","malana","Left","39","3","9","9","S","J","41"
"","","approach-retreat","45","407458","0.0-45.0","","","2-4","4124","40","1","Training","Stims/Figures/144-J-10-3.bmp","ma:lala","Up","40","3","10","9","S","J","42"
"","","approach-retreat","46","413631","0.0-46.0","","","2-4","4651","39","0","Training","Stims/Figures/57-C-30-1.bmp","za:haza","Left","37","3","11","9","C2","J","43"
"","","approach-retreat","47","419639","0.0-47.0","","","2-4","4487","38","1","Training","Stims/Figures/19-C-20-4.bmp","za:ha:ha","Up","38","3","12","9","C2","J","44"
"","","approach-retreat","48","425253","0.0-48.0","","","2-4","4093","38","0","Training","Stims/Figures/44-J-10-3.bmp","na:ma:na","Up","40","3","13","9","S","J","45"
"","","approach-retreat","49","430669","0.0-49.0","","","2-4","3894","39","1","Training","Stims/Figures/118-C-20-2.bmp","malala","Right","39","3","14","9","S","J","46"
"","","approach-retreat","50","436366","0.0-50.0","","","2-4","4174","38","0","Training","Stims/Figures/144-C-30-3.bmp","sasa:za","Down","40","3","15","9","C2","J","47"
"","","approach-retreat","51","441894","0.0-51.0","","","2-4","4007","38","0","Training","Stims/Figures/44-C-30-3.bmp","paka:ta","Down","40","3","16","9","P","J","48"
"","","approach-retreat","52","447494","0.0-52.0","","","2-4","4078","39","1","Training","Stims/Figures/57-J-0-1.bmp","fa:fa:va","Left","39","4","1","9","C1","J","49"
"","","approach-retreat","53","453095","0.0-53.0","","","2-4","4078","39","1","Training","Stims/Figures/144-J-10-3.bmp","ma:lala","Left","39","4","2","9","S","J","50"
"","","approach-retreat","54","458622","0.0-54.0","","","2-4","4006","37","0","Training","Stims/Figures/19-C-20-4.bmp","za:ha:ha","Right","39","4","3","9","C2","J","51"
"","","approach-retreat","55","464335","0.0-55.0","","","2-4","4191","40","0","Training","Stims/Figures/27-C-30-1.bmp","zasaha","Up","38","4","4","9","C2","J","52"
"","","approach-retreat","56","469862","0.0-56.0","","","2-4","4008","38","1","Training","Stims/Figures/118-J-0-2.bmp","malana","Down","38","4","5","9","S","J","53"
"","","approach-retreat","57","475439","0.0-57.0","","","2-4","4054","38","0","Training","Stims/Figures/118-C-20-2.bmp","malala","Down","40","4","6","9","S","J","54"
"","","approach-retreat","58","481078","0.0-58.0","","","2-4","4118","37","1","Training","Stims/Figures/27-J-0-1.bmp","fafa:sha","Right","37","4","7","9","C1","J","55"
"","","approach-retreat","59","486582","0.0-59.0","","","2-4","3983","37","1","Training","Stims/Figures/44-J-10-3.bmp","na:ma:na","Right","37","4","8","9","S","J","56"
"","","approach-retreat","60","492173","0.0-60.0","","","2-4","4068","38","0","Training","Stims/Figures/7-C-20-4.bmp","ma:mala","Down","40","4","9","9","S","J","57"
"","","approach-retreat","61","497734","0.0-61.0","","","2-4","4039","39","1","Training","Stims/Figures/7-J-10-4.bmp","fa:shava","Left","39","4","10","9","C1","J","58"
"","","approach-retreat","62","503895","0.0-62.0","","","2-4","4639","37","0","Training","Stims/Figures/85-C-20-2.bmp","va:sha:va","Right","39","4","11","9","C1","J","59"
"","","approach-retreat","63","509463","0.0-63.0","","","2-4","4048","38","0","Training","Stims/Figures/44-C-30-3.bmp","paka:ta","Down","40","4","12","9","P","J","60"
"","","approach-retreat","64","514965","0.0-64.0","","","2-4","3982","39","1","Training","Stims/Figures/85-J-0-2.bmp","tapaka","Left","39","4","13","9","P","J","61"
"","","approach-retreat","65","520662","0.0-65.0","","","2-4","4176","40","1","Training","Stims/Figures/19-J-10-4.bmp","taka:ka","Up","40","4","14","9","P","J","62"
"","","approach-retreat","66","526325","0.0-66.0","","","2-4","4141","40","0","Training","Stims/Figures/144-C-30-3.bmp","sasa:za","Up","38","4","15","9","C2","J","63"
"","","approach-retreat","67","531905","0.0-67.0","","","2-4","4057","40","0","Training","Stims/Figures/57-C-30-1.bmp","za:haza","Up","38","4","16","9","C2","J","64"
"","","approach-retreat","68","537503","0.0-68.0","","","2-4","4075","40","1","Training","Stims/Figures/7-J-10-4.bmp","fa:shava","Up","40","5","1","9","C1","J","65"
"","","approach-retreat","69","543223","0.0-69.0","","","2-4","4198","38","0","Training","Stims/Figures/27-J-0-1.bmp","fafa:sha","Up","40","5","2","9","C1","J","66"
"","","approach-retreat","70","548870","0.0-70.0","","","2-4","4127","39","0","Training","Stims/Figures/118-C-20-2.bmp","malala","Left","37","5","3","9","S","J","67"
"","","approach-retreat","71","554367","0.0-71.0","","","2-4","3975","38","0","Training","Stims/Figures/85-C-20-2.bmp","va:sha:va","Down","40","5","4","9","C1","J","68"
"","","approach-retreat","72","559956","0.0-72.0","","","2-4","4069","39","1","Training","Stims/Figures/118-J-0-2.bmp","malana","Left","39","5","5","9","S","J","69"
"","","approach-retreat","73","565501","0.0-73.0","","","2-4","4024","38","0","Training","Stims/Figures/44-C-30-3.bmp","paka:ta","Down","40","5","6","9","P","J","70"
"","","approach-retreat","74","571125","0.0-74.0","","","2-4","4102","40","0","Training","Stims/Figures/19-J-10-4.bmp","taka:ka","Down","38","5","7","9","P","J","71"
"","","approach-retreat","75","576678","0.0-75.0","","","2-4","4032","37","1","Training","Stims/Figures/44-J-10-3.bmp","na:ma:na","Right","37","5","8","9","S","J","72"
"","","approach-retreat","76","582213","0.0-76.0","","","2-4","4015","40","0","Training","Stims/Figures/27-C-30-1.bmp","zasaha","Up","38","5","9","9","C2","J","73"
"","","approach-retreat","77","587855","0.0-77.0","","","2-4","4120","39","0","Training","Stims/Figures/7-C-20-4.bmp","ma:mala","Left","37","5","10","9","S","J","74"
"","","approach-retreat","78","593239","0.0-78.0","","","2-4","3863","37","1","Training","Stims/Figures/85-J-0-2.bmp","tapaka","Right","37","5","11","9","P","J","75"
"","","approach-retreat","79","598830","0.0-79.0","","","2-4","4069","39","1","Training","Stims/Figures/144-C-30-3.bmp","sasa:za","Right","39","5","12","9","C2","J","76"
"","","approach-retreat","80","604405","0.0-80.0","","","2-4","4054","40","1","Training","Stims/Figures/144-J-10-3.bmp","ma:lala","Up","40","5","13","9","S","J","77"
"","","approach-retreat","81","609990","0.0-81.0","","","2-4","4063","38","0","Training","Stims/Figures/57-C-30-1.bmp","za:haza","Down","40","5","14","9","C2","J","78"
"","","approach-retreat","82","615854","0.0-82.0","","","2-4","4344","39","1","Training","Stims/Figures/57-J-0-1.bmp","fa:fa:va","Left","39","5","15","9","C1","J","79"
"","","approach-retreat","83","621935","0.0-83.0","","","2-4","4561","39","1","Training","Stims/Figures/19-C-20-4.bmp","za:ha:ha","Right","39","5","16","9","C2","J","80"
"","","approach-retreat","84","627589","0.0-84.0","","","2-4","4134","39","1","Training","Stims/Figures/85-C-20-2.bmp","va:sha:va","Right","39","6","1","9","C1","J","81"
"","","approach-retreat","85","633104","0.0-85.0","","","2-4","3991","37","0","Training","Stims/Figures/57-C-30-1.bmp","za:haza","Right","39","6","2","9","C2","J","82"
"","","approach-retreat","86","638581","0.0-86.0","","","2-4","3956","38","1","Training","Stims/Figures/57-J-0-1.bmp","fa:fa:va","Down","38","6","3","9","C1","J","83"
"","","approach-retreat","87","644078","0.0-87.0","","","2-4","3975","37","0","Training","Stims/Figures/44-J-10-3.bmp","na:ma:na","Left","39","6","4","9","S","J","84"
"","","approach-retreat","88","649688","0.0-88.0","","","2-4","4089","40","1","Training","Stims/Figures/19-J-10-4.bmp","taka:ka","Up","40","6","5","9","P","J","85"
"","","approach-retreat","89","655293","0.0-89.0","","","2-4","4083","38","1","Training","Stims/Figures/27-C-30-1.bmp","zasaha","Up","38","6","6","9","C2","J","86"
"","","approach-retreat","90","660933","0.0-90.0","","","2-4","4117","38","1","Training","Stims/Figures/27-J-0-1.bmp","fafa:sha","Down","38","6","7","9","C1","J","87"
"","","approach-retreat","91","666662","0.0-91.0","","","2-4","4207","38","0","Training","Stims/Figures/7-J-10-4.bmp","fa:shava","Up","40","6","8","9","C1","J","88"
"","","approach-retreat","92","672749","0.0-92.0","","","2-4","4563","40","1","Training","Stims/Figures/19-C-20-4.bmp","za:ha:ha","Down","40","6","9","9","C2","J","89"
"","","approach-retreat","93","678447","0.0-93.0","","","2-4","4177","38","1","Training","Stims/Figures/144-C-30-3.bmp","sasa:za","Up","38","6","10","9","C2","J","90"
"","","approach-retreat","94","684075","0.0-94.0","","","2-4","4108","40","1","Training","Stims/Figures/44-C-30-3.bmp","paka:ta","Down","40","6","11","9","P","J","91"
"","","approach-retreat","95","690069","0.0-95.0","","","2-4","4472","39","0","Training","Stims/Figures/144-J-10-3.bmp","ma:lala","Right","37","6","12","9","S","J","92"
"","","approach-retreat","96","695700","0.0-96.0","","","2-4","4110","39","1","Training","Stims/Figures/118-J-0-2.bmp","malana","Left","39","6","13","9","S","J","93"
"","","approach-retreat","97","701207","0.0-97.0","","","2-4","3986","37","0","Training","Stims/Figures/118-C-20-2.bmp","malala","Right","39","6","14","9","S","J","94"
"","","approach-retreat","98","706910","0.0-98.0","","","2-4","4180","39","0","Training","Stims/Figures/7-C-20-4.bmp","ma:mala","Left","37","6","15","9","S","J","95"
"","","approach-retreat","99","712887","0.0-99.0","","","2-4","4455","37","0","Training","Stims/Figures/85-J-0-2.bmp","tapaka","Left","39","6","16","9","P","J","96"
"","","approach-retreat","100","718550","0.0-100.0","","","2-4","4142","38","0","Training","Stims/Figures/27-C-30-1.bmp","zasaha","Down","40","7","1","9","C2","J","97"
"","","approach-retreat","101","724325","0.0-101.0","","","2-4","4253","40","1","Training","Stims/Figures/27-J-0-1.bmp","fafa:sha","Up","40","7","2","9","C1","J","98"
"","","approach-retreat","102","730069","0.0-102.0","","","2-4","4221","39","1","Training","Stims/Figures/19-J-10-4.bmp","taka:ka","Left","39","7","3","9","P","J","99"
"","","approach-retreat","103","736165","0.0-103.0","","","2-4","4575","39","0","Training","Stims/Figures/144-C-30-3.bmp","sasa:za","Left","37","7","4","9","C2","J","100"
"","","approach-retreat","104","741933","0.0-104.0","","","2-4","4247","38","0","Training","Stims/Figures/85-C-20-2.bmp","va:sha:va","Down","40","7","5","9","C1","J","101"
"","","approach-retreat","105","747582","0.0-105.0","","","2-4","4128","40","1","Training","Stims/Figures/44-J-10-3.bmp","na:ma:na","Up","40","7","6","9","S","J","102"
"","","approach-retreat","106","753341","0.0-106.0","","","2-4","4238","38","1","Training","Stims/Figures/144-J-10-3.bmp","ma:lala","Down","38","7","7","9","S","J","103"
"","","approach-retreat","107","758919","0.0-107.0","","","2-4","4058","38","0","Training","Stims/Figures/19-C-20-4.bmp","za:ha:ha","Down","40","7","8","9","C2","J","104"
"","","approach-retreat","108","764412","0.0-108.0","","","2-4","3974","39","1","Training","Stims/Figures/85-J-0-2.bmp","tapaka","Left","39","7","9","9","P","J","105"
"","","approach-retreat","109","770030","0.0-109.0","","","2-4","4095","37","0","Training","Stims/Figures/44-C-30-3.bmp","paka:ta","Right","39","7","10","9","P","J","106"
"","","approach-retreat","110","775639","0.0-110.0","","","2-4","4088","40","1","Training","Stims/Figures/118-J-0-2.bmp","malana","Up","40","7","11","9","S","J","107"
"","","approach-retreat","111","781159","0.0-111.0","","","2-4","4001","37","1","Training","Stims/Figures/7-J-10-4.bmp","fa:shava","Right","37","7","12","9","C1","J","108"
"","","approach-retreat","112","786765","0.0-112.0","","","2-4","4084","39","0","Training","Stims/Figures/118-C-20-2.bmp","malala","Left","37","7","13","9","S","J","109"
"","","approach-retreat","113","792416","0.0-113.0","","","2-4","4130","40","0","Training","Stims/Figures/7-C-20-4.bmp","ma:mala","Up","38","7","14","9","S","J","110"
"","","approach-retreat","114","798445","0.0-114.0","","","2-4","4505","39","0","Training","Stims/Figures/57-J-0-1.bmp","fa:fa:va","Right","37","7","15","9","C1","J","111"
"","","approach-retreat","115","804095","0.0-115.0","","","2-4","4128","37","0","Training","Stims/Figures/57-C-30-1.bmp","za:haza","Right","39","7","16","9","C2","J","112"
"","","approach-retreat","116","809758","0.0-116.0","","","2-4","4143","40","0","Training","Stims/Figures/27-C-30-1.bmp","zasaha","Up","38","8","1","9","C2","J","113"
"","","approach-retreat","117","815790","0.0-117.0","","","2-4","4511","39","0","Training","Stims/Figures/57-J-0-1.bmp","fa:fa:va","Right","37","8","2","9","C1","J","114"
"","","approach-retreat","118","821336","0.0-118.0","","","2-4","4023","38","1","Training","Stims/Figures/85-J-0-2.bmp","tapaka","Down","38","8","3","9","P","J","115"
"","","approach-retreat","119","826967","0.0-119.0","","","2-4","4110","40","0","Training","Stims/Figures/7-C-20-4.bmp","ma:mala","Up","38","8","4","9","S","J","116"
"","","approach-retreat","120","832582","0.0-120.0","","","2-4","4095","37","1","Training","Stims/Figures/19-J-10-4.bmp","taka:ka","Right","37","8","5","9","P","J","117"
"","","approach-retreat","121","838160","0.0-121.0","","","2-4","4056","37","1","Training","Stims/Figures/27-J-0-1.bmp","fafa:sha","Right","37","8","6","9","C1","J","118"
"","","approach-retreat","122","843839","0.0-122.0","","","2-4","4155","39","1","Training","Stims/Figures/118-J-0-2.bmp","malana","Left","39","8","7","9","S","J","119"
"","","approach-retreat","123","850502","0.0-123.0","","","2-4","5142","38","0","Training","Stims/Figures/85-C-20-2.bmp","va:sha:va","Down","40","8","8","9","C1","J","120"
"","","approach-retreat","124","856111","0.0-124.0","","","2-4","4087","38","0","Training","Stims/Figures/57-C-30-1.bmp","za:haza","Down","40","8","9","9","C2","J","121"
"","","approach-retreat","125","861815","0.0-125.0","","","2-4","4183","40","0","Training","Stims/Figures/118-C-20-2.bmp","malala","Up","38","8","10","9","S","J","122"
"","","approach-retreat","126","867342","0.0-126.0","","","2-4","4006","39","1","Training","Stims/Figures/144-J-10-3.bmp","ma:lala","Left","39","8","11","9","S","J","123"
"","","approach-retreat","127","873016","0.0-127.0","","","2-4","4158","40","0","Training","Stims/Figures/144-C-30-3.bmp","sasa:za","Up","38","8","12","9","C2","J","124"
"","","approach-retreat","128","879062","0.0-128.0","","","2-4","4513","39","1","Training","Stims/Figures/44-J-10-3.bmp","na:ma:na","Left","39","8","13","9","S","J","125"
"","","approach-retreat","129","884898","0.0-129.0","","","2-4","4313","37","1","Training","Stims/Figures/7-J-10-4.bmp","fa:shava","Right","37","8","14","9","C1","J","126"
"","","approach-retreat","130","890526","0.0-130.0","","","2-4","4107","40","1","Training","Stims/Figures/19-C-20-4.bmp","za:ha:ha","Down","40","8","15","9","C2","J","127"
"","","approach-retreat","131","896229","0.0-131.0","","","2-4","4181","39","0","Training","Stims/Figures/44-C-30-3.bmp","paka:ta","Left","37","8","16","9","P","J","128"
"","","approach-retreat","132","902030","0.0-132.0","","","2-4","4278","38","0","Training","Stims/Figures/19-C-20-4.bmp","za:ha:ha","Down","40","9","1","9","C2","J","129"
"","","approach-retreat","133","907641","0.0-133.0","","","2-4","4091","40","1","Training","Stims/Figures/118-J-0-2.bmp","malana","Up","40","9","2","9","S","J","130"
"","","approach-retreat","134","913214","0.0-134.0","","","2-4","4048","39","1","Training","Stims/Figures/27-J-0-1.bmp","fafa:sha","Left","39","9","3","9","C1","J","131"
"","","approach-retreat","135","918742","0.0-135.0","","","2-4","4005","40","0","Training","Stims/Figures/44-C-30-3.bmp","paka:ta","Up","38","9","4","9","P","J","132"
"","","approach-retreat","136","924269","0.0-136.0","","","2-4","4005","39","0","Training","Stims/Figures/85-C-20-2.bmp","va:sha:va","Left","37","9","5","9","C1","J","133"
"","","approach-retreat","137","929966","0.0-137.0","","","2-4","4177","37","1","Training","Stims/Figures/19-J-10-4.bmp","taka:ka","Right","37","9","6","9","P","J","134"
"","","approach-retreat","138","935564","0.0-138.0","","","2-4","4076","37","0","Training","Stims/Figures/57-C-30-1.bmp","za:haza","Right","39","9","7","9","C2","J","135"
"","","approach-retreat","139","941368","0.0-139.0","","","2-4","4284","38","1","Training","Stims/Figures/7-J-10-4.bmp","fa:shava","Down","38","9","8","9","C1","J","136"
"","","approach-retreat","140","947340","0.0-140.0","","","2-4","4452","40","0","Training","Stims/Figures/118-C-20-2.bmp","malala","Up","38","9","9","9","S","J","137"
"","","approach-retreat","141","952798","0.0-141.0","","","2-4","3937","37","0","Training","Stims/Figures/7-C-20-4.bmp","ma:mala","Right","39","9","10","9","S","J","138"
"","","approach-retreat","142","958722","0.0-142.0","","","2-4","4402","40","0","Training","Stims/Figures/85-J-0-2.bmp","tapaka","Down","38","9","11","9","P","J","139"
"","","approach-retreat","143","964334","0.0-143.0","","","2-4","4084","40","0","Training","Stims/Figures/27-C-30-1.bmp","zasaha","Up","38","9","12","9","C2","J","140"
"","","approach-retreat","144","969884","0.0-144.0","","","2-4","4028","38","1","Training","Stims/Figures/57-J-0-1.bmp","fa:fa:va","Down","38","9","13","9","C1","J","141"
"","","approach-retreat","145","975614","0.0-145.0","","","2-4","4207","39","0","Training","Stims/Figures/44-J-10-3.bmp","na:ma:na","Right","37","9","14","9","S","J","142"
"","","approach-retreat","146","981252","0.0-146.0","","","2-4","4118","37","1","Training","Stims/Figures/144-C-30-3.bmp","sasa:za","Left","37","9","15","9","C2","J","143"
"","","approach-retreat","147","986783","0.0-147.0","","","2-4","4009","39","1","Training","Stims/Figures/144-J-10-3.bmp","ma:lala","Left","39","9","16","9","S","J","144"
"17270","","instructions","148","1004054","0.0-148.0","[{""page_index"":0,""viewing_time"":17269}]","","","","","","","","","","","","","","","",""
"","","approach-retreat","149","1010148","0.0-149.0","","","2-4","4578","40","0","Testing","Stims/Figures/144-C-30-3.bmp","sasa:za","Up","38","1","1","9","C2","J","1"
"","","approach-retreat","150","1015748","0.0-150.0","","","2-4","4082","37","1","Testing","Stims/Figures/144-J-10-3.bmp","ma:lala","Right","37","1","2","9","S","J","2"
"","","approach-retreat","151","1021428","0.0-151.0","","","2-4","4162","37","0","Testing","Stims/Figures/102-C-20-4.bmp","vasha:va","Right","39","1","3","9","C1","J","3"
"","","approach-retreat","152","1027846","0.0-152.0","","","2-4","4900","40","1","Testing","Stims/Figures/71-C-30-1.bmp","pa:pa:ta","Down","40","1","4","9","P","J","4"
"","","approach-retreat","153","1033443","0.0-153.0","","","2-4","4082","38","1","Testing","Stims/Figures/19-J-10-4.bmp","taka:ka","Down","38","1","5","9","P","J","5"
"","","approach-retreat","154","1039060","0.0-154.0","","","2-4","4101","40","1","Testing","Stims/Figures/7-C-20-4.bmp","ma:mala","Down","40","1","6","9","S","J","6"
"","","approach-retreat","155","1045180","0.0-155.0","","","2-4","4602","39","1","Testing","Stims/Figures/94-J-0-2.bmp","sa:ha:ha","Left","39","1","7","9","C2","J","7"
"","","approach-retreat","156","1051325","0.0-156.0","","","2-4","4620","37","1","Testing","Stims/Figures/94-C-20-2.bmp","ta:pa:ka","Left","37","1","8","9","P","J","8"
"","","approach-retreat","157","1056981","0.0-157.0","","","2-4","4139","39","0","Testing","Stims/Figures/44-C-30-3.bmp","paka:ta","Left","37","1","9","9","P","J","9"
"","","approach-retreat","158","1062541","0.0-158.0","","","2-4","4041","39","0","Testing","Stims/Figures/118-C-20-2.bmp","malala","Left","37","1","10","9","S","J","10"
"","","approach-retreat","159","1068236","0.0-159.0","","","2-4","4179","37","1","Testing","Stims/Figures/85-J-0-2.bmp","tapaka","Right","37","1","11","9","P","J","11"
"","","approach-retreat","160","1073838","0.0-160.0","","","2-4","4084","40","1","Testing","Stims/Figures/57-J-0-1.bmp","fa:fa:va","Up","40","1","12","9","C1","J","12"
"","","approach-retreat","161","1079597","0.0-161.0","","","2-4","4242","38","1","Testing","Stims/Figures/118-J-0-2.bmp","malana","Down","38","1","13","9","S","J","13"
"","","approach-retreat","162","1085269","0.0-162.0","","","2-4","4155","40","1","Testing","Stims/Figures/102-J-10-4.bmp","va:shasha","Up","40","1","14","9","C1","J","14"
"","","approach-retreat","163","1090973","0.0-163.0","","","2-4","4187","39","0","Testing","Stims/Figures/7-J-10-4.bmp","fa:shava","Right","37","1","15","9","C1","J","15"
"","","approach-retreat","164","1096596","0.0-164.0","","","2-4","4106","39","0","Testing","Stims/Figures/100-C-30-3.bmp","fa:sha:sha","Left","37","1","16","9","C1","J","16"
"","","approach-retreat","165","1102452","0.0-165.0","","","2-4","4334","39","0","Testing","Stims/Figures/71-J-0-1.bmp","zaha:za","Right","37","1","17","9","C2","J","17"
"","","approach-retreat","166","1108109","0.0-166.0","","","2-4","4140","40","0","Testing","Stims/Figures/100-J-10-3.bmp","ma:lana","Down","38","1","18","9","S","J","18"
"","","approach-retreat","167","1113780","0.0-167.0","","","2-4","4146","39","0","Testing","Stims/Figures/85-C-20-2.bmp","va:sha:va","Left","37","1","19","9","C1","J","19"
"","","approach-retreat","168","1119382","0.0-168.0","","","2-4","4083","40","0","Testing","Stims/Figures/57-C-30-1.bmp","za:haza","Up","38","1","20","9","C2","J","20"
"","","approach-retreat","169","1124988","0.0-169.0","","","2-4","4090","40","1","Testing","Stims/Figures/27-J-0-1.bmp","fafa:sha","Up","40","1","21","9","C1","J","21"
"","","approach-retreat","170","1130581","0.0-170.0","","","2-4","4076","38","1","Testing","Stims/Figures/27-C-30-1.bmp","zasaha","Up","38","1","22","9","C2","J","22"
"","","approach-retreat","171","1136357","0.0-171.0","","","2-4","4258","40","1","Testing","Stims/Figures/19-C-20-4.bmp","za:ha:ha","Down","40","1","23","9","C2","J","23"
"","","approach-retreat","172","1142021","0.0-172.0","","","2-4","4149","39","0","Testing","Stims/Figures/44-J-10-3.bmp","na:ma:na","Right","37","1","24","9","S","J","24"
"","","approach-retreat","173","1147732","0.0-173.0","","","2-4","4195","39","1","Testing","Stims/Figures/7-C-20-4.bmp","ma:mala","Right","39","2","1","9","S","J","25"
"","","approach-retreat","174","1153382","0.0-174.0","","","2-4","4133","39","1","Testing","Stims/Figures/102-J-10-4.bmp","va:shasha","Left","39","2","2","9","C1","J","26"
"","","approach-retreat","175","1159012","0.0-175.0","","","2-4","4113","38","1","Testing","Stims/Figures/71-J-0-1.bmp","zaha:za","Down","38","2","3","9","C2","J","27"
"","","approach-retreat","176","1164605","0.0-176.0","","","2-4","4077","39","0","Testing","Stims/Figures/19-J-10-4.bmp","taka:ka","Right","37","2","4","9","P","J","28"
"","","approach-retreat","177","1170228","0.0-177.0","","","2-4","4106","40","1","Testing","Stims/Figures/57-J-0-1.bmp","fa:fa:va","Up","40","2","5","9","C1","J","29"
"","","approach-retreat","178","1175782","0.0-178.0","","","2-4","4037","39","0","Testing","Stims/Figures/57-C-30-1.bmp","za:haza","Left","37","2","6","9","C2","J","30"
"","","approach-retreat","179","1181349","0.0-179.0","","","2-4","4049","40","1","Testing","Stims/Figures/27-J-0-1.bmp","fafa:sha","Up","40","2","7","9","C1","J","31"
"","","approach-retreat","180","1186902","0.0-180.0","","","2-4","4037","40","1","Testing","Stims/Figures/94-J-0-2.bmp","sa:ha:ha","Up","40","2","8","9","C2","J","32"
"","","approach-retreat","181","1192556","0.0-181.0","","","2-4","4138","38","1","Testing","Stims/Figures/44-J-10-3.bmp","na:ma:na","Down","38","2","9","9","S","J","33"
"","","approach-retreat","182","1198221","0.0-182.0","","","2-4","4149","39","1","Testing","Stims/Figures/102-C-20-4.bmp","vasha:va","Right","39","2","10","9","C1","J","34"
"","","approach-retreat","183","1203925","0.0-183.0","","","2-4","4186","39","0","Testing","Stims/Figures/118-C-20-2.bmp","malala","Left","37","2","11","9","S","J","35"
"","","approach-retreat","184","1209581","0.0-184.0","","","2-4","4140","39","1","Testing","Stims/Figures/100-J-10-3.bmp","ma:lana","Left","39","2","12","9","S","J","36"
"","","approach-retreat","185","1215299","0.0-185.0","","","2-4","4202","37","0","Testing","Stims/Figures/118-J-0-2.bmp","malana","Left","39","2","13","9","S","J","37"
"","","approach-retreat","186","1220862","0.0-186.0","","","2-4","4043","38","0","Testing","Stims/Figures/44-C-30-3.bmp","paka:ta","Down","40","2","14","9","P","J","38"
"","","approach-retreat","187","1226491","0.0-187.0","","","2-4","4114","38","1","Testing","Stims/Figures/144-J-10-3.bmp","ma:lala","Down","38","2","15","9","S","J","39"
"","","approach-retreat","188","1231990","0.0-188.0","","","2-4","3982","37","0","Testing","Stims/Figures/71-C-30-1.bmp","pa:pa:ta","Right","39","2","16","9","P","J","40"
"","","approach-retreat","189","1237516","0.0-189.0","","","2-4","4010","38","0","Testing","Stims/Figures/19-C-20-4.bmp","za:ha:ha","Down","40","2","17","9","C2","J","41"
"","","approach-retreat","190","1243141","0.0-190.0","","","2-4","4107","40","1","Testing","Stims/Figures/85-J-0-2.bmp","tapaka","Up","40","2","18","9","P","J","42"
"","","approach-retreat","191","1249148","0.0-191.0","","","2-4","4489","40","0","Testing","Stims/Figures/94-C-20-2.bmp","ta:pa:ka","Up","38","2","19","9","P","J","43"
"","","approach-retreat","192","1254726","0.0-192.0","","","2-4","4060","39","0","Testing","Stims/Figures/85-C-20-2.bmp","va:sha:va","Left","37","2","20","9","C1","J","44"
"","","approach-retreat","193","1260709","0.0-193.0","","","2-4","4467","38","1","Testing","Stims/Figures/144-C-30-3.bmp","sasa:za","Up","38","2","21","9","C2","J","45"
"","","approach-retreat","194","1266422","0.0-194.0","","","2-4","4196","39","1","Testing","Stims/Figures/27-C-30-1.bmp","zasaha","Right","39","2","22","9","C2","J","46"
"","","approach-retreat","195","1272093","0.0-195.0","","","2-4","4152","39","0","Testing","Stims/Figures/7-J-10-4.bmp","fa:shava","Right","37","2","23","9","C1","J","47"
"","","approach-retreat","196","1277956","0.0-196.0","","","2-4","4347","38","0","Testing","Stims/Figures/100-C-30-3.bmp","fa:sha:sha","Down","40","2","24","9","C1","J","48"
"","","approach-retreat","197","1285003","0.0-197.0","","","2-4","5531","40","0","Testing","Stims/Figures/27-C-30-1.bmp","zasaha","Up","38","3","1","9","C2","J","49"
"","","approach-retreat","198","1290589","0.0-198.0","","","2-4","4069","38","0","Testing","Stims/Figures/118-J-0-2.bmp","malana","Up","40","3","2","9","S","J","50"
"","","approach-retreat","199","1296100","0.0-199.0","","","2-4","3994","39","1","Testing","Stims/Figures/44-J-10-3.bmp","na:ma:na","Left","39","3","3","9","S","J","51"
"","","approach-retreat","200","1301701","0.0-200.0","","","2-4","4085","37","0","Testing","Stims/Figures/94-C-20-2.bmp","ta:pa:ka","Right","39","3","4","9","P","J","52"
"","","approach-retreat","201","1307421","0.0-201.0","","","2-4","4204","39","1","Testing","Stims/Figures/102-C-20-4.bmp","vasha:va","Right","39","3","5","9","C1","J","53"
"","","approach-retreat","202","1313021","0.0-202.0","","","2-4","4085","38","1","Testing","Stims/Figures/71-J-0-1.bmp","zaha:za","Down","38","3","6","9","C2","J","54"
"","","approach-retreat","203","1318556","0.0-203.0","","","2-4","4020","37","1","Testing","Stims/Figures/19-J-10-4.bmp","taka:ka","Right","37","3","7","9","P","J","55"
"","","approach-retreat","204","1324365","0.0-204.0","","","2-4","4292","38","0","Testing","Stims/Figures/57-C-30-1.bmp","za:haza","Down","40","3","8","9","C2","J","56"
"","","approach-retreat","205","1330005","0.0-205.0","","","2-4","4122","39","1","Testing","Stims/Figures/94-J-0-2.bmp","sa:ha:ha","Left","39","3","9","9","C2","J","57"
"","","approach-retreat","206","1335845","0.0-206.0","","","2-4","4323","39","1","Testing","Stims/Figures/85-C-20-2.bmp","va:sha:va","Right","39","3","10","9","C1","J","58"
"","","approach-retreat","207","1341756","0.0-207.0","","","2-4","4395","40","0","Testing","Stims/Figures/71-C-30-1.bmp","pa:pa:ta","Up","38","3","11","9","P","J","59"
"","","approach-retreat","208","1347292","0.0-208.0","","","2-4","4020","37","1","Testing","Stims/Figures/85-J-0-2.bmp","tapaka","Right","37","3","12","9","P","J","60"
"","","approach-retreat","209","1353012","0.0-209.0","","","2-4","4203","38","0","Testing","Stims/Figures/102-J-10-4.bmp","va:shasha","Up","40","3","13","9","C1","J","61"
"","","approach-retreat","210","1358909","0.0-210.0","","","2-4","4381","40","0","Testing","Stims/Figures/19-C-20-4.bmp","za:ha:ha","Up","38","3","14","9","C2","J","62"
"","","approach-retreat","211","1364468","0.0-211.0","","","2-4","4043","38","0","Testing","Stims/Figures/144-C-30-3.bmp","sasa:za","Down","40","3","15","9","C2","J","63"
"","","approach-retreat","212","1370198","0.0-212.0","","","2-4","4214","38","1","Testing","Stims/Figures/100-J-10-3.bmp","ma:lana","Down","38","3","16","9","S","J","64"
"","","approach-retreat","213","1375773","0.0-213.0","","","2-4","4058","39","0","Testing","Stims/Figures/100-C-30-3.bmp","fa:sha:sha","Left","37","3","17","9","C1","J","65"
"","","approach-retreat","214","1381309","0.0-214.0","","","2-4","4021","38","1","Testing","Stims/Figures/144-J-10-3.bmp","ma:lala","Down","38","3","18","9","S","J","66"
"","","approach-retreat","215","1386813","0.0-215.0","","","2-4","3988","37","1","Testing","Stims/Figures/27-J-0-1.bmp","fafa:sha","Right","37","3","19","9","C1","J","67"
"","","approach-retreat","216","1392671","0.0-216.0","","","2-4","4342","39","1","Testing","Stims/Figures/7-J-10-4.bmp","fa:shava","Left","39","3","20","9","C1","J","68"
"","","approach-retreat","217","1398612","0.0-217.0","","","2-4","4424","39","0","Testing","Stims/Figures/7-C-20-4.bmp","ma:mala","Left","37","3","21","9","S","J","69"
"","","approach-retreat","218","1404285","0.0-218.0","","","2-4","4154","39","0","Testing","Stims/Figures/118-C-20-2.bmp","malala","Left","37","3","22","9","S","J","70"
"","","approach-retreat","219","1409908","0.0-219.0","","","2-4","4107","38","1","Testing","Stims/Figures/57-J-0-1.bmp","fa:fa:va","Down","38","3","23","9","C1","J","71"
"","","approach-retreat","220","1415941","0.0-220.0","","","2-4","4514","40","0","Testing","Stims/Figures/44-C-30-3.bmp","paka:ta","Up","38","3","24","9","P","J","72"
"","","approach-retreat","221","1421595","0.0-221.0","","","2-4","4138","38","1","Testing","Stims/Figures/144-C-30-3.bmp","sasa:za","Up","38","4","1","9","C2","J","73"
"","","approach-retreat","222","1427741","0.0-222.0","","","2-4","4628","40","0","Testing","Stims/Figures/71-C-30-1.bmp","pa:pa:ta","Up","38","4","2","9","P","J","74"
"","","approach-retreat","223","1433325","0.0-223.0","","","2-4","4065","38","1","Testing","Stims/Figures/44-J-10-3.bmp","na:ma:na","Down","38","4","3","9","S","J","75"
"","","approach-retreat","224","1438934","0.0-224.0","","","2-4","4085","38","1","Testing","Stims/Figures/7-J-10-4.bmp","fa:shava","Down","38","4","4","9","C1","J","76"
"","","approach-retreat","225","1444684","0.0-225.0","","","2-4","4234","39","0","Testing","Stims/Figures/85-J-0-2.bmp","tapaka","Right","37","4","5","9","P","J","77"
"","","approach-retreat","226","1450438","0.0-226.0","","","2-4","4237","39","0","Testing","Stims/Figures/100-C-30-3.bmp","fa:sha:sha","Left","37","4","6","9","C1","J","78"
"","","approach-retreat","227","1456301","0.0-227.0","","","2-4","4344","37","1","Testing","Stims/Figures/19-J-10-4.bmp","taka:ka","Right","37","4","7","9","P","J","79"
"","","approach-retreat","228","1461909","0.0-228.0","","","2-4","4092","39","1","Testing","Stims/Figures/27-J-0-1.bmp","fafa:sha","Left","39","4","8","9","C1","J","80"
"","","approach-retreat","229","1467917","0.0-229.0","","","2-4","4492","39","0","Testing","Stims/Figures/19-C-20-4.bmp","za:ha:ha","Left","37","4","9","9","C2","J","81"
"","","approach-retreat","230","1473813","0.0-230.0","","","2-4","4379","39","0","Testing","Stims/Figures/94-J-0-2.bmp","sa:ha:ha","Right","37","4","10","9","C2","J","82"
"","","approach-retreat","231","1479644","0.0-231.0","","","2-4","4315","40","0","Testing","Stims/Figures/118-C-20-2.bmp","malala","Up","38","4","11","9","S","J","83"
"","","approach-retreat","232","1485270","0.0-232.0","","","2-4","4112","37","1","Testing","Stims/Figures/144-J-10-3.bmp","ma:lala","Right","37","4","12","9","S","J","84"
"","","approach-retreat","233","1491069","0.0-233.0","","","2-4","4283","40","0","Testing","Stims/Figures/57-J-0-1.bmp","fa:fa:va","Down","38","4","13","9","C1","J","85"
"","","approach-retreat","234","1496670","0.0-234.0","","","2-4","4085","37","0","Testing","Stims/Figures/7-C-20-4.bmp","ma:mala","Right","39","4","14","9","S","J","86"
"","","approach-retreat","235","1502414","0.0-235.0","","","2-4","4231","38","0","Testing","Stims/Figures/27-C-30-1.bmp","zasaha","Down","40","4","15","9","C2","J","87"
"","","approach-retreat","236","1508102","0.0-236.0","","","2-4","4171","38","1","Testing","Stims/Figures/71-J-0-1.bmp","zaha:za","Down","38","4","16","9","C2","J","88"
"","","approach-retreat","237","1513773","0.0-237.0","","","2-4","4155","39","0","Testing","Stims/Figures/57-C-30-1.bmp","za:haza","Left","37","4","17","9","C2","J","89"
"","","approach-retreat","238","1519404","0.0-238.0","","","2-4","4115","40","0","Testing","Stims/Figures/44-C-30-3.bmp","paka:ta","Up","38","4","18","9","P","J","90"
"","","approach-retreat","239","1525091","0.0-239.0","","","2-4","4169","39","0","Testing","Stims/Figures/85-C-20-2.bmp","va:sha:va","Left","37","4","19","9","C1","J","91"
"","","approach-retreat","240","1530989","0.0-240.0","","","2-4","4379","40","0","Testing","Stims/Figures/94-C-20-2.bmp","ta:pa:ka","Up","38","4","20","9","P","J","92"
"","","approach-retreat","241","1536724","0.0-241.0","","","2-4","4218","38","1","Testing","Stims/Figures/102-J-10-4.bmp","va:shasha","Down","38","4","21","9","C1","J","93"
"","","approach-retreat","242","1542709","0.0-242.0","","","2-4","4468","38","0","Testing","Stims/Figures/118-J-0-2.bmp","malana","Up","40","4","22","9","S","J","94"
"","","approach-retreat","243","1548333","0.0-243.0","","","2-4","4108","39","1","Testing","Stims/Figures/100-J-10-3.bmp","ma:lana","Left","39","4","23","9","S","J","95"
"","","approach-retreat","244","1553869","0.0-244.0","","","2-4","4022","37","0","Testing","Stims/Figures/102-C-20-4.bmp","vasha:va","Right","39","4","24","9","C1","J","96"
"106493","","survey-text","245","1660375","0.0-245.0","","{""Q0"":""1044/2018""}","","","","","","","","","","","","","","",""
