"rt","key_press","trial_type","trial_index","time_elapsed","internal_node_id","view_history","responses","Id","Rt","ResKeyCode","ResCorr","TrialType2","Image","Label","Location","CorrectResponse","Block","BlockTrial","Condition","LabelType","Subcondition","trialNum"
"13356","32","text","0","13359","0.0-0.0-0.0","","","","","","","","","","","","","","","","",""
"111400","","instructions","1","124760","0.0-1.0","[{""page_index"":0,""viewing_time"":111399}]","","","","","","","","","","","","","","","",""
"28662","","survey-multi-choice","2","153448","0.0-2.0","","{""Q0"":""Da"",""Q1"":""Da"",""Q2"":""Da"",""Q3"":""Da"",""Q4"":""Da"",""Q5"":""Da""}","","","","","","","","","","","","","","",""
"","","bio","3","162378","0.0-3.0","","{""age"":""19"",""gender"":""f"",""specify"":""""}","","","","","","","","","","","","","","",""
"","","approach-retreat","4","188253","0.0-4.0","","","2-5","24360","40","1","Training","Stims/Figures/100-J-10-3.bmp","malana","Up","40","1","1","7","S","J","1"
"","","approach-retreat","5","209255","0.0-5.0","","","2-5","19496","39","0","Training","Stims/Figures/84-C-20-2.bmp","ta:pa:ka","Left","37","1","2","7","P","J","2"
"","","approach-retreat","6","223330","0.0-6.0","","","2-5","12569","38","1","Training","Stims/Figures/102-J-10-4.bmp","ma:ma:na","Down","38","1","3","7","S","J","3"
"","","approach-retreat","7","230341","0.0-7.0","","","2-5","5503","37","0","Training","Stims/Figures/19-C-20-4.bmp","na:ma:la","Right","39","1","4","7","S","J","4"
"","","approach-retreat","8","239071","0.0-8.0","","","2-5","7223","37","1","Training","Stims/Figures/111-C-30-3.bmp","nala:la","Left","37","1","5","7","S","J","5"
"","","approach-retreat","9","247924","0.0-9.0","","","2-5","7342","40","1","Training","Stims/Figures/118-J-0-2.bmp","tapa:ka","Up","40","1","6","7","P","J","6"
"","","approach-retreat","10","255867","0.0-10.0","","","2-5","6437","37","0","Training","Stims/Figures/19-J-10-4.bmp","mala:la","Left","39","1","7","7","S","J","7"
"","","approach-retreat","11","263978","0.0-11.0","","","2-5","6605","38","1","Training","Stims/Figures/86-J-0-1.bmp","taka:ta","Down","38","1","8","7","P","J","8"
"","","approach-retreat","12","272496","0.0-12.0","","","2-5","7010","39","1","Training","Stims/Figures/57-C-30-1.bmp","pa:kaka","Right","39","1","9","7","P","J","9"
"","","approach-retreat","13","280892","0.0-13.0","","","2-5","6889","37","1","Training","Stims/Figures/111-J-10-3.bmp","na:mana","Right","37","1","10","7","S","J","10"
"","","approach-retreat","14","288728","0.0-14.0","","","2-5","6328","39","0","Training","Stims/Figures/57-J-0-1.bmp","ta:pa:ta","Right","37","1","11","7","P","J","11"
"","","approach-retreat","15","295513","0.0-15.0","","","2-5","5279","40","0","Training","Stims/Figures/102-C-20-4.bmp","namala","Up","38","1","12","7","S","J","12"
"","","approach-retreat","16","302231","0.0-16.0","","","2-5","5211","38","1","Training","Stims/Figures/84-J-0-2.bmp","pa:pa:ka","Down","38","1","13","7","P","J","13"
"","","approach-retreat","17","309178","0.0-17.0","","","2-5","5441","39","0","Training","Stims/Figures/100-C-30-3.bmp","namana","Left","37","1","14","7","S","J","14"
"","","approach-retreat","18","317578","0.0-18.0","","","2-5","6893","40","0","Training","Stims/Figures/118-C-20-2.bmp","tapaka","Up","38","1","15","7","P","J","15"
"","","approach-retreat","19","324245","0.0-19.0","","","2-5","5159","38","0","Training","Stims/Figures/86-C-30-1.bmp","ta:kaka","Down","40","1","16","7","P","J","16"
"","","approach-retreat","20","331903","0.0-20.0","","","2-5","6149","38","1","Training","Stims/Figures/102-J-10-4.bmp","ma:ma:na","Down","38","2","1","7","S","J","17"
"","","approach-retreat","21","338459","0.0-21.0","","","2-5","5051","37","1","Training","Stims/Figures/100-C-30-3.bmp","namana","Left","37","2","2","7","S","J","18"
"","","approach-retreat","22","346995","0.0-22.0","","","2-5","7027","38","1","Training","Stims/Figures/19-J-10-4.bmp","mala:la","Down","38","2","3","7","S","J","19"
"","","approach-retreat","23","358286","0.0-23.0","","","2-5","9785","38","0","Training","Stims/Figures/118-J-0-2.bmp","tapa:ka","Up","40","2","4","7","P","J","20"
"","","approach-retreat","24","365279","0.0-24.0","","","2-5","5487","37","0","Training","Stims/Figures/57-J-0-1.bmp","ta:pa:ta","Left","39","2","5","7","P","J","21"
"","","approach-retreat","25","371229","0.0-25.0","","","2-5","4444","38","0","Training","Stims/Figures/57-C-30-1.bmp","pa:kaka","Down","40","2","6","7","P","J","22"
"","","approach-retreat","26","377028","0.0-26.0","","","2-5","4293","38","0","Training","Stims/Figures/86-C-30-1.bmp","ta:kaka","Down","40","2","7","7","P","J","23"
"","","approach-retreat","27","385657","0.0-27.0","","","2-5","7124","39","0","Training","Stims/Figures/102-C-20-4.bmp","namala","Left","37","2","8","7","S","J","24"
"","","approach-retreat","28","391875","0.0-28.0","","","2-5","4710","40","0","Training","Stims/Figures/84-C-20-2.bmp","ta:pa:ka","Up","38","2","9","7","P","J","25"
"","","approach-retreat","29","398235","0.0-29.0","","","2-5","4854","37","0","Training","Stims/Figures/111-C-30-3.bmp","nala:la","Right","39","2","10","7","S","J","26"
"","","approach-retreat","30","404897","0.0-30.0","","","2-5","5155","40","1","Training","Stims/Figures/84-J-0-2.bmp","pa:pa:ka","Up","40","2","11","7","P","J","27"
"","","approach-retreat","31","411346","0.0-31.0","","","2-5","4944","39","0","Training","Stims/Figures/86-J-0-1.bmp","taka:ta","Right","37","2","12","7","P","J","28"
"","","approach-retreat","32","419622","0.0-32.0","","","2-5","6768","39","0","Training","Stims/Figures/19-C-20-4.bmp","na:ma:la","Left","37","2","13","7","S","J","29"
"","","approach-retreat","33","426635","0.0-33.0","","","2-5","5507","37","1","Training","Stims/Figures/100-J-10-3.bmp","malana","Right","37","2","14","7","S","J","30"
"","","approach-retreat","34","433724","0.0-34.0","","","2-5","5582","37","1","Training","Stims/Figures/111-J-10-3.bmp","na:mana","Right","37","2","15","7","S","J","31"
"","","approach-retreat","35","440645","0.0-35.0","","","2-5","5415","38","1","Training","Stims/Figures/118-C-20-2.bmp","tapaka","Up","38","2","16","7","P","J","32"
"","","approach-retreat","36","447493","0.0-36.0","","","2-5","5338","39","0","Training","Stims/Figures/118-C-20-2.bmp","tapaka","Left","37","3","1","7","P","J","33"
"","","approach-retreat","37","456142","0.0-37.0","","","2-5","7140","38","1","Training","Stims/Figures/84-C-20-2.bmp","ta:pa:ka","Up","38","3","2","7","P","J","34"
"","","approach-retreat","38","462489","0.0-38.0","","","2-5","4838","37","0","Training","Stims/Figures/100-C-30-3.bmp","namana","Right","39","3","3","7","S","J","35"
"","","approach-retreat","39","468684","0.0-39.0","","","2-5","4688","38","1","Training","Stims/Figures/86-J-0-1.bmp","taka:ta","Down","38","3","4","7","P","J","36"
"","","approach-retreat","40","474754","0.0-40.0","","","2-5","4563","40","1","Training","Stims/Figures/102-C-20-4.bmp","namala","Down","40","3","5","7","S","J","37"
"","","approach-retreat","41","480729","0.0-41.0","","","2-5","4465","37","0","Training","Stims/Figures/118-J-0-2.bmp","tapa:ka","Left","39","3","6","7","P","J","38"
"","","approach-retreat","42","486424","0.0-42.0","","","2-5","4187","38","0","Training","Stims/Figures/19-C-20-4.bmp","na:ma:la","Down","40","3","7","7","S","J","39"
"","","approach-retreat","43","493475","0.0-43.0","","","2-5","5545","38","0","Training","Stims/Figures/57-C-30-1.bmp","pa:kaka","Down","40","3","8","7","P","J","40"
"","","approach-retreat","44","501646","0.0-44.0","","","2-5","6663","37","1","Training","Stims/Figures/111-J-10-3.bmp","na:mana","Right","37","3","9","7","S","J","41"
"","","approach-retreat","45","507600","0.0-45.0","","","2-5","4449","37","1","Training","Stims/Figures/100-J-10-3.bmp","malana","Right","37","3","10","7","S","J","42"
"","","approach-retreat","46","514041","0.0-46.0","","","2-5","4933","37","0","Training","Stims/Figures/102-J-10-4.bmp","ma:ma:na","Left","39","3","11","7","S","J","43"
"","","approach-retreat","47","520464","0.0-47.0","","","2-5","4915","40","1","Training","Stims/Figures/19-J-10-4.bmp","mala:la","Up","40","3","12","7","S","J","44"
"","","approach-retreat","48","525983","0.0-48.0","","","2-5","4013","38","0","Training","Stims/Figures/57-J-0-1.bmp","ta:pa:ta","Up","40","3","13","7","P","J","45"
"","","approach-retreat","49","534864","0.0-49.0","","","2-5","7373","40","1","Training","Stims/Figures/84-J-0-2.bmp","pa:pa:ka","Up","40","3","14","7","P","J","46"
"","","approach-retreat","50","542886","0.0-50.0","","","2-5","6513","37","0","Training","Stims/Figures/86-C-30-1.bmp","ta:kaka","Right","39","3","15","7","P","J","47"
"","","approach-retreat","51","549051","0.0-51.0","","","2-5","4658","39","0","Training","Stims/Figures/111-C-30-3.bmp","nala:la","Left","37","3","16","7","S","J","48"
"","","approach-retreat","52","555078","0.0-52.0","","","2-5","4517","38","1","Training","Stims/Figures/86-J-0-1.bmp","taka:ta","Down","38","4","1","7","P","J","49"
"","","approach-retreat","53","575933","0.0-53.0","","","2-5","19351","39","1","Training","Stims/Figures/84-J-0-2.bmp","pa:pa:ka","Left","39","4","2","7","P","J","50"
"","","approach-retreat","54","585356","0.0-54.0","","","2-5","7916","37","0","Training","Stims/Figures/19-C-20-4.bmp","na:ma:la","Right","39","4","3","7","S","J","51"
"","","approach-retreat","55","591534","0.0-55.0","","","2-5","4672","40","0","Training","Stims/Figures/57-C-30-1.bmp","pa:kaka","Up","38","4","4","7","P","J","52"
"","","approach-retreat","56","600831","0.0-56.0","","","2-5","7790","40","1","Training","Stims/Figures/102-C-20-4.bmp","namala","Down","40","4","5","7","S","J","53"
"","","approach-retreat","57","608648","0.0-57.0","","","2-5","6309","39","1","Training","Stims/Figures/19-J-10-4.bmp","mala:la","Left","39","4","6","7","S","J","54"
"","","approach-retreat","58","614816","0.0-58.0","","","2-5","4662","40","0","Training","Stims/Figures/86-C-30-1.bmp","ta:kaka","Up","38","4","7","7","P","J","55"
"","","approach-retreat","59","622645","0.0-59.0","","","2-5","6324","37","0","Training","Stims/Figures/111-C-30-3.bmp","nala:la","Right","39","4","8","7","S","J","56"
"","","approach-retreat","60","629192","0.0-60.0","","","2-5","5042","39","1","Training","Stims/Figures/57-J-0-1.bmp","ta:pa:ta","Left","39","4","9","7","P","J","57"
"","","approach-retreat","61","635540","0.0-61.0","","","2-5","4840","40","0","Training","Stims/Figures/111-J-10-3.bmp","na:mana","Down","38","4","10","7","S","J","58"
"","","approach-retreat","62","641754","0.0-62.0","","","2-5","4709","40","0","Training","Stims/Figures/118-C-20-2.bmp","tapaka","Up","38","4","11","7","P","J","59"
"","","approach-retreat","63","647706","0.0-63.0","","","2-5","4445","37","1","Training","Stims/Figures/102-J-10-4.bmp","ma:ma:na","Right","37","4","12","7","S","J","60"
"","","approach-retreat","64","653820","0.0-64.0","","","2-5","4608","40","0","Training","Stims/Figures/100-C-30-3.bmp","namana","Up","38","4","13","7","S","J","61"
"","","approach-retreat","65","659668","0.0-65.0","","","2-5","4339","37","1","Training","Stims/Figures/100-J-10-3.bmp","malana","Right","37","4","14","7","S","J","62"
"","","approach-retreat","66","666173","0.0-66.0","","","2-5","4999","37","0","Training","Stims/Figures/118-J-0-2.bmp","tapa:ka","Left","39","4","15","7","P","J","63"
"","","approach-retreat","67","672280","0.0-67.0","","","2-5","4599","38","0","Training","Stims/Figures/84-C-20-2.bmp","ta:pa:ka","Down","40","4","16","7","P","J","64"
"","","approach-retreat","68","678135","0.0-68.0","","","2-5","4349","38","1","Training","Stims/Figures/57-J-0-1.bmp","ta:pa:ta","Down","38","5","1","7","P","J","65"
"","","approach-retreat","69","683954","0.0-69.0","","","2-5","4314","38","0","Training","Stims/Figures/100-C-30-3.bmp","namana","Down","40","5","2","7","S","J","66"
"","","approach-retreat","70","689804","0.0-70.0","","","2-5","4341","37","0","Training","Stims/Figures/111-C-30-3.bmp","nala:la","Right","39","5","3","7","S","J","67"
"","","approach-retreat","71","696107","0.0-71.0","","","2-5","4795","39","1","Training","Stims/Figures/118-J-0-2.bmp","tapa:ka","Left","39","5","4","7","P","J","68"
"","","approach-retreat","72","701981","0.0-72.0","","","2-5","4366","38","1","Training","Stims/Figures/84-J-0-2.bmp","pa:pa:ka","Down","38","5","5","7","P","J","69"
"","","approach-retreat","73","707835","0.0-73.0","","","2-5","4348","40","1","Training","Stims/Figures/100-J-10-3.bmp","malana","Up","40","5","6","7","S","J","70"
"","","approach-retreat","74","713862","0.0-74.0","","","2-5","4521","40","1","Training","Stims/Figures/111-J-10-3.bmp","na:mana","Up","40","5","7","7","S","J","71"
"","","approach-retreat","75","719671","0.0-75.0","","","2-5","4301","37","1","Training","Stims/Figures/86-C-30-1.bmp","ta:kaka","Left","37","5","8","7","P","J","72"
"","","approach-retreat","76","725892","0.0-76.0","","","2-5","4714","37","1","Training","Stims/Figures/102-J-10-4.bmp","ma:ma:na","Right","37","5","9","7","S","J","73"
"","","approach-retreat","77","731831","0.0-77.0","","","2-5","4433","37","0","Training","Stims/Figures/102-C-20-4.bmp","namala","Right","39","5","10","7","S","J","74"
"","","approach-retreat","78","738448","0.0-78.0","","","2-5","5109","39","0","Training","Stims/Figures/84-C-20-2.bmp","ta:pa:ka","Left","37","5","11","7","P","J","75"
"","","approach-retreat","79","744285","0.0-79.0","","","2-5","4329","38","1","Training","Stims/Figures/86-J-0-1.bmp","taka:ta","Down","38","5","12","7","P","J","76"
"","","approach-retreat","80","750136","0.0-80.0","","","2-5","4345","40","0","Training","Stims/Figures/57-C-30-1.bmp","pa:kaka","Up","38","5","13","7","P","J","77"
"","","approach-retreat","81","755773","0.0-81.0","","","2-5","4129","37","1","Training","Stims/Figures/19-J-10-4.bmp","mala:la","Right","37","5","14","7","S","J","78"
"","","approach-retreat","82","761510","0.0-82.0","","","2-5","4232","39","0","Training","Stims/Figures/19-C-20-4.bmp","na:ma:la","Left","37","5","15","7","S","J","79"
"","","approach-retreat","83","767163","0.0-83.0","","","2-5","4145","40","0","Training","Stims/Figures/118-C-20-2.bmp","tapaka","Up","38","5","16","7","P","J","80"
"","","approach-retreat","84","772977","0.0-84.0","","","2-5","4306","38","0","Training","Stims/Figures/84-C-20-2.bmp","ta:pa:ka","Down","40","6","1","7","P","J","81"
"","","approach-retreat","85","778621","0.0-85.0","","","2-5","4136","40","1","Training","Stims/Figures/84-J-0-2.bmp","pa:pa:ka","Up","40","6","2","7","P","J","82"
"","","approach-retreat","86","784448","0.0-86.0","","","2-5","4320","37","0","Training","Stims/Figures/111-C-30-3.bmp","nala:la","Right","39","6","3","7","S","J","83"
"","","approach-retreat","87","790121","0.0-87.0","","","2-5","4165","37","1","Training","Stims/Figures/57-J-0-1.bmp","ta:pa:ta","Right","37","6","4","7","P","J","84"
"","","approach-retreat","88","797067","0.0-88.0","","","2-5","5440","39","0","Training","Stims/Figures/118-C-20-2.bmp","tapaka","Left","37","6","5","7","P","J","85"
"","","approach-retreat","89","802781","0.0-89.0","","","2-5","4208","39","0","Training","Stims/Figures/102-C-20-4.bmp","namala","Left","37","6","6","7","S","J","86"
"","","approach-retreat","90","808426","0.0-90.0","","","2-5","4137","39","0","Training","Stims/Figures/19-C-20-4.bmp","na:ma:la","Left","37","6","7","7","S","J","87"
"","","approach-retreat","91","814163","0.0-91.0","","","2-5","4231","38","0","Training","Stims/Figures/86-C-30-1.bmp","ta:kaka","Down","40","6","8","7","P","J","88"
"","","approach-retreat","92","819647","0.0-92.0","","","2-5","3976","39","1","Training","Stims/Figures/102-J-10-4.bmp","ma:ma:na","Left","39","6","9","7","S","J","89"
"","","approach-retreat","93","825367","0.0-93.0","","","2-5","4213","40","0","Training","Stims/Figures/57-C-30-1.bmp","pa:kaka","Up","38","6","10","7","P","J","90"
"","","approach-retreat","94","831386","0.0-94.0","","","2-5","4514","37","1","Training","Stims/Figures/86-J-0-1.bmp","taka:ta","Right","37","6","11","7","P","J","91"
"","","approach-retreat","95","837181","0.0-95.0","","","2-5","4287","38","0","Training","Stims/Figures/100-C-30-3.bmp","namana","Down","40","6","12","7","S","J","92"
"","","approach-retreat","96","843694","0.0-96.0","","","2-5","5007","40","1","Training","Stims/Figures/111-J-10-3.bmp","na:mana","Up","40","6","13","7","S","J","93"
"","","approach-retreat","97","849323","0.0-97.0","","","2-5","4120","37","1","Training","Stims/Figures/118-J-0-2.bmp","tapa:ka","Right","37","6","14","7","P","J","94"
"","","approach-retreat","98","854787","0.0-98.0","","","2-5","3956","40","1","Training","Stims/Figures/100-J-10-3.bmp","malana","Up","40","6","15","7","S","J","95"
"","","approach-retreat","99","860521","0.0-99.0","","","2-5","4227","38","1","Training","Stims/Figures/19-J-10-4.bmp","mala:la","Down","38","6","16","7","S","J","96"
"","","approach-retreat","100","866131","0.0-100.0","","","2-5","4104","39","0","Training","Stims/Figures/100-C-30-3.bmp","namana","Left","37","7","1","7","S","J","97"
"","","approach-retreat","101","872082","0.0-101.0","","","2-5","4446","38","0","Training","Stims/Figures/111-C-30-3.bmp","nala:la","Down","40","7","2","7","S","J","98"
"","","approach-retreat","102","878591","0.0-102.0","","","2-5","5000","39","1","Training","Stims/Figures/84-J-0-2.bmp","pa:pa:ka","Left","39","7","3","7","P","J","99"
"","","approach-retreat","103","884524","0.0-103.0","","","2-5","4428","40","1","Training","Stims/Figures/111-J-10-3.bmp","na:mana","Up","40","7","4","7","S","J","100"
"","","approach-retreat","104","890082","0.0-104.0","","","2-5","4052","37","1","Training","Stims/Figures/100-J-10-3.bmp","malana","Right","37","7","5","7","S","J","101"
"","","approach-retreat","105","895897","0.0-105.0","","","2-5","4307","38","1","Training","Stims/Figures/86-J-0-1.bmp","taka:ta","Down","38","7","6","7","P","J","102"
"","","approach-retreat","106","903068","0.0-106.0","","","2-5","5663","37","0","Training","Stims/Figures/19-C-20-4.bmp","na:ma:la","Right","39","7","7","7","S","J","103"
"","","approach-retreat","107","908685","0.0-107.0","","","2-5","4111","37","1","Training","Stims/Figures/102-J-10-4.bmp","ma:ma:na","Right","37","7","8","7","S","J","104"
"","","approach-retreat","108","914387","0.0-108.0","","","2-5","4196","37","0","Training","Stims/Figures/102-C-20-4.bmp","namala","Right","39","7","9","7","S","J","105"
"","","approach-retreat","109","921653","0.0-109.0","","","2-5","5757","40","0","Training","Stims/Figures/84-C-20-2.bmp","ta:pa:ka","Up","38","7","10","7","P","J","106"
"","","approach-retreat","110","927209","0.0-110.0","","","2-5","4048","40","0","Training","Stims/Figures/57-C-30-1.bmp","pa:kaka","Up","38","7","11","7","P","J","107"
"","","approach-retreat","111","932681","0.0-111.0","","","2-5","3968","38","1","Training","Stims/Figures/19-J-10-4.bmp","mala:la","Down","38","7","12","7","S","J","108"
"","","approach-retreat","112","938122","0.0-112.0","","","2-5","3935","39","0","Training","Stims/Figures/118-C-20-2.bmp","tapaka","Left","37","7","13","7","P","J","109"
"","","approach-retreat","113","943568","0.0-113.0","","","2-5","3940","40","1","Training","Stims/Figures/57-J-0-1.bmp","ta:pa:ta","Up","40","7","14","7","P","J","110"
"","","approach-retreat","114","949128","0.0-114.0","","","2-5","4052","38","1","Training","Stims/Figures/118-J-0-2.bmp","tapa:ka","Down","38","7","15","7","P","J","111"
"","","approach-retreat","115","954735","0.0-115.0","","","2-5","4101","39","0","Training","Stims/Figures/86-C-30-1.bmp","ta:kaka","Left","37","7","16","7","P","J","112"
"","","approach-retreat","116","960786","0.0-116.0","","","2-5","4543","40","0","Training","Stims/Figures/102-C-20-4.bmp","namala","Up","38","8","1","7","S","J","113"
"","","approach-retreat","117","966890","0.0-117.0","","","2-5","4598","40","1","Training","Stims/Figures/84-J-0-2.bmp","pa:pa:ka","Up","40","8","2","7","P","J","114"
"","","approach-retreat","118","972536","0.0-118.0","","","2-5","4139","39","1","Training","Stims/Figures/102-J-10-4.bmp","ma:ma:na","Left","39","8","3","7","S","J","115"
"","","approach-retreat","119","978294","0.0-119.0","","","2-5","4250","37","1","Training","Stims/Figures/100-J-10-3.bmp","malana","Right","37","8","4","7","S","J","116"
"","","approach-retreat","120","983870","0.0-120.0","","","2-5","4072","39","0","Training","Stims/Figures/57-C-30-1.bmp","pa:kaka","Left","37","8","5","7","P","J","117"
"","","approach-retreat","121","989328","0.0-121.0","","","2-5","3948","39","0","Training","Stims/Figures/118-C-20-2.bmp","tapaka","Left","37","8","6","7","P","J","118"
"","","approach-retreat","122","994933","0.0-122.0","","","2-5","4100","38","0","Training","Stims/Figures/86-C-30-1.bmp","ta:kaka","Down","40","8","7","7","P","J","119"
"","","approach-retreat","123","1001003","0.0-123.0","","","2-5","4561","37","0","Training","Stims/Figures/100-C-30-3.bmp","namana","Right","39","8","8","7","S","J","120"
"","","approach-retreat","124","1006567","0.0-124.0","","","2-5","4060","39","1","Training","Stims/Figures/57-J-0-1.bmp","ta:pa:ta","Left","39","8","9","7","P","J","121"
"","","approach-retreat","125","1014671","0.0-125.0","","","2-5","6596","38","0","Training","Stims/Figures/111-C-30-3.bmp","nala:la","Down","40","8","10","7","S","J","122"
"","","approach-retreat","126","1020264","0.0-126.0","","","2-5","4087","37","1","Training","Stims/Figures/118-J-0-2.bmp","tapa:ka","Right","37","8","11","7","P","J","123"
"","","approach-retreat","127","1026128","0.0-127.0","","","2-5","4356","38","1","Training","Stims/Figures/111-J-10-3.bmp","na:mana","Down","38","8","12","7","S","J","124"
"","","approach-retreat","128","1032153","0.0-128.0","","","2-5","4518","37","0","Training","Stims/Figures/19-C-20-4.bmp","na:ma:la","Right","39","8","13","7","S","J","125"
"","","approach-retreat","129","1037652","0.0-129.0","","","2-5","3993","40","0","Training","Stims/Figures/84-C-20-2.bmp","ta:pa:ka","Up","38","8","14","7","P","J","126"
"","","approach-retreat","130","1043569","0.0-130.0","","","2-5","4412","40","1","Training","Stims/Figures/19-J-10-4.bmp","mala:la","Up","40","8","15","7","S","J","127"
"","","approach-retreat","131","1049355","0.0-131.0","","","2-5","4280","38","1","Training","Stims/Figures/86-J-0-1.bmp","taka:ta","Down","38","8","16","7","P","J","128"
"","","approach-retreat","132","1055147","0.0-132.0","","","2-5","4285","38","1","Training","Stims/Figures/102-J-10-4.bmp","ma:ma:na","Down","38","9","1","7","S","J","129"
"","","approach-retreat","133","1061109","0.0-133.0","","","2-5","4454","37","0","Training","Stims/Figures/100-C-30-3.bmp","namana","Right","39","9","2","7","S","J","130"
"","","approach-retreat","134","1067103","0.0-134.0","","","2-5","4485","37","1","Training","Stims/Figures/86-J-0-1.bmp","taka:ta","Right","37","9","3","7","P","J","131"
"","","approach-retreat","135","1072650","0.0-135.0","","","2-5","4040","39","1","Training","Stims/Figures/57-J-0-1.bmp","ta:pa:ta","Left","39","9","4","7","P","J","132"
"","","approach-retreat","136","1078108","0.0-136.0","","","2-5","3950","39","0","Training","Stims/Figures/111-C-30-3.bmp","nala:la","Left","37","9","5","7","S","J","133"
"","","approach-retreat","137","1083942","0.0-137.0","","","2-5","4327","38","1","Training","Stims/Figures/19-J-10-4.bmp","mala:la","Down","38","9","6","7","S","J","134"
"","","approach-retreat","138","1089512","0.0-138.0","","","2-5","4062","38","0","Training","Stims/Figures/118-C-20-2.bmp","tapaka","Down","40","9","7","7","P","J","135"
"","","approach-retreat","139","1095038","0.0-139.0","","","2-5","4019","40","1","Training","Stims/Figures/84-J-0-2.bmp","pa:pa:ka","Up","40","9","8","7","P","J","136"
"","","approach-retreat","140","1100556","0.0-140.0","","","2-5","4013","37","0","Training","Stims/Figures/102-C-20-4.bmp","namala","Right","39","9","9","7","S","J","137"
"","","approach-retreat","141","1106935","0.0-141.0","","","2-5","4874","39","1","Training","Stims/Figures/111-J-10-3.bmp","na:mana","Left","39","9","10","7","S","J","138"
"","","approach-retreat","142","1112505","0.0-142.0","","","2-5","4062","40","0","Training","Stims/Figures/19-C-20-4.bmp","na:ma:la","Up","38","9","11","7","S","J","139"
"","","approach-retreat","143","1118075","0.0-143.0","","","2-5","4062","38","1","Training","Stims/Figures/100-J-10-3.bmp","malana","Down","38","9","12","7","S","J","140"
"","","approach-retreat","144","1123809","0.0-144.0","","","2-5","4228","40","1","Training","Stims/Figures/118-J-0-2.bmp","tapa:ka","Up","40","9","13","7","P","J","141"
"","","approach-retreat","145","1129403","0.0-145.0","","","2-5","4088","37","0","Training","Stims/Figures/86-C-30-1.bmp","ta:kaka","Right","39","9","14","7","P","J","142"
"","","approach-retreat","146","1134924","0.0-146.0","","","2-5","4016","39","0","Training","Stims/Figures/57-C-30-1.bmp","pa:kaka","Left","37","9","15","7","P","J","143"
"","","approach-retreat","147","1140575","0.0-147.0","","","2-5","4143","40","0","Training","Stims/Figures/84-C-20-2.bmp","ta:pa:ka","Up","38","9","16","7","P","J","144"
"27441","","instructions","148","1168017","0.0-148.0","[{""page_index"":0,""viewing_time"":27440}]","","","","","","","","","","","","","","","",""
"","","approach-retreat","149","1183858","0.0-149.0","","","2-5","14334","38","0","Testing","Stims/Figures/139-J-0-2.bmp","tapata","Up","40","1","1","7","P","J","1"
"","","approach-retreat","150","1204097","0.0-150.0","","","2-5","18733","38","0","Testing","Stims/Figures/139-C-20-2.bmp","takata","Down","40","1","2","7","P","J","2"
"","","approach-retreat","151","1209666","0.0-151.0","","","2-5","4064","40","0","Testing","Stims/Figures/86-C-30-1.bmp","ta:kaka","Up","38","1","3","7","P","J","3"
"","","approach-retreat","152","1215641","0.0-152.0","","","2-5","4468","39","0","Testing","Stims/Figures/86-J-0-1.bmp","taka:ta","Right","37","1","4","7","P","J","4"
"","","approach-retreat","153","1222811","0.0-153.0","","","2-5","5662","38","0","Testing","Stims/Figures/111-J-10-3.bmp","na:mana","Up","40","1","5","7","S","J","5"
"","","approach-retreat","154","1228658","0.0-154.0","","","2-5","4340","39","1","Testing","Stims/Figures/74-J-10-4.bmp","ma:lala","Left","39","1","6","7","S","J","6"
"","","approach-retreat","155","1234745","0.0-155.0","","","2-5","4581","38","1","Testing","Stims/Figures/100-J-10-3.bmp","malana","Down","38","1","7","7","S","J","7"
"","","approach-retreat","156","1245825","0.0-156.0","","","2-5","9575","38","1","Testing","Stims/Figures/57-J-0-1.bmp","ta:pa:ta","Down","38","1","8","7","P","J","8"
"","","approach-retreat","157","1252638","0.0-157.0","","","2-5","5305","37","0","Testing","Stims/Figures/44-C-30-3.bmp","mama:la","Right","39","1","9","7","S","J","9"
"","","approach-retreat","158","1267497","0.0-158.0","","","2-5","13354","38","1","Testing","Stims/Figures/19-J-10-4.bmp","mala:la","Down","38","1","10","7","S","J","10"
"","","approach-retreat","159","1276223","0.0-159.0","","","2-5","7218","39","0","Testing","Stims/Figures/111-C-30-3.bmp","nala:la","Left","37","1","11","7","S","J","11"
"","","approach-retreat","160","1293886","0.0-160.0","","","2-5","16157","37","1","Testing","Stims/Figures/102-J-10-4.bmp","ma:ma:na","Right","37","1","12","7","S","J","12"
"","","approach-retreat","161","1305807","0.0-161.0","","","2-5","10416","39","1","Testing","Stims/Figures/118-C-20-2.bmp","tapaka","Right","39","1","13","7","P","J","13"
"","","approach-retreat","162","1313896","0.0-162.0","","","2-5","6583","37","0","Testing","Stims/Figures/93-J-0-1.bmp","paka:ka","Left","39","1","14","7","P","J","14"
"","","approach-retreat","163","1323885","0.0-163.0","","","2-5","8483","39","1","Testing","Stims/Figures/44-J-10-3.bmp","malala","Left","39","1","15","7","S","J","15"
"","","approach-retreat","164","1334663","0.0-164.0","","","2-5","9274","40","0","Testing","Stims/Figures/84-C-20-2.bmp","ta:pa:ka","Up","38","1","16","7","P","J","16"
"","","approach-retreat","165","1353993","0.0-165.0","","","2-5","17821","37","1","Testing","Stims/Figures/118-J-0-2.bmp","tapa:ka","Right","37","1","17","7","P","J","17"
"","","approach-retreat","166","1363990","0.0-166.0","","","2-5","8493","39","1","Testing","Stims/Figures/100-C-30-3.bmp","namana","Right","39","1","18","7","S","J","18"
"","","approach-retreat","167","1392497","0.0-167.0","","","2-5","26995","37","1","Testing","Stims/Figures/74-C-20-4.bmp","ma:ma:la","Left","37","1","19","7","S","J","19"
"","","approach-retreat","168","1407365","0.0-168.0","","","2-5","13361","38","1","Testing","Stims/Figures/84-J-0-2.bmp","pa:pa:ka","Down","38","1","20","7","P","J","20"
"","","approach-retreat","169","1425668","0.0-169.0","","","2-5","16796","38","0","Testing","Stims/Figures/102-C-20-4.bmp","namala","Down","40","1","21","7","S","J","21"
"","","approach-retreat","170","1436987","0.0-170.0","","","2-5","9815","37","1","Testing","Stims/Figures/57-C-30-1.bmp","pa:kaka","Left","37","1","22","7","P","J","22"
"","","approach-retreat","171","1446099","0.0-171.0","","","2-5","7603","40","0","Testing","Stims/Figures/93-C-30-1.bmp","pa:ka:ta","Up","38","1","23","7","P","J","23"
"","","approach-retreat","172","1461946","0.0-172.0","","","2-5","14339","38","1","Testing","Stims/Figures/19-C-20-4.bmp","na:ma:la","Up","38","1","24","7","S","J","24"
"","","approach-retreat","173","1496605","0.0-173.0","","","2-5","33150","37","1","Testing","Stims/Figures/74-J-10-4.bmp","ma:lala","Right","37","2","1","7","S","J","25"
"","","approach-retreat","174","1505576","0.0-174.0","","","2-5","7464","38","0","Testing","Stims/Figures/57-J-0-1.bmp","ta:pa:ta","Up","40","2","2","7","P","J","26"
"","","approach-retreat","175","1515381","0.0-175.0","","","2-5","8297","40","1","Testing","Stims/Figures/118-J-0-2.bmp","tapa:ka","Up","40","2","3","7","P","J","27"
"","","approach-retreat","176","1531334","0.0-176.0","","","2-5","14447","38","1","Testing","Stims/Figures/57-C-30-1.bmp","pa:kaka","Up","38","2","4","7","P","J","28"
"","","approach-retreat","177","1542227","0.0-177.0","","","2-5","9388","37","1","Testing","Stims/Figures/86-C-30-1.bmp","ta:kaka","Left","37","2","5","7","P","J","29"
"","","approach-retreat","178","1564983","0.0-178.0","","","2-5","21250","38","1","Testing","Stims/Figures/100-J-10-3.bmp","malana","Down","38","2","6","7","S","J","30"
"","","approach-retreat","179","1574493","0.0-179.0","","","2-5","8002","38","0","Testing","Stims/Figures/102-C-20-4.bmp","namala","Down","40","2","7","7","S","J","31"
"","","approach-retreat","180","1600493","0.0-180.0","","","2-5","24495","38","1","Testing","Stims/Figures/74-C-20-4.bmp","ma:ma:la","Up","38","2","8","7","S","J","32"
"","","approach-retreat","181","1614236","0.0-181.0","","","2-5","12236","37","0","Testing","Stims/Figures/102-J-10-4.bmp","ma:ma:na","Left","39","2","9","7","S","J","33"
"","","approach-retreat","182","1625318","0.0-182.0","","","2-5","9574","40","0","Testing","Stims/Figures/19-J-10-4.bmp","mala:la","Down","38","2","10","7","S","J","34"
"","","approach-retreat","183","1632208","0.0-183.0","","","2-5","5385","39","0","Testing","Stims/Figures/93-J-0-1.bmp","paka:ka","Right","37","2","11","7","P","J","35"
"","","approach-retreat","184","1639867","0.0-184.0","","","2-5","6151","39","1","Testing","Stims/Figures/111-C-30-3.bmp","nala:la","Right","39","2","12","7","S","J","36"
"","","approach-retreat","185","1648119","0.0-185.0","","","2-5","6747","37","1","Testing","Stims/Figures/139-J-0-2.bmp","tapata","Right","37","2","13","7","P","J","37"
"","","approach-retreat","186","1658514","0.0-186.0","","","2-5","8887","37","0","Testing","Stims/Figures/19-C-20-4.bmp","na:ma:la","Right","39","2","14","7","S","J","38"
"","","approach-retreat","187","1665575","0.0-187.0","","","2-5","5557","40","1","Testing","Stims/Figures/100-C-30-3.bmp","namana","Down","40","2","15","7","S","J","39"
"","","approach-retreat","188","1671523","0.0-188.0","","","2-5","4439","40","0","Testing","Stims/Figures/44-C-30-3.bmp","mama:la","Up","38","2","16","7","S","J","40"
"","","approach-retreat","189","1687224","0.0-189.0","","","2-5","14194","39","0","Testing","Stims/Figures/84-C-20-2.bmp","ta:pa:ka","Left","37","2","17","7","P","J","41"
"","","approach-retreat","190","1698681","0.0-190.0","","","2-5","9953","39","1","Testing","Stims/Figures/86-J-0-1.bmp","taka:ta","Left","39","2","18","7","P","J","42"
"","","approach-retreat","191","1706959","0.0-191.0","","","2-5","6772","38","0","Testing","Stims/Figures/111-J-10-3.bmp","na:mana","Up","40","2","19","7","S","J","43"
"","","approach-retreat","192","1712687","0.0-192.0","","","2-5","4221","37","1","Testing","Stims/Figures/44-J-10-3.bmp","malala","Right","37","2","20","7","S","J","44"
"","","approach-retreat","193","1718456","0.0-193.0","","","2-5","4263","40","1","Testing","Stims/Figures/93-C-30-1.bmp","pa:ka:ta","Down","40","2","21","7","P","J","45"
"","","approach-retreat","194","1728475","0.0-194.0","","","2-5","8513","37","0","Testing","Stims/Figures/84-J-0-2.bmp","pa:pa:ka","Left","39","2","22","7","P","J","46"
"","","approach-retreat","195","1750850","0.0-195.0","","","2-5","20868","37","1","Testing","Stims/Figures/118-C-20-2.bmp","tapaka","Left","37","2","23","7","P","J","47"
"","","approach-retreat","196","1757871","0.0-196.0","","","2-5","5515","40","1","Testing","Stims/Figures/139-C-20-2.bmp","takata","Down","40","2","24","7","P","J","48"
"","","approach-retreat","197","1768007","0.0-197.0","","","2-5","8630","39","0","Testing","Stims/Figures/93-C-30-1.bmp","pa:ka:ta","Left","37","3","1","7","P","J","49"
"","","approach-retreat","198","1784703","0.0-198.0","","","2-5","15191","39","1","Testing","Stims/Figures/118-C-20-2.bmp","tapaka","Right","39","3","2","7","P","J","50"
"","","approach-retreat","199","1793843","0.0-199.0","","","2-5","7635","38","1","Testing","Stims/Figures/111-J-10-3.bmp","na:mana","Down","38","3","3","7","S","J","51"
"","","approach-retreat","200","1817207","0.0-200.0","","","2-5","21860","39","1","Testing","Stims/Figures/84-C-20-2.bmp","ta:pa:ka","Right","39","3","4","7","P","J","52"
"","","approach-retreat","201","1828484","0.0-201.0","","","2-5","9769","40","1","Testing","Stims/Figures/93-J-0-1.bmp","paka:ka","Up","40","3","5","7","P","J","53"
"","","approach-retreat","202","1859580","0.0-202.0","","","2-5","29588","38","1","Testing","Stims/Figures/139-C-20-2.bmp","takata","Up","38","3","6","7","P","J","54"
"","","approach-retreat","203","1866602","0.0-203.0","","","2-5","5513","37","1","Testing","Stims/Figures/86-J-0-1.bmp","taka:ta","Right","37","3","7","7","P","J","55"
"","","approach-retreat","204","1879453","0.0-204.0","","","2-5","11344","40","0","Testing","Stims/Figures/102-J-10-4.bmp","ma:ma:na","Down","38","3","8","7","S","J","56"
"","","approach-retreat","205","1918742","0.0-205.0","","","2-5","37780","37","0","Testing","Stims/Figures/139-J-0-2.bmp","tapata","Left","39","3","9","7","P","J","57"
"","","approach-retreat","206","1925969","0.0-206.0","","","2-5","5722","40","1","Testing","Stims/Figures/19-C-20-4.bmp","na:ma:la","Down","40","3","10","7","S","J","58"
"","","approach-retreat","207","1937584","0.0-207.0","","","2-5","10110","37","1","Testing","Stims/Figures/74-C-20-4.bmp","ma:ma:la","Left","37","3","11","7","S","J","59"
"","","approach-retreat","208","1950886","0.0-208.0","","","2-5","11798","37","1","Testing","Stims/Figures/100-J-10-3.bmp","malana","Right","37","3","12","7","S","J","60"
"","","approach-retreat","209","1957133","0.0-209.0","","","2-5","4742","39","1","Testing","Stims/Figures/118-J-0-2.bmp","tapa:ka","Left","39","3","13","7","P","J","61"
"","","approach-retreat","210","1962731","0.0-210.0","","","2-5","4092","37","1","Testing","Stims/Figures/44-J-10-3.bmp","malala","Right","37","3","14","7","S","J","62"
"","","approach-retreat","211","1981243","0.0-211.0","","","2-5","17007","39","1","Testing","Stims/Figures/84-J-0-2.bmp","pa:pa:ka","Left","39","3","15","7","P","J","63"
"","","approach-retreat","212","1988860","0.0-212.0","","","2-5","6110","39","1","Testing","Stims/Figures/57-J-0-1.bmp","ta:pa:ta","Left","39","3","16","7","P","J","64"
"","","approach-retreat","213","1995881","0.0-213.0","","","2-5","5512","40","1","Testing","Stims/Figures/111-C-30-3.bmp","nala:la","Down","40","3","17","7","S","J","65"
"","","approach-retreat","214","2003764","0.0-214.0","","","2-5","6376","40","1","Testing","Stims/Figures/74-J-10-4.bmp","ma:lala","Up","40","3","18","7","S","J","66"
"","","approach-retreat","215","2009312","0.0-215.0","","","2-5","4043","40","0","Testing","Stims/Figures/44-C-30-3.bmp","mama:la","Up","38","3","19","7","S","J","67"
"","","approach-retreat","216","2015299","0.0-216.0","","","2-5","4479","37","0","Testing","Stims/Figures/57-C-30-1.bmp","pa:kaka","Right","39","3","20","7","P","J","68"
"","","approach-retreat","217","2030581","0.0-217.0","","","2-5","13775","38","0","Testing","Stims/Figures/102-C-20-4.bmp","namala","Down","40","3","21","7","S","J","69"
"","","approach-retreat","218","2036041","0.0-218.0","","","2-5","3955","40","0","Testing","Stims/Figures/86-C-30-1.bmp","ta:kaka","Up","38","3","22","7","P","J","70"
"","","approach-retreat","219","2044732","0.0-219.0","","","2-5","7184","38","0","Testing","Stims/Figures/19-J-10-4.bmp","mala:la","Up","40","3","23","7","S","J","71"
"","","approach-retreat","220","2076042","0.0-220.0","","","2-5","29804","40","1","Testing","Stims/Figures/100-C-30-3.bmp","namana","Down","40","3","24","7","S","J","72"
"","","approach-retreat","221","2086637","0.0-221.0","","","2-5","9090","38","1","Testing","Stims/Figures/57-C-30-1.bmp","pa:kaka","Up","38","4","1","7","P","J","73"
"","","approach-retreat","222","2092229","0.0-222.0","","","2-5","4085","37","0","Testing","Stims/Figures/86-C-30-1.bmp","ta:kaka","Right","39","4","2","7","P","J","74"
"","","approach-retreat","223","2102074","0.0-223.0","","","2-5","8338","38","0","Testing","Stims/Figures/102-J-10-4.bmp","ma:ma:na","Up","40","4","3","7","S","J","75"
"","","approach-retreat","224","2107644","0.0-224.0","","","2-5","4063","38","0","Testing","Stims/Figures/139-J-0-2.bmp","tapata","Up","40","4","4","7","P","J","76"
"","","approach-retreat","225","2115452","0.0-225.0","","","2-5","6304","37","1","Testing","Stims/Figures/111-J-10-3.bmp","na:mana","Right","37","4","5","7","S","J","77"
"","","approach-retreat","226","2123182","0.0-226.0","","","2-5","6222","37","0","Testing","Stims/Figures/102-C-20-4.bmp","namala","Right","39","4","6","7","S","J","78"
"","","approach-retreat","227","2131134","0.0-227.0","","","2-5","6444","37","1","Testing","Stims/Figures/74-J-10-4.bmp","ma:lala","Right","37","4","7","7","S","J","79"
"","","approach-retreat","228","2136735","0.0-228.0","","","2-5","4097","37","1","Testing","Stims/Figures/44-J-10-3.bmp","malala","Right","37","4","8","7","S","J","80"
"","","approach-retreat","229","2145064","0.0-229.0","","","2-5","6825","38","0","Testing","Stims/Figures/19-C-20-4.bmp","na:ma:la","Down","40","4","9","7","S","J","81"
"","","approach-retreat","230","2151928","0.0-230.0","","","2-5","5356","39","0","Testing","Stims/Figures/111-C-30-3.bmp","nala:la","Left","37","4","10","7","S","J","82"
"","","approach-retreat","231","2157563","0.0-231.0","","","2-5","4127","38","1","Testing","Stims/Figures/74-C-20-4.bmp","ma:ma:la","Up","38","4","11","7","S","J","83"
"","","approach-retreat","232","2166020","0.0-232.0","","","2-5","6948","40","0","Testing","Stims/Figures/19-J-10-4.bmp","mala:la","Down","38","4","12","7","S","J","84"
"","","approach-retreat","233","2173858","0.0-233.0","","","2-5","6331","38","1","Testing","Stims/Figures/84-J-0-2.bmp","pa:pa:ka","Down","38","4","13","7","P","J","85"
"","","approach-retreat","234","2184195","0.0-234.0","","","2-5","8829","38","1","Testing","Stims/Figures/100-J-10-3.bmp","malana","Down","38","4","14","7","S","J","86"
"","","approach-retreat","235","2189801","0.0-235.0","","","2-5","4100","38","0","Testing","Stims/Figures/93-C-30-1.bmp","pa:ka:ta","Down","40","4","15","7","P","J","87"
"","","approach-retreat","236","2195463","0.0-236.0","","","2-5","4153","37","1","Testing","Stims/Figures/139-C-20-2.bmp","takata","Left","37","4","16","7","P","J","88"
"","","approach-retreat","237","2201114","0.0-237.0","","","2-5","4144","37","0","Testing","Stims/Figures/118-J-0-2.bmp","tapa:ka","Left","39","4","17","7","P","J","89"
"","","approach-retreat","238","2216686","0.0-238.0","","","2-5","14064","40","1","Testing","Stims/Figures/118-C-20-2.bmp","tapaka","Down","40","4","18","7","P","J","90"
"","","approach-retreat","239","2227554","0.0-239.0","","","2-5","9363","37","1","Testing","Stims/Figures/84-C-20-2.bmp","ta:pa:ka","Left","37","4","19","7","P","J","91"
"","","approach-retreat","240","2235067","0.0-240.0","","","2-5","6006","40","1","Testing","Stims/Figures/86-J-0-1.bmp","taka:ta","Up","40","4","20","7","P","J","92"
"","","approach-retreat","241","2250703","0.0-241.0","","","2-5","14128","38","1","Testing","Stims/Figures/100-C-30-3.bmp","namana","Up","38","4","21","7","S","J","93"
"","","approach-retreat","242","2256320","0.0-242.0","","","2-5","4109","37","0","Testing","Stims/Figures/44-C-30-3.bmp","mama:la","Right","39","4","22","7","S","J","94"
"","","approach-retreat","243","2262134","0.0-243.0","","","2-5","4308","37","0","Testing","Stims/Figures/93-J-0-1.bmp","paka:ka","Left","39","4","23","7","P","J","95"
"","","approach-retreat","244","2267789","0.0-244.0","","","2-5","4150","37","0","Testing","Stims/Figures/57-J-0-1.bmp","ta:pa:ta","Left","39","4","24","7","P","J","96"
"21166","","survey-text","245","2288960","0.0-245.0","","{""Q0"":""0049/2018""}","","","","","","","","","","","","","","",""
