\"rt\",\"key_press\",\"trial_type\",\"trial_index\",\"time_elapsed\",\"internal_node_id\",\"view_history\",\"responses\",\"Id\",\"Rt\",\"ResKeyCode\",\"ResCorr\",\"TrialType2\",\"Image\",\"Label\",\"Location\",\"CorrectResponse\",\"Block\",\"BlockTrial\",\"Condition\",\"LabelType\",\"Subcondition\",\"trialNum\"
\"74138\",\"32\",\"text\",\"0\",\"74148\",\"0.0-0.0-0.0\",\"\",\"\",\"\",\"\",\"\",\"\",\"\",\"\",\"\",\"\",\"\",\"\",\"\",\"\",\"\",\"\",\"\"
\"216691\",\"\",\"instructions\",\"1\",\"290840\",\"0.0-1.0\",\"[{\"\"page_index\"\":0,\"\"viewing_time\"\":216690}]\",\"\",\"\",\"\",\"\",\"\",\"\",\"\",\"\",\"\",\"\",\"\",\"\",\"\",\"\",\"\",\"\"
\"39431\",\"\",\"survey-multi-choice\",\"2\",\"330323\",\"0.0-2.0\",\"\",\"{\"\"Q0\"\":\"\"Da\"\",\"\"Q1\"\":\"\"Da\"\",\"\"Q2\"\":\"\"Da\"\",\"\"Q3\"\":\"\"Da\"\",\"\"Q4\"\":\"\"Da\"\",\"\"Q5\"\":\"\"Da\"\"}\",\"\",\"\",\"\",\"\",\"\",\"\",\"\",\"\",\"\",\"\",\"\",\"\",\"\",\"\",\"\"
\"\",\"\",\"bio\",\"3\",\"345377\",\"0.0-3.0\",\"\",\"{\"\"age\"\":\"\"19\"\",\"\"gender\"\":\"\"f\"\",\"\"specify\"\":\"\"\"\"}\",\"\",\"\",\"\",\"\",\"\",\"\",\"\",\"\",\"\",\"\",\"\",\"\",\"\",\"\",\"\"
\"\",\"\",\"approach-retreat\",\"4\",\"369039\",\"0.0-4.0\",\"\",\"\",\"2-1\",\"22078\",\"39\",\"1\",\"Training\",\"Stims/Figures/71-C-30-1.bmp\",\"tapa:ka\",\"Left\",\"39\",\"1\",\"1\",\"5\",\"P\",\"C\",\"1\"
\"\",\"\",\"approach-retreat\",\"5\",\"380824\",\"0.0-5.0\",\"\",\"\",\"2-1\",\"10239\",\"40\",\"1\",\"Training\",\"Stims/Figures/93-J-0-1.bmp\",\"na:mana\",\"Down\",\"40\",\"1\",\"2\",\"5\",\"S\",\"C\",\"2\"
\"\",\"\",\"approach-retreat\",\"6\",\"390042\",\"0.0-6.0\",\"\",\"\",\"2-1\",\"7709\",\"37\",\"1\",\"Training\",\"Stims/Figures/74-C-20-4.bmp\",\"ta:kata\",\"Right\",\"37\",\"1\",\"3\",\"5\",\"P\",\"C\",\"3\"
\"\",\"\",\"approach-retreat\",\"7\",\"397715\",\"0.0-7.0\",\"\",\"\",\"2-1\",\"6161\",\"40\",\"1\",\"Training\",\"Stims/Figures/118-C-20-2.bmp\",\"pa:ka:ka\",\"Up\",\"40\",\"1\",\"4\",\"5\",\"P\",\"C\",\"4\"
\"\",\"\",\"approach-retreat\",\"8\",\"405734\",\"0.0-8.0\",\"\",\"\",\"2-1\",\"6510\",\"38\",\"0\",\"Training\",\"Stims/Figures/85-C-20-2.bmp\",\"tapa:ta\",\"Up\",\"40\",\"1\",\"5\",\"5\",\"P\",\"C\",\"5\"
\"\",\"\",\"approach-retreat\",\"9\",\"413904\",\"0.0-9.0\",\"\",\"\",\"2-1\",\"6661\",\"40\",\"1\",\"Training\",\"Stims/Figures/44-C-30-3.bmp\",\"pa:pa:ka\",\"Up\",\"40\",\"1\",\"6\",\"5\",\"P\",\"C\",\"6\"
\"\",\"\",\"approach-retreat\",\"10\",\"420223\",\"0.0-10.0\",\"\",\"\",\"2-1\",\"4810\",\"39\",\"0\",\"Training\",\"Stims/Figures/111-J-10-3.bmp\",\"na:la:la\",\"Left\",\"37\",\"1\",\"7\",\"5\",\"S\",\"C\",\"7\"
\"\",\"\",\"approach-retreat\",\"11\",\"426253\",\"0.0-11.0\",\"\",\"\",\"2-1\",\"4520\",\"37\",\"0\",\"Training\",\"Stims/Figures/111-C-30-3.bmp\",\"papata\",\"Left\",\"39\",\"1\",\"8\",\"5\",\"P\",\"C\",\"8\"
\"\",\"\",\"approach-retreat\",\"12\",\"432839\",\"0.0-12.0\",\"\",\"\",\"2-1\",\"5076\",\"39\",\"0\",\"Training\",\"Stims/Figures/102-C-20-4.bmp\",\"tapata\",\"Right\",\"37\",\"1\",\"9\",\"5\",\"P\",\"C\",\"9\"
\"\",\"\",\"approach-retreat\",\"13\",\"440100\",\"0.0-13.0\",\"\",\"\",\"2-1\",\"5753\",\"40\",\"1\",\"Training\",\"Stims/Figures/85-J-0-2.bmp\",\"nala:na\",\"Down\",\"40\",\"1\",\"10\",\"5\",\"S\",\"C\",\"10\"
\"\",\"\",\"approach-retreat\",\"14\",\"447553\",\"0.0-14.0\",\"\",\"\",\"2-1\",\"5945\",\"39\",\"1\",\"Training\",\"Stims/Figures/44-J-10-3.bmp\",\"mama:na\",\"Right\",\"39\",\"1\",\"11\",\"5\",\"S\",\"C\",\"11\"
\"\",\"\",\"approach-retreat\",\"15\",\"454915\",\"0.0-15.0\",\"\",\"\",\"2-1\",\"5853\",\"38\",\"0\",\"Training\",\"Stims/Figures/102-J-10-4.bmp\",\"nalana\",\"Down\",\"40\",\"1\",\"12\",\"5\",\"S\",\"C\",\"12\"
\"\",\"\",\"approach-retreat\",\"16\",\"460621\",\"0.0-16.0\",\"\",\"\",\"2-1\",\"4193\",\"39\",\"0\",\"Training\",\"Stims/Figures/93-C-30-1.bmp\",\"taka:ka\",\"Right\",\"37\",\"1\",\"13\",\"5\",\"P\",\"C\",\"13\"
\"\",\"\",\"approach-retreat\",\"17\",\"467031\",\"0.0-17.0\",\"\",\"\",\"2-1\",\"4904\",\"37\",\"1\",\"Training\",\"Stims/Figures/74-J-10-4.bmp\",\"nalala\",\"Left\",\"37\",\"1\",\"14\",\"5\",\"S\",\"C\",\"14\"
\"\",\"\",\"approach-retreat\",\"18\",\"474117\",\"0.0-18.0\",\"\",\"\",\"2-1\",\"5579\",\"38\",\"0\",\"Training\",\"Stims/Figures/71-J-0-1.bmp\",\"ma:lana\",\"Down\",\"40\",\"1\",\"15\",\"5\",\"S\",\"C\",\"15\"
\"\",\"\",\"approach-retreat\",\"19\",\"480434\",\"0.0-19.0\",\"\",\"\",\"2-1\",\"4809\",\"40\",\"0\",\"Training\",\"Stims/Figures/118-J-0-2.bmp\",\"ma:mana\",\"Up\",\"38\",\"1\",\"16\",\"5\",\"S\",\"C\",\"16\"
\"\",\"\",\"approach-retreat\",\"20\",\"486789\",\"0.0-20.0\",\"\",\"\",\"2-1\",\"4847\",\"40\",\"0\",\"Training\",\"Stims/Figures/85-C-20-2.bmp\",\"tapa:ta\",\"Down\",\"38\",\"2\",\"1\",\"5\",\"P\",\"C\",\"17\"
\"\",\"\",\"approach-retreat\",\"21\",\"493449\",\"0.0-21.0\",\"\",\"\",\"2-1\",\"5155\",\"39\",\"1\",\"Training\",\"Stims/Figures/74-C-20-4.bmp\",\"ta:kata\",\"Left\",\"39\",\"2\",\"2\",\"5\",\"P\",\"C\",\"18\"
\"\",\"\",\"approach-retreat\",\"22\",\"499257\",\"0.0-22.0\",\"\",\"\",\"2-1\",\"4299\",\"39\",\"1\",\"Training\",\"Stims/Figures/102-J-10-4.bmp\",\"nalana\",\"Right\",\"39\",\"2\",\"3\",\"5\",\"S\",\"C\",\"19\"
\"\",\"\",\"approach-retreat\",\"23\",\"505648\",\"0.0-23.0\",\"\",\"\",\"2-1\",\"4882\",\"37\",\"1\",\"Training\",\"Stims/Figures/44-J-10-3.bmp\",\"mama:na\",\"Left\",\"37\",\"2\",\"4\",\"5\",\"S\",\"C\",\"20\"
\"\",\"\",\"approach-retreat\",\"24\",\"511718\",\"0.0-24.0\",\"\",\"\",\"2-1\",\"4559\",\"40\",\"0\",\"Training\",\"Stims/Figures/111-C-30-3.bmp\",\"papata\",\"Down\",\"38\",\"2\",\"5\",\"5\",\"P\",\"C\",\"21\"
\"\",\"\",\"approach-retreat\",\"25\",\"518032\",\"0.0-25.0\",\"\",\"\",\"2-1\",\"4805\",\"40\",\"0\",\"Training\",\"Stims/Figures/102-C-20-4.bmp\",\"tapata\",\"Down\",\"38\",\"2\",\"6\",\"5\",\"P\",\"C\",\"22\"
\"\",\"\",\"approach-retreat\",\"26\",\"524217\",\"0.0-26.0\",\"\",\"\",\"2-1\",\"4675\",\"38\",\"1\",\"Training\",\"Stims/Figures/74-J-10-4.bmp\",\"nalala\",\"Up\",\"38\",\"2\",\"7\",\"5\",\"S\",\"C\",\"23\"
\"\",\"\",\"approach-retreat\",\"27\",\"530755\",\"0.0-27.0\",\"\",\"\",\"2-1\",\"5026\",\"39\",\"0\",\"Training\",\"Stims/Figures/93-C-30-1.bmp\",\"taka:ka\",\"Right\",\"37\",\"2\",\"8\",\"5\",\"P\",\"C\",\"24\"
\"\",\"\",\"approach-retreat\",\"28\",\"537011\",\"0.0-28.0\",\"\",\"\",\"2-1\",\"4746\",\"37\",\"1\",\"Training\",\"Stims/Figures/118-C-20-2.bmp\",\"pa:ka:ka\",\"Right\",\"37\",\"2\",\"9\",\"5\",\"P\",\"C\",\"25\"
\"\",\"\",\"approach-retreat\",\"29\",\"543724\",\"0.0-29.0\",\"\",\"\",\"2-1\",\"5207\",\"39\",\"1\",\"Training\",\"Stims/Figures/71-C-30-1.bmp\",\"tapa:ka\",\"Left\",\"39\",\"2\",\"10\",\"5\",\"P\",\"C\",\"26\"
\"\",\"\",\"approach-retreat\",\"30\",\"549947\",\"0.0-30.0\",\"\",\"\",\"2-1\",\"4715\",\"38\",\"1\",\"Training\",\"Stims/Figures/85-J-0-2.bmp\",\"nala:na\",\"Up\",\"38\",\"2\",\"11\",\"5\",\"S\",\"C\",\"27\"
\"\",\"\",\"approach-retreat\",\"31\",\"556626\",\"0.0-31.0\",\"\",\"\",\"2-1\",\"5172\",\"39\",\"0\",\"Training\",\"Stims/Figures/111-J-10-3.bmp\",\"na:la:la\",\"Left\",\"37\",\"2\",\"12\",\"5\",\"S\",\"C\",\"28\"
\"\",\"\",\"approach-retreat\",\"32\",\"563851\",\"0.0-32.0\",\"\",\"\",\"2-1\",\"5716\",\"39\",\"1\",\"Training\",\"Stims/Figures/93-J-0-1.bmp\",\"na:mana\",\"Right\",\"39\",\"2\",\"13\",\"5\",\"S\",\"C\",\"29\"
\"\",\"\",\"approach-retreat\",\"33\",\"570252\",\"0.0-33.0\",\"\",\"\",\"2-1\",\"4891\",\"38\",\"0\",\"Training\",\"Stims/Figures/118-J-0-2.bmp\",\"ma:mana\",\"Down\",\"40\",\"2\",\"14\",\"5\",\"S\",\"C\",\"30\"
\"\",\"\",\"approach-retreat\",\"34\",\"576562\",\"0.0-34.0\",\"\",\"\",\"2-1\",\"4803\",\"38\",\"0\",\"Training\",\"Stims/Figures/44-C-30-3.bmp\",\"pa:pa:ka\",\"Up\",\"40\",\"2\",\"15\",\"5\",\"P\",\"C\",\"31\"
\"\",\"\",\"approach-retreat\",\"35\",\"582582\",\"0.0-35.0\",\"\",\"\",\"2-1\",\"4514\",\"40\",\"0\",\"Training\",\"Stims/Figures/71-J-0-1.bmp\",\"ma:lana\",\"Up\",\"38\",\"2\",\"16\",\"5\",\"S\",\"C\",\"32\"
\"\",\"\",\"approach-retreat\",\"36\",\"589284\",\"0.0-36.0\",\"\",\"\",\"2-1\",\"5191\",\"40\",\"1\",\"Training\",\"Stims/Figures/74-J-10-4.bmp\",\"nalala\",\"Down\",\"40\",\"3\",\"1\",\"5\",\"S\",\"C\",\"33\"
\"\",\"\",\"approach-retreat\",\"37\",\"596044\",\"0.0-37.0\",\"\",\"\",\"2-1\",\"5255\",\"40\",\"0\",\"Training\",\"Stims/Figures/102-J-10-4.bmp\",\"nalana\",\"Up\",\"38\",\"3\",\"2\",\"5\",\"S\",\"C\",\"34\"
\"\",\"\",\"approach-retreat\",\"38\",\"602096\",\"0.0-38.0\",\"\",\"\",\"2-1\",\"4542\",\"37\",\"0\",\"Training\",\"Stims/Figures/74-C-20-4.bmp\",\"ta:kata\",\"Left\",\"39\",\"3\",\"3\",\"5\",\"P\",\"C\",\"35\"
\"\",\"\",\"approach-retreat\",\"39\",\"608300\",\"0.0-39.0\",\"\",\"\",\"2-1\",\"4700\",\"37\",\"1\",\"Training\",\"Stims/Figures/44-C-30-3.bmp\",\"pa:pa:ka\",\"Right\",\"37\",\"3\",\"4\",\"5\",\"P\",\"C\",\"36\"
\"\",\"\",\"approach-retreat\",\"40\",\"615494\",\"0.0-40.0\",\"\",\"\",\"2-1\",\"5686\",\"39\",\"1\",\"Training\",\"Stims/Figures/111-C-30-3.bmp\",\"papata\",\"Left\",\"39\",\"3\",\"5\",\"5\",\"P\",\"C\",\"37\"
\"\",\"\",\"approach-retreat\",\"41\",\"621955\",\"0.0-41.0\",\"\",\"\",\"2-1\",\"4952\",\"38\",\"1\",\"Training\",\"Stims/Figures/71-J-0-1.bmp\",\"ma:lana\",\"Up\",\"38\",\"3\",\"6\",\"5\",\"S\",\"C\",\"38\"
\"\",\"\",\"approach-retreat\",\"42\",\"628197\",\"0.0-42.0\",\"\",\"\",\"2-1\",\"4734\",\"37\",\"0\",\"Training\",\"Stims/Figures/111-J-10-3.bmp\",\"na:la:la\",\"Right\",\"39\",\"3\",\"7\",\"5\",\"S\",\"C\",\"39\"
\"\",\"\",\"approach-retreat\",\"43\",\"633954\",\"0.0-43.0\",\"\",\"\",\"2-1\",\"4249\",\"38\",\"1\",\"Training\",\"Stims/Figures/102-C-20-4.bmp\",\"tapata\",\"Down\",\"38\",\"3\",\"8\",\"5\",\"P\",\"C\",\"40\"
\"\",\"\",\"approach-retreat\",\"44\",\"640097\",\"0.0-44.0\",\"\",\"\",\"2-1\",\"4634\",\"40\",\"1\",\"Training\",\"Stims/Figures/85-J-0-2.bmp\",\"nala:na\",\"Down\",\"40\",\"3\",\"9\",\"5\",\"S\",\"C\",\"41\"
\"\",\"\",\"approach-retreat\",\"45\",\"646207\",\"0.0-45.0\",\"\",\"\",\"2-1\",\"4601\",\"38\",\"0\",\"Training\",\"Stims/Figures/118-C-20-2.bmp\",\"pa:ka:ka\",\"Up\",\"40\",\"3\",\"10\",\"5\",\"P\",\"C\",\"42\"
\"\",\"\",\"approach-retreat\",\"46\",\"651988\",\"0.0-46.0\",\"\",\"\",\"2-1\",\"4272\",\"39\",\"1\",\"Training\",\"Stims/Figures/93-J-0-1.bmp\",\"na:mana\",\"Right\",\"39\",\"3\",\"11\",\"5\",\"S\",\"C\",\"43\"
\"\",\"\",\"approach-retreat\",\"47\",\"659319\",\"0.0-47.0\",\"\",\"\",\"2-1\",\"5822\",\"37\",\"0\",\"Training\",\"Stims/Figures/85-C-20-2.bmp\",\"tapa:ta\",\"Left\",\"39\",\"3\",\"12\",\"5\",\"P\",\"C\",\"44\"
\"\",\"\",\"approach-retreat\",\"48\",\"667977\",\"0.0-48.0\",\"\",\"\",\"2-1\",\"7151\",\"38\",\"1\",\"Training\",\"Stims/Figures/44-J-10-3.bmp\",\"mama:na\",\"Up\",\"38\",\"3\",\"13\",\"5\",\"S\",\"C\",\"45\"
\"\",\"\",\"approach-retreat\",\"49\",\"676185\",\"0.0-49.0\",\"\",\"\",\"2-1\",\"6700\",\"38\",\"0\",\"Training\",\"Stims/Figures/118-J-0-2.bmp\",\"ma:mana\",\"Down\",\"40\",\"3\",\"14\",\"5\",\"S\",\"C\",\"46\"
\"\",\"\",\"approach-retreat\",\"50\",\"684199\",\"0.0-50.0\",\"\",\"\",\"2-1\",\"6504\",\"39\",\"0\",\"Training\",\"Stims/Figures/93-C-30-1.bmp\",\"taka:ka\",\"Right\",\"37\",\"3\",\"15\",\"5\",\"P\",\"C\",\"47\"
\"\",\"\",\"approach-retreat\",\"51\",\"694040\",\"0.0-51.0\",\"\",\"\",\"2-1\",\"8335\",\"39\",\"1\",\"Training\",\"Stims/Figures/71-C-30-1.bmp\",\"tapa:ka\",\"Left\",\"39\",\"3\",\"16\",\"5\",\"P\",\"C\",\"48\"
\"\",\"\",\"approach-retreat\",\"52\",\"700593\",\"0.0-52.0\",\"\",\"\",\"2-1\",\"5044\",\"37\",\"0\",\"Training\",\"Stims/Figures/102-J-10-4.bmp\",\"nalana\",\"Right\",\"39\",\"4\",\"1\",\"5\",\"S\",\"C\",\"49\"
\"\",\"\",\"approach-retreat\",\"53\",\"707852\",\"0.0-53.0\",\"\",\"\",\"2-1\",\"5751\",\"39\",\"1\",\"Training\",\"Stims/Figures/93-C-30-1.bmp\",\"taka:ka\",\"Left\",\"39\",\"4\",\"2\",\"5\",\"P\",\"C\",\"50\"
\"\",\"\",\"approach-retreat\",\"54\",\"714566\",\"0.0-54.0\",\"\",\"\",\"2-1\",\"5205\",\"40\",\"0\",\"Training\",\"Stims/Figures/44-J-10-3.bmp\",\"mama:na\",\"Up\",\"38\",\"4\",\"3\",\"5\",\"S\",\"C\",\"51\"
\"\",\"\",\"approach-retreat\",\"55\",\"720254\",\"0.0-55.0\",\"\",\"\",\"2-1\",\"4175\",\"38\",\"0\",\"Training\",\"Stims/Figures/102-C-20-4.bmp\",\"tapata\",\"Up\",\"40\",\"4\",\"4\",\"5\",\"P\",\"C\",\"52\"
\"\",\"\",\"approach-retreat\",\"56\",\"726098\",\"0.0-56.0\",\"\",\"\",\"2-1\",\"4335\",\"39\",\"1\",\"Training\",\"Stims/Figures/85-C-20-2.bmp\",\"tapa:ta\",\"Left\",\"39\",\"4\",\"5\",\"5\",\"P\",\"C\",\"53\"
\"\",\"\",\"approach-retreat\",\"57\",\"732148\",\"0.0-57.0\",\"\",\"\",\"2-1\",\"4546\",\"38\",\"1\",\"Training\",\"Stims/Figures/74-C-20-4.bmp\",\"ta:kata\",\"Down\",\"38\",\"4\",\"6\",\"5\",\"P\",\"C\",\"54\"
\"\",\"\",\"approach-retreat\",\"58\",\"739481\",\"0.0-58.0\",\"\",\"\",\"2-1\",\"5823\",\"39\",\"0\",\"Training\",\"Stims/Figures/93-J-0-1.bmp\",\"na:mana\",\"Left\",\"37\",\"4\",\"7\",\"5\",\"S\",\"C\",\"55\"
\"\",\"\",\"approach-retreat\",\"59\",\"745528\",\"0.0-59.0\",\"\",\"\",\"2-1\",\"4538\",\"37\",\"1\",\"Training\",\"Stims/Figures/44-C-30-3.bmp\",\"pa:pa:ka\",\"Right\",\"37\",\"4\",\"8\",\"5\",\"P\",\"C\",\"56\"
\"\",\"\",\"approach-retreat\",\"60\",\"751790\",\"0.0-60.0\",\"\",\"\",\"2-1\",\"4756\",\"39\",\"1\",\"Training\",\"Stims/Figures/74-J-10-4.bmp\",\"nalala\",\"Right\",\"39\",\"4\",\"9\",\"5\",\"S\",\"C\",\"57\"
\"\",\"\",\"approach-retreat\",\"61\",\"757712\",\"0.0-61.0\",\"\",\"\",\"2-1\",\"4414\",\"38\",\"1\",\"Training\",\"Stims/Figures/71-J-0-1.bmp\",\"ma:lana\",\"Up\",\"38\",\"4\",\"10\",\"5\",\"S\",\"C\",\"58\"
\"\",\"\",\"approach-retreat\",\"62\",\"763731\",\"0.0-62.0\",\"\",\"\",\"2-1\",\"4513\",\"39\",\"1\",\"Training\",\"Stims/Figures/85-J-0-2.bmp\",\"nala:na\",\"Right\",\"39\",\"4\",\"11\",\"5\",\"S\",\"C\",\"59\"
\"\",\"\",\"approach-retreat\",\"63\",\"773991\",\"0.0-63.0\",\"\",\"\",\"2-1\",\"8752\",\"38\",\"1\",\"Training\",\"Stims/Figures/118-C-20-2.bmp\",\"pa:ka:ka\",\"Down\",\"38\",\"4\",\"12\",\"5\",\"P\",\"C\",\"60\"
\"\",\"\",\"approach-retreat\",\"64\",\"779991\",\"0.0-64.0\",\"\",\"\",\"2-1\",\"4491\",\"38\",\"1\",\"Training\",\"Stims/Figures/118-J-0-2.bmp\",\"ma:mana\",\"Up\",\"38\",\"4\",\"13\",\"5\",\"S\",\"C\",\"61\"
\"\",\"\",\"approach-retreat\",\"65\",\"786213\",\"0.0-65.0\",\"\",\"\",\"2-1\",\"4715\",\"40\",\"1\",\"Training\",\"Stims/Figures/111-J-10-3.bmp\",\"na:la:la\",\"Down\",\"40\",\"4\",\"14\",\"5\",\"S\",\"C\",\"62\"
\"\",\"\",\"approach-retreat\",\"66\",\"792576\",\"0.0-66.0\",\"\",\"\",\"2-1\",\"4855\",\"40\",\"0\",\"Training\",\"Stims/Figures/71-C-30-1.bmp\",\"tapa:ka\",\"Down\",\"38\",\"4\",\"15\",\"5\",\"P\",\"C\",\"63\"
\"\",\"\",\"approach-retreat\",\"67\",\"799614\",\"0.0-67.0\",\"\",\"\",\"2-1\",\"5529\",\"37\",\"0\",\"Training\",\"Stims/Figures/111-C-30-3.bmp\",\"papata\",\"Left\",\"39\",\"4\",\"16\",\"5\",\"P\",\"C\",\"64\"
\"\",\"\",\"approach-retreat\",\"68\",\"805428\",\"0.0-68.0\",\"\",\"\",\"2-1\",\"4306\",\"37\",\"0\",\"Training\",\"Stims/Figures/74-C-20-4.bmp\",\"ta:kata\",\"Left\",\"39\",\"5\",\"1\",\"5\",\"P\",\"C\",\"65\"
\"\",\"\",\"approach-retreat\",\"69\",\"812215\",\"0.0-69.0\",\"\",\"\",\"2-1\",\"5280\",\"39\",\"0\",\"Training\",\"Stims/Figures/71-C-30-1.bmp\",\"tapa:ka\",\"Right\",\"37\",\"5\",\"2\",\"5\",\"P\",\"C\",\"66\"
\"\",\"\",\"approach-retreat\",\"70\",\"818443\",\"0.0-70.0\",\"\",\"\",\"2-1\",\"4721\",\"38\",\"0\",\"Training\",\"Stims/Figures/111-C-30-3.bmp\",\"papata\",\"Up\",\"40\",\"5\",\"3\",\"5\",\"P\",\"C\",\"67\"
\"\",\"\",\"approach-retreat\",\"71\",\"824326\",\"0.0-71.0\",\"\",\"\",\"2-1\",\"4374\",\"39\",\"1\",\"Training\",\"Stims/Figures/44-J-10-3.bmp\",\"mama:na\",\"Right\",\"39\",\"5\",\"4\",\"5\",\"S\",\"C\",\"68\"
\"\",\"\",\"approach-retreat\",\"72\",\"830439\",\"0.0-72.0\",\"\",\"\",\"2-1\",\"4604\",\"37\",\"1\",\"Training\",\"Stims/Figures/85-J-0-2.bmp\",\"nala:na\",\"Left\",\"37\",\"5\",\"5\",\"5\",\"S\",\"C\",\"69\"
\"\",\"\",\"approach-retreat\",\"73\",\"836870\",\"0.0-73.0\",\"\",\"\",\"2-1\",\"4922\",\"40\",\"1\",\"Training\",\"Stims/Figures/111-J-10-3.bmp\",\"na:la:la\",\"Down\",\"40\",\"5\",\"6\",\"5\",\"S\",\"C\",\"70\"
\"\",\"\",\"approach-retreat\",\"74\",\"842786\",\"0.0-74.0\",\"\",\"\",\"2-1\",\"4407\",\"40\",\"1\",\"Training\",\"Stims/Figures/118-J-0-2.bmp\",\"ma:mana\",\"Down\",\"40\",\"5\",\"7\",\"5\",\"S\",\"C\",\"71\"
\"\",\"\",\"approach-retreat\",\"75\",\"848888\",\"0.0-75.0\",\"\",\"\",\"2-1\",\"4593\",\"37\",\"1\",\"Training\",\"Stims/Figures/74-J-10-4.bmp\",\"nalala\",\"Left\",\"37\",\"5\",\"8\",\"5\",\"S\",\"C\",\"72\"
\"\",\"\",\"approach-retreat\",\"76\",\"855388\",\"0.0-76.0\",\"\",\"\",\"2-1\",\"4992\",\"39\",\"0\",\"Training\",\"Stims/Figures/44-C-30-3.bmp\",\"pa:pa:ka\",\"Right\",\"37\",\"5\",\"9\",\"5\",\"P\",\"C\",\"73\"
\"\",\"\",\"approach-retreat\",\"77\",\"861359\",\"0.0-77.0\",\"\",\"\",\"2-1\",\"4463\",\"40\",\"0\",\"Training\",\"Stims/Figures/118-C-20-2.bmp\",\"pa:ka:ka\",\"Down\",\"38\",\"5\",\"10\",\"5\",\"P\",\"C\",\"74\"
\"\",\"\",\"approach-retreat\",\"78\",\"867310\",\"0.0-78.0\",\"\",\"\",\"2-1\",\"4443\",\"38\",\"0\",\"Training\",\"Stims/Figures/85-C-20-2.bmp\",\"tapa:ta\",\"Up\",\"40\",\"5\",\"11\",\"5\",\"P\",\"C\",\"75\"
\"\",\"\",\"approach-retreat\",\"79\",\"873140\",\"0.0-79.0\",\"\",\"\",\"2-1\",\"4324\",\"38\",\"1\",\"Training\",\"Stims/Figures/93-J-0-1.bmp\",\"na:mana\",\"Up\",\"38\",\"5\",\"12\",\"5\",\"S\",\"C\",\"76\"
\"\",\"\",\"approach-retreat\",\"80\",\"879052\",\"0.0-80.0\",\"\",\"\",\"2-1\",\"4399\",\"38\",\"1\",\"Training\",\"Stims/Figures/102-J-10-4.bmp\",\"nalana\",\"Up\",\"38\",\"5\",\"13\",\"5\",\"S\",\"C\",\"77\"
\"\",\"\",\"approach-retreat\",\"81\",\"885426\",\"0.0-81.0\",\"\",\"\",\"2-1\",\"4865\",\"40\",\"1\",\"Training\",\"Stims/Figures/71-J-0-1.bmp\",\"ma:lana\",\"Down\",\"40\",\"5\",\"14\",\"5\",\"S\",\"C\",\"78\"
\"\",\"\",\"approach-retreat\",\"82\",\"891205\",\"0.0-82.0\",\"\",\"\",\"2-1\",\"4272\",\"39\",\"0\",\"Training\",\"Stims/Figures/102-C-20-4.bmp\",\"tapata\",\"Right\",\"37\",\"5\",\"15\",\"5\",\"P\",\"C\",\"79\"
\"\",\"\",\"approach-retreat\",\"83\",\"898433\",\"0.0-83.0\",\"\",\"\",\"2-1\",\"5717\",\"37\",\"0\",\"Training\",\"Stims/Figures/93-C-30-1.bmp\",\"taka:ka\",\"Left\",\"39\",\"5\",\"16\",\"5\",\"P\",\"C\",\"80\"
\"\",\"\",\"approach-retreat\",\"84\",\"904341\",\"0.0-84.0\",\"\",\"\",\"2-1\",\"4398\",\"39\",\"1\",\"Training\",\"Stims/Figures/74-J-10-4.bmp\",\"nalala\",\"Right\",\"39\",\"6\",\"1\",\"5\",\"S\",\"C\",\"81\"
\"\",\"\",\"approach-retreat\",\"85\",\"910156\",\"0.0-85.0\",\"\",\"\",\"2-1\",\"4306\",\"39\",\"0\",\"Training\",\"Stims/Figures/71-C-30-1.bmp\",\"tapa:ka\",\"Right\",\"37\",\"6\",\"2\",\"5\",\"P\",\"C\",\"82\"
\"\",\"\",\"approach-retreat\",\"86\",\"917634\",\"0.0-86.0\",\"\",\"\",\"2-1\",\"5968\",\"37\",\"0\",\"Training\",\"Stims/Figures/102-C-20-4.bmp\",\"tapata\",\"Left\",\"39\",\"6\",\"3\",\"5\",\"P\",\"C\",\"83\"
\"\",\"\",\"approach-retreat\",\"87\",\"924100\",\"0.0-87.0\",\"\",\"\",\"2-1\",\"4958\",\"39\",\"0\",\"Training\",\"Stims/Figures/74-C-20-4.bmp\",\"ta:kata\",\"Right\",\"37\",\"6\",\"4\",\"5\",\"P\",\"C\",\"84\"
\"\",\"\",\"approach-retreat\",\"88\",\"930075\",\"0.0-88.0\",\"\",\"\",\"2-1\",\"4470\",\"40\",\"0\",\"Training\",\"Stims/Figures/85-C-20-2.bmp\",\"tapa:ta\",\"Down\",\"38\",\"6\",\"5\",\"5\",\"P\",\"C\",\"85\"
\"\",\"\",\"approach-retreat\",\"89\",\"935987\",\"0.0-89.0\",\"\",\"\",\"2-1\",\"4402\",\"37\",\"1\",\"Training\",\"Stims/Figures/93-J-0-1.bmp\",\"na:mana\",\"Left\",\"37\",\"6\",\"6\",\"5\",\"S\",\"C\",\"86\"
\"\",\"\",\"approach-retreat\",\"90\",\"941898\",\"0.0-90.0\",\"\",\"\",\"2-1\",\"4408\",\"37\",\"1\",\"Training\",\"Stims/Figures/118-J-0-2.bmp\",\"ma:mana\",\"Left\",\"37\",\"6\",\"7\",\"5\",\"S\",\"C\",\"87\"
\"\",\"\",\"approach-retreat\",\"91\",\"948334\",\"0.0-91.0\",\"\",\"\",\"2-1\",\"4927\",\"38\",\"1\",\"Training\",\"Stims/Figures/44-J-10-3.bmp\",\"mama:na\",\"Up\",\"38\",\"6\",\"8\",\"5\",\"S\",\"C\",\"88\"
\"\",\"\",\"approach-retreat\",\"92\",\"954226\",\"0.0-92.0\",\"\",\"\",\"2-1\",\"4383\",\"38\",\"1\",\"Training\",\"Stims/Figures/85-J-0-2.bmp\",\"nala:na\",\"Up\",\"38\",\"6\",\"9\",\"5\",\"S\",\"C\",\"89\"
\"\",\"\",\"approach-retreat\",\"93\",\"961338\",\"0.0-93.0\",\"\",\"\",\"2-1\",\"5605\",\"38\",\"0\",\"Training\",\"Stims/Figures/111-J-10-3.bmp\",\"na:la:la\",\"Down\",\"40\",\"6\",\"10\",\"5\",\"S\",\"C\",\"90\"
\"\",\"\",\"approach-retreat\",\"94\",\"967125\",\"0.0-94.0\",\"\",\"\",\"2-1\",\"4278\",\"38\",\"1\",\"Training\",\"Stims/Figures/111-C-30-3.bmp\",\"papata\",\"Down\",\"38\",\"6\",\"11\",\"5\",\"P\",\"C\",\"91\"
\"\",\"\",\"approach-retreat\",\"95\",\"973231\",\"0.0-95.0\",\"\",\"\",\"2-1\",\"4601\",\"39\",\"0\",\"Training\",\"Stims/Figures/93-C-30-1.bmp\",\"taka:ka\",\"Right\",\"37\",\"6\",\"12\",\"5\",\"P\",\"C\",\"92\"
\"\",\"\",\"approach-retreat\",\"96\",\"980197\",\"0.0-96.0\",\"\",\"\",\"2-1\",\"5457\",\"40\",\"1\",\"Training\",\"Stims/Figures/71-J-0-1.bmp\",\"ma:lana\",\"Down\",\"40\",\"6\",\"13\",\"5\",\"S\",\"C\",\"93\"
\"\",\"\",\"approach-retreat\",\"97\",\"986884\",\"0.0-97.0\",\"\",\"\",\"2-1\",\"5180\",\"38\",\"0\",\"Training\",\"Stims/Figures/44-C-30-3.bmp\",\"pa:pa:ka\",\"Up\",\"40\",\"6\",\"14\",\"5\",\"P\",\"C\",\"94\"
\"\",\"\",\"approach-retreat\",\"98\",\"992863\",\"0.0-98.0\",\"\",\"\",\"2-1\",\"4473\",\"38\",\"1\",\"Training\",\"Stims/Figures/102-J-10-4.bmp\",\"nalana\",\"Up\",\"38\",\"6\",\"15\",\"5\",\"S\",\"C\",\"95\"
\"\",\"\",\"approach-retreat\",\"99\",\"999750\",\"0.0-99.0\",\"\",\"\",\"2-1\",\"5380\",\"39\",\"1\",\"Training\",\"Stims/Figures/118-C-20-2.bmp\",\"pa:ka:ka\",\"Left\",\"39\",\"6\",\"16\",\"5\",\"P\",\"C\",\"96\"
\"\",\"\",\"approach-retreat\",\"100\",\"1007243\",\"0.0-100.0\",\"\",\"\",\"2-1\",\"5984\",\"40\",\"1\",\"Training\",\"Stims/Figures/102-J-10-4.bmp\",\"nalana\",\"Down\",\"40\",\"7\",\"1\",\"5\",\"S\",\"C\",\"97\"
\"\",\"\",\"approach-retreat\",\"101\",\"1013875\",\"0.0-101.0\",\"\",\"\",\"2-1\",\"5128\",\"37\",\"0\",\"Training\",\"Stims/Figures/71-J-0-1.bmp\",\"ma:lana\",\"Right\",\"39\",\"7\",\"2\",\"5\",\"S\",\"C\",\"98\"
\"\",\"\",\"approach-retreat\",\"102\",\"1020254\",\"0.0-102.0\",\"\",\"\",\"2-1\",\"4875\",\"39\",\"0\",\"Training\",\"Stims/Figures/74-C-20-4.bmp\",\"ta:kata\",\"Right\",\"37\",\"7\",\"3\",\"5\",\"P\",\"C\",\"99\"
\"\",\"\",\"approach-retreat\",\"103\",\"1026705\",\"0.0-103.0\",\"\",\"\",\"2-1\",\"4944\",\"39\",\"0\",\"Training\",\"Stims/Figures/71-C-30-1.bmp\",\"tapa:ka\",\"Right\",\"37\",\"7\",\"4\",\"5\",\"P\",\"C\",\"100\"
\"\",\"\",\"approach-retreat\",\"104\",\"1032751\",\"0.0-104.0\",\"\",\"\",\"2-1\",\"4539\",\"38\",\"1\",\"Training\",\"Stims/Figures/74-J-10-4.bmp\",\"nalala\",\"Up\",\"38\",\"7\",\"5\",\"5\",\"S\",\"C\",\"101\"
\"\",\"\",\"approach-retreat\",\"105\",\"1038701\",\"0.0-105.0\",\"\",\"\",\"2-1\",\"4441\",\"38\",\"1\",\"Training\",\"Stims/Figures/85-J-0-2.bmp\",\"nala:na\",\"Up\",\"38\",\"7\",\"6\",\"5\",\"S\",\"C\",\"102\"
\"\",\"\",\"approach-retreat\",\"106\",\"1044951\",\"0.0-106.0\",\"\",\"\",\"2-1\",\"4742\",\"39\",\"0\",\"Training\",\"Stims/Figures/118-J-0-2.bmp\",\"ma:mana\",\"Left\",\"37\",\"7\",\"7\",\"5\",\"S\",\"C\",\"103\"
\"\",\"\",\"approach-retreat\",\"107\",\"1050831\",\"0.0-107.0\",\"\",\"\",\"2-1\",\"4373\",\"38\",\"1\",\"Training\",\"Stims/Figures/102-C-20-4.bmp\",\"tapata\",\"Down\",\"38\",\"7\",\"8\",\"5\",\"P\",\"C\",\"104\"
\"\",\"\",\"approach-retreat\",\"108\",\"1056735\",\"0.0-108.0\",\"\",\"\",\"2-1\",\"4395\",\"38\",\"0\",\"Training\",\"Stims/Figures/93-C-30-1.bmp\",\"taka:ka\",\"Up\",\"40\",\"7\",\"9\",\"5\",\"P\",\"C\",\"105\"
\"\",\"\",\"approach-retreat\",\"109\",\"1062627\",\"0.0-109.0\",\"\",\"\",\"2-1\",\"4382\",\"39\",\"1\",\"Training\",\"Stims/Figures/118-C-20-2.bmp\",\"pa:ka:ka\",\"Left\",\"39\",\"7\",\"10\",\"5\",\"P\",\"C\",\"106\"
\"\",\"\",\"approach-retreat\",\"110\",\"1068548\",\"0.0-110.0\",\"\",\"\",\"2-1\",\"4411\",\"37\",\"0\",\"Training\",\"Stims/Figures/111-C-30-3.bmp\",\"papata\",\"Left\",\"39\",\"7\",\"11\",\"5\",\"P\",\"C\",\"107\"
\"\",\"\",\"approach-retreat\",\"111\",\"1074263\",\"0.0-111.0\",\"\",\"\",\"2-1\",\"4204\",\"38\",\"0\",\"Training\",\"Stims/Figures/111-J-10-3.bmp\",\"na:la:la\",\"Down\",\"40\",\"7\",\"12\",\"5\",\"S\",\"C\",\"108\"
\"\",\"\",\"approach-retreat\",\"112\",\"1079765\",\"0.0-112.0\",\"\",\"\",\"2-1\",\"3993\",\"38\",\"1\",\"Training\",\"Stims/Figures/44-J-10-3.bmp\",\"mama:na\",\"Up\",\"38\",\"7\",\"13\",\"5\",\"S\",\"C\",\"109\"
\"\",\"\",\"approach-retreat\",\"113\",\"1085620\",\"0.0-113.0\",\"\",\"\",\"2-1\",\"4345\",\"40\",\"1\",\"Training\",\"Stims/Figures/93-J-0-1.bmp\",\"na:mana\",\"Down\",\"40\",\"7\",\"14\",\"5\",\"S\",\"C\",\"110\"
\"\",\"\",\"approach-retreat\",\"114\",\"1091483\",\"0.0-114.0\",\"\",\"\",\"2-1\",\"4355\",\"39\",\"0\",\"Training\",\"Stims/Figures/85-C-20-2.bmp\",\"tapa:ta\",\"Right\",\"37\",\"7\",\"15\",\"5\",\"P\",\"C\",\"111\"
\"\",\"\",\"approach-retreat\",\"115\",\"1097758\",\"0.0-115.0\",\"\",\"\",\"2-1\",\"4767\",\"39\",\"1\",\"Training\",\"Stims/Figures/44-C-30-3.bmp\",\"pa:pa:ka\",\"Left\",\"39\",\"7\",\"16\",\"5\",\"P\",\"C\",\"112\"
\"\",\"\",\"approach-retreat\",\"116\",\"1103776\",\"0.0-116.0\",\"\",\"\",\"2-1\",\"4508\",\"37\",\"0\",\"Training\",\"Stims/Figures/44-J-10-3.bmp\",\"mama:na\",\"Right\",\"39\",\"8\",\"1\",\"5\",\"S\",\"C\",\"113\"
\"\",\"\",\"approach-retreat\",\"117\",\"1109600\",\"0.0-117.0\",\"\",\"\",\"2-1\",\"4316\",\"38\",\"0\",\"Training\",\"Stims/Figures/102-J-10-4.bmp\",\"nalana\",\"Down\",\"40\",\"8\",\"2\",\"5\",\"S\",\"C\",\"114\"
\"\",\"\",\"approach-retreat\",\"118\",\"1115531\",\"0.0-118.0\",\"\",\"\",\"2-1\",\"4421\",\"38\",\"1\",\"Training\",\"Stims/Figures/74-J-10-4.bmp\",\"nalala\",\"Up\",\"38\",\"8\",\"3\",\"5\",\"S\",\"C\",\"115\"
\"\",\"\",\"approach-retreat\",\"119\",\"1122563\",\"0.0-119.0\",\"\",\"\",\"2-1\",\"5526\",\"37\",\"0\",\"Training\",\"Stims/Figures/85-C-20-2.bmp\",\"tapa:ta\",\"Left\",\"39\",\"8\",\"4\",\"5\",\"P\",\"C\",\"116\"
\"\",\"\",\"approach-retreat\",\"120\",\"1129436\",\"0.0-120.0\",\"\",\"\",\"2-1\",\"5363\",\"40\",\"0\",\"Training\",\"Stims/Figures/74-C-20-4.bmp\",\"ta:kata\",\"Down\",\"38\",\"8\",\"5\",\"5\",\"P\",\"C\",\"117\"
\"\",\"\",\"approach-retreat\",\"121\",\"1135220\",\"0.0-121.0\",\"\",\"\",\"2-1\",\"4277\",\"38\",\"0\",\"Training\",\"Stims/Figures/118-C-20-2.bmp\",\"pa:ka:ka\",\"Up\",\"40\",\"8\",\"6\",\"5\",\"P\",\"C\",\"118\"
\"\",\"\",\"approach-retreat\",\"122\",\"1141182\",\"0.0-122.0\",\"\",\"\",\"2-1\",\"4454\",\"40\",\"0\",\"Training\",\"Stims/Figures/102-C-20-4.bmp\",\"tapata\",\"Down\",\"38\",\"8\",\"7\",\"5\",\"P\",\"C\",\"119\"
\"\",\"\",\"approach-retreat\",\"123\",\"1147046\",\"0.0-123.0\",\"\",\"\",\"2-1\",\"4356\",\"39\",\"0\",\"Training\",\"Stims/Figures/111-C-30-3.bmp\",\"papata\",\"Right\",\"37\",\"8\",\"8\",\"5\",\"P\",\"C\",\"120\"
\"\",\"\",\"approach-retreat\",\"124\",\"1152855\",\"0.0-124.0\",\"\",\"\",\"2-1\",\"4300\",\"38\",\"1\",\"Training\",\"Stims/Figures/71-J-0-1.bmp\",\"ma:lana\",\"Up\",\"38\",\"8\",\"9\",\"5\",\"S\",\"C\",\"121\"
\"\",\"\",\"approach-retreat\",\"125\",\"1158838\",\"0.0-125.0\",\"\",\"\",\"2-1\",\"4478\",\"37\",\"1\",\"Training\",\"Stims/Figures/93-J-0-1.bmp\",\"na:mana\",\"Left\",\"37\",\"8\",\"10\",\"5\",\"S\",\"C\",\"122\"
\"\",\"\",\"approach-retreat\",\"126\",\"1164798\",\"0.0-126.0\",\"\",\"\",\"2-1\",\"4454\",\"37\",\"0\",\"Training\",\"Stims/Figures/44-C-30-3.bmp\",\"pa:pa:ka\",\"Left\",\"39\",\"8\",\"11\",\"5\",\"P\",\"C\",\"123\"
\"\",\"\",\"approach-retreat\",\"127\",\"1170722\",\"0.0-127.0\",\"\",\"\",\"2-1\",\"4414\",\"39\",\"0\",\"Training\",\"Stims/Figures/111-J-10-3.bmp\",\"na:la:la\",\"Left\",\"37\",\"8\",\"12\",\"5\",\"S\",\"C\",\"124\"
\"\",\"\",\"approach-retreat\",\"128\",\"1176642\",\"0.0-128.0\",\"\",\"\",\"2-1\",\"4411\",\"39\",\"0\",\"Training\",\"Stims/Figures/71-C-30-1.bmp\",\"tapa:ka\",\"Right\",\"37\",\"8\",\"13\",\"5\",\"P\",\"C\",\"125\"
\"\",\"\",\"approach-retreat\",\"129\",\"1182585\",\"0.0-129.0\",\"\",\"\",\"2-1\",\"4436\",\"38\",\"0\",\"Training\",\"Stims/Figures/85-J-0-2.bmp\",\"nala:na\",\"Down\",\"40\",\"8\",\"14\",\"5\",\"S\",\"C\",\"126\"
\"\",\"\",\"approach-retreat\",\"130\",\"1188436\",\"0.0-130.0\",\"\",\"\",\"2-1\",\"4347\",\"38\",\"1\",\"Training\",\"Stims/Figures/118-J-0-2.bmp\",\"ma:mana\",\"Up\",\"38\",\"8\",\"15\",\"5\",\"S\",\"C\",\"127\"
\"\",\"\",\"approach-retreat\",\"131\",\"1195019\",\"0.0-131.0\",\"\",\"\",\"2-1\",\"5071\",\"39\",\"0\",\"Training\",\"Stims/Figures/93-C-30-1.bmp\",\"taka:ka\",\"Right\",\"37\",\"8\",\"16\",\"5\",\"P\",\"C\",\"128\"
\"\",\"\",\"approach-retreat\",\"132\",\"1200775\",\"0.0-132.0\",\"\",\"\",\"2-1\",\"4245\",\"37\",\"0\",\"Training\",\"Stims/Figures/93-C-30-1.bmp\",\"taka:ka\",\"Left\",\"39\",\"9\",\"1\",\"5\",\"P\",\"C\",\"129\"
\"\",\"\",\"approach-retreat\",\"133\",\"1206477\",\"0.0-133.0\",\"\",\"\",\"2-1\",\"4193\",\"39\",\"1\",\"Training\",\"Stims/Figures/74-C-20-4.bmp\",\"ta:kata\",\"Left\",\"39\",\"9\",\"2\",\"5\",\"P\",\"C\",\"130\"
\"\",\"\",\"approach-retreat\",\"134\",\"1212810\",\"0.0-134.0\",\"\",\"\",\"2-1\",\"4828\",\"38\",\"0\",\"Training\",\"Stims/Figures/85-J-0-2.bmp\",\"nala:na\",\"Down\",\"40\",\"9\",\"3\",\"5\",\"S\",\"C\",\"131\"
\"\",\"\",\"approach-retreat\",\"135\",\"1218750\",\"0.0-135.0\",\"\",\"\",\"2-1\",\"4435\",\"38\",\"0\",\"Training\",\"Stims/Figures/71-C-30-1.bmp\",\"tapa:ka\",\"Up\",\"40\",\"9\",\"4\",\"5\",\"P\",\"C\",\"132\"
\"\",\"\",\"approach-retreat\",\"136\",\"1225959\",\"0.0-136.0\",\"\",\"\",\"2-1\",\"5700\",\"40\",\"0\",\"Training\",\"Stims/Figures/118-J-0-2.bmp\",\"ma:mana\",\"Up\",\"38\",\"9\",\"5\",\"5\",\"S\",\"C\",\"133\"
\"\",\"\",\"approach-retreat\",\"137\",\"1232061\",\"0.0-137.0\",\"\",\"\",\"2-1\",\"4594\",\"39\",\"1\",\"Training\",\"Stims/Figures/102-C-20-4.bmp\",\"tapata\",\"Left\",\"39\",\"9\",\"6\",\"5\",\"P\",\"C\",\"134\"
\"\",\"\",\"approach-retreat\",\"138\",\"1238590\",\"0.0-138.0\",\"\",\"\",\"2-1\",\"5024\",\"37\",\"1\",\"Training\",\"Stims/Figures/111-C-30-3.bmp\",\"papata\",\"Right\",\"37\",\"9\",\"7\",\"5\",\"P\",\"C\",\"135\"
\"\",\"\",\"approach-retreat\",\"139\",\"1245846\",\"0.0-139.0\",\"\",\"\",\"2-1\",\"5745\",\"38\",\"0\",\"Training\",\"Stims/Figures/118-C-20-2.bmp\",\"pa:ka:ka\",\"Up\",\"40\",\"9\",\"8\",\"5\",\"P\",\"C\",\"136\"
\"\",\"\",\"approach-retreat\",\"140\",\"1251877\",\"0.0-140.0\",\"\",\"\",\"2-1\",\"4523\",\"39\",\"0\",\"Training\",\"Stims/Figures/44-C-30-3.bmp\",\"pa:pa:ka\",\"Right\",\"37\",\"9\",\"9\",\"5\",\"P\",\"C\",\"137\"
\"\",\"\",\"approach-retreat\",\"141\",\"1259056\",\"0.0-141.0\",\"\",\"\",\"2-1\",\"5674\",\"40\",\"1\",\"Training\",\"Stims/Figures/74-J-10-4.bmp\",\"nalala\",\"Down\",\"40\",\"9\",\"10\",\"5\",\"S\",\"C\",\"138\"
\"\",\"\",\"approach-retreat\",\"142\",\"1264937\",\"0.0-142.0\",\"\",\"\",\"2-1\",\"4370\",\"40\",\"1\",\"Training\",\"Stims/Figures/71-J-0-1.bmp\",\"ma:lana\",\"Down\",\"40\",\"9\",\"11\",\"5\",\"S\",\"C\",\"139\"
\"\",\"\",\"approach-retreat\",\"143\",\"1270601\",\"0.0-143.0\",\"\",\"\",\"2-1\",\"4156\",\"38\",\"0\",\"Training\",\"Stims/Figures/85-C-20-2.bmp\",\"tapa:ta\",\"Up\",\"40\",\"9\",\"12\",\"5\",\"P\",\"C\",\"140\"
\"\",\"\",\"approach-retreat\",\"144\",\"1276364\",\"0.0-144.0\",\"\",\"\",\"2-1\",\"4254\",\"40\",\"1\",\"Training\",\"Stims/Figures/111-J-10-3.bmp\",\"na:la:la\",\"Down\",\"40\",\"9\",\"13\",\"5\",\"S\",\"C\",\"141\"
\"\",\"\",\"approach-retreat\",\"145\",\"1282277\",\"0.0-145.0\",\"\",\"\",\"2-1\",\"4405\",\"39\",\"1\",\"Training\",\"Stims/Figures/102-J-10-4.bmp\",\"nalana\",\"Right\",\"39\",\"9\",\"14\",\"5\",\"S\",\"C\",\"142\"
\"\",\"\",\"approach-retreat\",\"146\",\"1288027\",\"0.0-146.0\",\"\",\"\",\"2-1\",\"4243\",\"37\",\"1\",\"Training\",\"Stims/Figures/93-J-0-1.bmp\",\"na:mana\",\"Left\",\"37\",\"9\",\"15\",\"5\",\"S\",\"C\",\"143\"
\"\",\"\",\"approach-retreat\",\"147\",\"1293825\",\"0.0-147.0\",\"\",\"\",\"2-1\",\"4288\",\"39\",\"1\",\"Training\",\"Stims/Figures/44-J-10-3.bmp\",\"mama:na\",\"Right\",\"39\",\"9\",\"16\",\"5\",\"S\",\"C\",\"144\"
\"17938\",\"\",\"instructions\",\"148\",\"1311763\",\"0.0-148.0\",\"[{\"\"page_index\"\":0,\"\"viewing_time\"\":17937}]\",\"\",\"\",\"\",\"\",\"\",\"\",\"\",\"\",\"\",\"\",\"\",\"\",\"\",\"\",\"\",\"\"
\"\",\"\",\"approach-retreat\",\"149\",\"1318903\",\"0.0-149.0\",\"\",\"\",\"2-1\",\"5633\",\"40\",\"0\",\"Testing\",\"Stims/Figures/93-C-30-1.bmp\",\"taka:ka\",\"Down\",\"38\",\"1\",\"1\",\"5\",\"P\",\"C\",\"1\"
\"\",\"\",\"approach-retreat\",\"150\",\"1325318\",\"0.0-150.0\",\"\",\"\",\"2-1\",\"4908\",\"37\",\"1\",\"Testing\",\"Stims/Figures/139-C-20-2.bmp\",\"ta:pata\",\"Right\",\"37\",\"1\",\"2\",\"5\",\"P\",\"C\",\"2\"
\"\",\"\",\"approach-retreat\",\"151\",\"1333067\",\"0.0-151.0\",\"\",\"\",\"2-1\",\"6246\",\"38\",\"1\",\"Testing\",\"Stims/Figures/111-J-10-3.bmp\",\"na:la:la\",\"Up\",\"38\",\"1\",\"3\",\"5\",\"S\",\"C\",\"3\"
\"\",\"\",\"approach-retreat\",\"152\",\"1340270\",\"0.0-152.0\",\"\",\"\",\"2-1\",\"5696\",\"37\",\"1\",\"Testing\",\"Stims/Figures/128-J-10-3.bmp\",\"mamana\",\"Left\",\"37\",\"1\",\"4\",\"5\",\"S\",\"C\",\"4\"
\"\",\"\",\"approach-retreat\",\"153\",\"1347038\",\"0.0-153.0\",\"\",\"\",\"2-1\",\"5265\",\"40\",\"0\",\"Testing\",\"Stims/Figures/87-J-10-4.bmp\",\"nama:na\",\"Up\",\"38\",\"1\",\"5\",\"5\",\"S\",\"C\",\"5\"
\"\",\"\",\"approach-retreat\",\"154\",\"1353792\",\"0.0-154.0\",\"\",\"\",\"2-1\",\"5245\",\"40\",\"1\",\"Testing\",\"Stims/Figures/44-J-10-3.bmp\",\"mama:na\",\"Down\",\"40\",\"1\",\"6\",\"5\",\"S\",\"C\",\"6\"
\"\",\"\",\"approach-retreat\",\"155\",\"1360678\",\"0.0-155.0\",\"\",\"\",\"2-1\",\"5381\",\"38\",\"1\",\"Testing\",\"Stims/Figures/102-J-10-4.bmp\",\"nalana\",\"Up\",\"38\",\"1\",\"7\",\"5\",\"S\",\"C\",\"7\"
\"\",\"\",\"approach-retreat\",\"156\",\"1367487\",\"0.0-156.0\",\"\",\"\",\"2-1\",\"5294\",\"39\",\"1\",\"Testing\",\"Stims/Figures/74-J-10-4.bmp\",\"nalala\",\"Right\",\"39\",\"1\",\"8\",\"5\",\"S\",\"C\",\"8\"
\"\",\"\",\"approach-retreat\",\"157\",\"1373531\",\"0.0-157.0\",\"\",\"\",\"2-1\",\"4537\",\"37\",\"0\",\"Testing\",\"Stims/Figures/71-C-30-1.bmp\",\"tapa:ka\",\"Left\",\"39\",\"1\",\"9\",\"5\",\"P\",\"C\",\"9\"
\"\",\"\",\"approach-retreat\",\"158\",\"1380319\",\"0.0-158.0\",\"\",\"\",\"2-1\",\"5280\",\"39\",\"1\",\"Testing\",\"Stims/Figures/27-J-0-1.bmp\",\"malana\",\"Right\",\"39\",\"1\",\"10\",\"5\",\"S\",\"C\",\"10\"
\"\",\"\",\"approach-retreat\",\"159\",\"1386369\",\"0.0-159.0\",\"\",\"\",\"2-1\",\"4545\",\"37\",\"1\",\"Testing\",\"Stims/Figures/87-C-20-4.bmp\",\"pakata\",\"Right\",\"37\",\"1\",\"11\",\"5\",\"P\",\"C\",\"11\"
\"\",\"\",\"approach-retreat\",\"160\",\"1392323\",\"0.0-160.0\",\"\",\"\",\"2-1\",\"4450\",\"37\",\"0\",\"Testing\",\"Stims/Figures/118-C-20-2.bmp\",\"pa:ka:ka\",\"Left\",\"39\",\"1\",\"12\",\"5\",\"P\",\"C\",\"12\"
\"\",\"\",\"approach-retreat\",\"161\",\"1399097\",\"0.0-161.0\",\"\",\"\",\"2-1\",\"5267\",\"37\",\"1\",\"Testing\",\"Stims/Figures/85-J-0-2.bmp\",\"nala:na\",\"Left\",\"37\",\"1\",\"13\",\"5\",\"S\",\"C\",\"13\"
\"\",\"\",\"approach-retreat\",\"162\",\"1404939\",\"0.0-162.0\",\"\",\"\",\"2-1\",\"4336\",\"40\",\"0\",\"Testing\",\"Stims/Figures/128-C-30-3.bmp\",\"papa:ta\",\"Down\",\"38\",\"1\",\"14\",\"5\",\"P\",\"C\",\"14\"
\"\",\"\",\"approach-retreat\",\"163\",\"1411805\",\"0.0-163.0\",\"\",\"\",\"2-1\",\"5361\",\"37\",\"0\",\"Testing\",\"Stims/Figures/111-C-30-3.bmp\",\"papata\",\"Left\",\"39\",\"1\",\"15\",\"5\",\"P\",\"C\",\"15\"
\"\",\"\",\"approach-retreat\",\"164\",\"1417212\",\"0.0-164.0\",\"\",\"\",\"2-1\",\"3899\",\"39\",\"0\",\"Testing\",\"Stims/Figures/85-C-20-2.bmp\",\"tapa:ta\",\"Right\",\"37\",\"1\",\"16\",\"5\",\"P\",\"C\",\"16\"
\"\",\"\",\"approach-retreat\",\"165\",\"1422904\",\"0.0-165.0\",\"\",\"\",\"2-1\",\"4187\",\"38\",\"0\",\"Testing\",\"Stims/Figures/44-C-30-3.bmp\",\"pa:pa:ka\",\"Up\",\"40\",\"1\",\"17\",\"5\",\"P\",\"C\",\"17\"
\"\",\"\",\"approach-retreat\",\"166\",\"1428651\",\"0.0-166.0\",\"\",\"\",\"2-1\",\"4238\",\"38\",\"1\",\"Testing\",\"Stims/Figures/71-J-0-1.bmp\",\"ma:lana\",\"Up\",\"38\",\"1\",\"18\",\"5\",\"S\",\"C\",\"18\"
\"\",\"\",\"approach-retreat\",\"167\",\"1434784\",\"0.0-167.0\",\"\",\"\",\"2-1\",\"4618\",\"40\",\"1\",\"Testing\",\"Stims/Figures/118-J-0-2.bmp\",\"ma:mana\",\"Down\",\"40\",\"1\",\"19\",\"5\",\"S\",\"C\",\"19\"
\"\",\"\",\"approach-retreat\",\"168\",\"1440607\",\"0.0-168.0\",\"\",\"\",\"2-1\",\"4316\",\"39\",\"0\",\"Testing\",\"Stims/Figures/27-C-30-1.bmp\",\"pa:kaka\",\"Right\",\"37\",\"1\",\"20\",\"5\",\"P\",\"C\",\"20\"
\"\",\"\",\"approach-retreat\",\"169\",\"1447040\",\"0.0-169.0\",\"\",\"\",\"2-1\",\"4927\",\"38\",\"0\",\"Testing\",\"Stims/Figures/139-J-0-2.bmp\",\"nama:la\",\"Down\",\"40\",\"1\",\"21\",\"5\",\"S\",\"C\",\"21\"
\"\",\"\",\"approach-retreat\",\"170\",\"1453075\",\"0.0-170.0\",\"\",\"\",\"2-1\",\"4529\",\"37\",\"0\",\"Testing\",\"Stims/Figures/74-C-20-4.bmp\",\"ta:kata\",\"Left\",\"39\",\"1\",\"22\",\"5\",\"P\",\"C\",\"22\"
\"\",\"\",\"approach-retreat\",\"171\",\"1459124\",\"0.0-171.0\",\"\",\"\",\"2-1\",\"4543\",\"38\",\"1\",\"Testing\",\"Stims/Figures/102-C-20-4.bmp\",\"tapata\",\"Down\",\"38\",\"1\",\"23\",\"5\",\"P\",\"C\",\"23\"
\"\",\"\",\"approach-retreat\",\"172\",\"1465150\",\"0.0-172.0\",\"\",\"\",\"2-1\",\"4519\",\"38\",\"1\",\"Testing\",\"Stims/Figures/93-J-0-1.bmp\",\"na:mana\",\"Up\",\"38\",\"1\",\"24\",\"5\",\"S\",\"C\",\"24\"
\"\",\"\",\"approach-retreat\",\"173\",\"1472248\",\"0.0-173.0\",\"\",\"\",\"2-1\",\"5591\",\"39\",\"1\",\"Testing\",\"Stims/Figures/102-J-10-4.bmp\",\"nalana\",\"Right\",\"39\",\"2\",\"1\",\"5\",\"S\",\"C\",\"25\"
\"\",\"\",\"approach-retreat\",\"174\",\"1479182\",\"0.0-174.0\",\"\",\"\",\"2-1\",\"5427\",\"37\",\"1\",\"Testing\",\"Stims/Figures/118-J-0-2.bmp\",\"ma:mana\",\"Left\",\"37\",\"2\",\"2\",\"5\",\"S\",\"C\",\"26\"
\"\",\"\",\"approach-retreat\",\"175\",\"1485142\",\"0.0-175.0\",\"\",\"\",\"2-1\",\"4454\",\"38\",\"0\",\"Testing\",\"Stims/Figures/74-C-20-4.bmp\",\"ta:kata\",\"Up\",\"40\",\"2\",\"3\",\"5\",\"P\",\"C\",\"27\"
\"\",\"\",\"approach-retreat\",\"176\",\"1491614\",\"0.0-176.0\",\"\",\"\",\"2-1\",\"4966\",\"38\",\"1\",\"Testing\",\"Stims/Figures/71-J-0-1.bmp\",\"ma:lana\",\"Up\",\"38\",\"2\",\"4\",\"5\",\"S\",\"C\",\"28\"
\"\",\"\",\"approach-retreat\",\"177\",\"1497697\",\"0.0-177.0\",\"\",\"\",\"2-1\",\"4581\",\"40\",\"0\",\"Testing\",\"Stims/Figures/118-C-20-2.bmp\",\"pa:ka:ka\",\"Down\",\"38\",\"2\",\"5\",\"5\",\"P\",\"C\",\"29\"
\"\",\"\",\"approach-retreat\",\"178\",\"1503646\",\"0.0-178.0\",\"\",\"\",\"2-1\",\"4441\",\"39\",\"0\",\"Testing\",\"Stims/Figures/111-C-30-3.bmp\",\"papata\",\"Right\",\"37\",\"2\",\"6\",\"5\",\"P\",\"C\",\"30\"
\"\",\"\",\"approach-retreat\",\"179\",\"1514169\",\"0.0-179.0\",\"\",\"\",\"2-1\",\"9019\",\"39\",\"0\",\"Testing\",\"Stims/Figures/111-J-10-3.bmp\",\"na:la:la\",\"Left\",\"37\",\"2\",\"7\",\"5\",\"S\",\"C\",\"31\"
\"\",\"\",\"approach-retreat\",\"180\",\"1521218\",\"0.0-180.0\",\"\",\"\",\"2-1\",\"5541\",\"37\",\"1\",\"Testing\",\"Stims/Figures/74-J-10-4.bmp\",\"nalala\",\"Left\",\"37\",\"2\",\"8\",\"5\",\"S\",\"C\",\"32\"
\"\",\"\",\"approach-retreat\",\"181\",\"1527159\",\"0.0-181.0\",\"\",\"\",\"2-1\",\"4434\",\"40\",\"1\",\"Testing\",\"Stims/Figures/93-J-0-1.bmp\",\"na:mana\",\"Down\",\"40\",\"2\",\"9\",\"5\",\"S\",\"C\",\"33\"
\"\",\"\",\"approach-retreat\",\"182\",\"1533361\",\"0.0-182.0\",\"\",\"\",\"2-1\",\"4698\",\"38\",\"0\",\"Testing\",\"Stims/Figures/87-J-10-4.bmp\",\"nama:na\",\"Down\",\"40\",\"2\",\"10\",\"5\",\"S\",\"C\",\"34\"
\"\",\"\",\"approach-retreat\",\"183\",\"1539196\",\"0.0-183.0\",\"\",\"\",\"2-1\",\"4326\",\"37\",\"1\",\"Testing\",\"Stims/Figures/44-J-10-3.bmp\",\"mama:na\",\"Left\",\"37\",\"2\",\"11\",\"5\",\"S\",\"C\",\"35\"
\"\",\"\",\"approach-retreat\",\"184\",\"1544999\",\"0.0-184.0\",\"\",\"\",\"2-1\",\"4298\",\"38\",\"1\",\"Testing\",\"Stims/Figures/85-J-0-2.bmp\",\"nala:na\",\"Up\",\"38\",\"2\",\"12\",\"5\",\"S\",\"C\",\"36\"
\"\",\"\",\"approach-retreat\",\"185\",\"1550653\",\"0.0-185.0\",\"\",\"\",\"2-1\",\"4145\",\"38\",\"0\",\"Testing\",\"Stims/Figures/93-C-30-1.bmp\",\"taka:ka\",\"Up\",\"40\",\"2\",\"13\",\"5\",\"P\",\"C\",\"37\"
\"\",\"\",\"approach-retreat\",\"186\",\"1556452\",\"0.0-186.0\",\"\",\"\",\"2-1\",\"4292\",\"40\",\"0\",\"Testing\",\"Stims/Figures/71-C-30-1.bmp\",\"tapa:ka\",\"Down\",\"38\",\"2\",\"14\",\"5\",\"P\",\"C\",\"38\"
\"\",\"\",\"approach-retreat\",\"187\",\"1562902\",\"0.0-187.0\",\"\",\"\",\"2-1\",\"4943\",\"39\",\"1\",\"Testing\",\"Stims/Figures/128-C-30-3.bmp\",\"papa:ta\",\"Left\",\"39\",\"2\",\"15\",\"5\",\"P\",\"C\",\"39\"
\"\",\"\",\"approach-retreat\",\"188\",\"1569146\",\"0.0-188.0\",\"\",\"\",\"2-1\",\"4737\",\"38\",\"1\",\"Testing\",\"Stims/Figures/139-C-20-2.bmp\",\"ta:pata\",\"Down\",\"38\",\"2\",\"16\",\"5\",\"P\",\"C\",\"40\"
\"\",\"\",\"approach-retreat\",\"189\",\"1575750\",\"0.0-189.0\",\"\",\"\",\"2-1\",\"5101\",\"39\",\"0\",\"Testing\",\"Stims/Figures/102-C-20-4.bmp\",\"tapata\",\"Right\",\"37\",\"2\",\"17\",\"5\",\"P\",\"C\",\"41\"
\"\",\"\",\"approach-retreat\",\"190\",\"1581558\",\"0.0-190.0\",\"\",\"\",\"2-1\",\"4300\",\"39\",\"0\",\"Testing\",\"Stims/Figures/44-C-30-3.bmp\",\"pa:pa:ka\",\"Right\",\"37\",\"2\",\"18\",\"5\",\"P\",\"C\",\"42\"
\"\",\"\",\"approach-retreat\",\"191\",\"1587619\",\"0.0-191.0\",\"\",\"\",\"2-1\",\"4552\",\"37\",\"1\",\"Testing\",\"Stims/Figures/87-C-20-4.bmp\",\"pakata\",\"Right\",\"37\",\"2\",\"19\",\"5\",\"P\",\"C\",\"43\"
\"\",\"\",\"approach-retreat\",\"192\",\"1593575\",\"0.0-192.0\",\"\",\"\",\"2-1\",\"4451\",\"37\",\"0\",\"Testing\",\"Stims/Figures/128-J-10-3.bmp\",\"mamana\",\"Right\",\"39\",\"2\",\"20\",\"5\",\"S\",\"C\",\"44\"
\"\",\"\",\"approach-retreat\",\"193\",\"1599763\",\"0.0-193.0\",\"\",\"\",\"2-1\",\"4682\",\"40\",\"1\",\"Testing\",\"Stims/Figures/27-J-0-1.bmp\",\"malana\",\"Down\",\"40\",\"2\",\"21\",\"5\",\"S\",\"C\",\"45\"
\"\",\"\",\"approach-retreat\",\"194\",\"1606527\",\"0.0-194.0\",\"\",\"\",\"2-1\",\"5258\",\"40\",\"0\",\"Testing\",\"Stims/Figures/139-J-0-2.bmp\",\"nama:la\",\"Up\",\"38\",\"2\",\"22\",\"5\",\"S\",\"C\",\"46\"
\"\",\"\",\"approach-retreat\",\"195\",\"1612062\",\"0.0-195.0\",\"\",\"\",\"2-1\",\"4028\",\"38\",\"0\",\"Testing\",\"Stims/Figures/27-C-30-1.bmp\",\"pa:kaka\",\"Up\",\"40\",\"2\",\"23\",\"5\",\"P\",\"C\",\"47\"
\"\",\"\",\"approach-retreat\",\"196\",\"1617827\",\"0.0-196.0\",\"\",\"\",\"2-1\",\"4260\",\"37\",\"0\",\"Testing\",\"Stims/Figures/85-C-20-2.bmp\",\"tapa:ta\",\"Left\",\"39\",\"2\",\"24\",\"5\",\"P\",\"C\",\"48\"
\"\",\"\",\"approach-retreat\",\"197\",\"1623911\",\"0.0-197.0\",\"\",\"\",\"2-1\",\"4575\",\"38\",\"0\",\"Testing\",\"Stims/Figures/85-J-0-2.bmp\",\"nala:na\",\"Down\",\"40\",\"3\",\"1\",\"5\",\"S\",\"C\",\"49\"
\"\",\"\",\"approach-retreat\",\"198\",\"1629873\",\"0.0-198.0\",\"\",\"\",\"2-1\",\"4454\",\"37\",\"0\",\"Testing\",\"Stims/Figures/102-C-20-4.bmp\",\"tapata\",\"Left\",\"39\",\"3\",\"2\",\"5\",\"P\",\"C\",\"50\"
\"\",\"\",\"approach-retreat\",\"199\",\"1635717\",\"0.0-199.0\",\"\",\"\",\"2-1\",\"4336\",\"37\",\"0\",\"Testing\",\"Stims/Figures/118-C-20-2.bmp\",\"pa:ka:ka\",\"Left\",\"39\",\"3\",\"3\",\"5\",\"P\",\"C\",\"51\"
\"\",\"\",\"approach-retreat\",\"200\",\"1641870\",\"0.0-200.0\",\"\",\"\",\"2-1\",\"4646\",\"37\",\"1\",\"Testing\",\"Stims/Figures/44-J-10-3.bmp\",\"mama:na\",\"Left\",\"37\",\"3\",\"4\",\"5\",\"S\",\"C\",\"52\"
\"\",\"\",\"approach-retreat\",\"201\",\"1647692\",\"0.0-201.0\",\"\",\"\",\"2-1\",\"4317\",\"39\",\"0\",\"Testing\",\"Stims/Figures/74-C-20-4.bmp\",\"ta:kata\",\"Right\",\"37\",\"3\",\"5\",\"5\",\"P\",\"C\",\"53\"
\"\",\"\",\"approach-retreat\",\"202\",\"1654043\",\"0.0-202.0\",\"\",\"\",\"2-1\",\"4842\",\"39\",\"0\",\"Testing\",\"Stims/Figures/111-C-30-3.bmp\",\"papata\",\"Right\",\"37\",\"3\",\"6\",\"5\",\"P\",\"C\",\"54\"
\"\",\"\",\"approach-retreat\",\"203\",\"1659721\",\"0.0-203.0\",\"\",\"\",\"2-1\",\"4171\",\"39\",\"1\",\"Testing\",\"Stims/Figures/93-J-0-1.bmp\",\"na:mana\",\"Right\",\"39\",\"3\",\"7\",\"5\",\"S\",\"C\",\"55\"
\"\",\"\",\"approach-retreat\",\"204\",\"1665497\",\"0.0-204.0\",\"\",\"\",\"2-1\",\"4268\",\"38\",\"0\",\"Testing\",\"Stims/Figures/139-C-20-2.bmp\",\"ta:pata\",\"Up\",\"40\",\"3\",\"8\",\"5\",\"P\",\"C\",\"56\"
\"\",\"\",\"approach-retreat\",\"205\",\"1671391\",\"0.0-205.0\",\"\",\"\",\"2-1\",\"4385\",\"40\",\"1\",\"Testing\",\"Stims/Figures/118-J-0-2.bmp\",\"ma:mana\",\"Down\",\"40\",\"3\",\"9\",\"5\",\"S\",\"C\",\"57\"
\"\",\"\",\"approach-retreat\",\"206\",\"1677899\",\"0.0-206.0\",\"\",\"\",\"2-1\",\"5000\",\"40\",\"0\",\"Testing\",\"Stims/Figures/85-C-20-2.bmp\",\"tapa:ta\",\"Down\",\"38\",\"3\",\"10\",\"5\",\"P\",\"C\",\"58\"
\"\",\"\",\"approach-retreat\",\"207\",\"1684200\",\"0.0-207.0\",\"\",\"\",\"2-1\",\"4795\",\"40\",\"1\",\"Testing\",\"Stims/Figures/87-C-20-4.bmp\",\"pakata\",\"Up\",\"40\",\"3\",\"11\",\"5\",\"P\",\"C\",\"59\"
\"\",\"\",\"approach-retreat\",\"208\",\"1690332\",\"0.0-208.0\",\"\",\"\",\"2-1\",\"4625\",\"40\",\"1\",\"Testing\",\"Stims/Figures/71-J-0-1.bmp\",\"ma:lana\",\"Down\",\"40\",\"3\",\"12\",\"5\",\"S\",\"C\",\"60\"
\"\",\"\",\"approach-retreat\",\"209\",\"1695838\",\"0.0-209.0\",\"\",\"\",\"2-1\",\"3998\",\"40\",\"1\",\"Testing\",\"Stims/Figures/128-J-10-3.bmp\",\"mamana\",\"Down\",\"40\",\"3\",\"13\",\"5\",\"S\",\"C\",\"61\"
\"\",\"\",\"approach-retreat\",\"210\",\"1702126\",\"0.0-210.0\",\"\",\"\",\"2-1\",\"4783\",\"38\",\"1\",\"Testing\",\"Stims/Figures/139-J-0-2.bmp\",\"nama:la\",\"Up\",\"38\",\"3\",\"14\",\"5\",\"S\",\"C\",\"62\"
\"\",\"\",\"approach-retreat\",\"211\",\"1708002\",\"0.0-211.0\",\"\",\"\",\"2-1\",\"4371\",\"40\",\"0\",\"Testing\",\"Stims/Figures/74-J-10-4.bmp\",\"nalala\",\"Up\",\"38\",\"3\",\"15\",\"5\",\"S\",\"C\",\"63\"
\"\",\"\",\"approach-retreat\",\"212\",\"1714423\",\"0.0-212.0\",\"\",\"\",\"2-1\",\"4916\",\"38\",\"0\",\"Testing\",\"Stims/Figures/128-C-30-3.bmp\",\"papa:ta\",\"Up\",\"40\",\"3\",\"16\",\"5\",\"P\",\"C\",\"64\"
\"\",\"\",\"approach-retreat\",\"213\",\"1720578\",\"0.0-213.0\",\"\",\"\",\"2-1\",\"4648\",\"38\",\"1\",\"Testing\",\"Stims/Figures/111-J-10-3.bmp\",\"na:la:la\",\"Up\",\"38\",\"3\",\"17\",\"5\",\"S\",\"C\",\"65\"
\"\",\"\",\"approach-retreat\",\"214\",\"1727137\",\"0.0-214.0\",\"\",\"\",\"2-1\",\"5054\",\"39\",\"1\",\"Testing\",\"Stims/Figures/102-J-10-4.bmp\",\"nalana\",\"Right\",\"39\",\"3\",\"18\",\"5\",\"S\",\"C\",\"66\"
\"\",\"\",\"approach-retreat\",\"215\",\"1733059\",\"0.0-215.0\",\"\",\"\",\"2-1\",\"4412\",\"37\",\"0\",\"Testing\",\"Stims/Figures/27-C-30-1.bmp\",\"pa:kaka\",\"Left\",\"39\",\"3\",\"19\",\"5\",\"P\",\"C\",\"67\"
\"\",\"\",\"approach-retreat\",\"216\",\"1738782\",\"0.0-216.0\",\"\",\"\",\"2-1\",\"4216\",\"37\",\"1\",\"Testing\",\"Stims/Figures/27-J-0-1.bmp\",\"malana\",\"Left\",\"37\",\"3\",\"20\",\"5\",\"S\",\"C\",\"68\"
\"\",\"\",\"approach-retreat\",\"217\",\"1744745\",\"0.0-217.0\",\"\",\"\",\"2-1\",\"4458\",\"37\",\"0\",\"Testing\",\"Stims/Figures/87-J-10-4.bmp\",\"nama:na\",\"Right\",\"39\",\"3\",\"21\",\"5\",\"S\",\"C\",\"69\"
\"\",\"\",\"approach-retreat\",\"218\",\"1751068\",\"0.0-218.0\",\"\",\"\",\"2-1\",\"4814\",\"40\",\"0\",\"Testing\",\"Stims/Figures/44-C-30-3.bmp\",\"pa:pa:ka\",\"Down\",\"38\",\"3\",\"22\",\"5\",\"P\",\"C\",\"70\"
\"\",\"\",\"approach-retreat\",\"219\",\"1756981\",\"0.0-219.0\",\"\",\"\",\"2-1\",\"4408\",\"37\",\"0\",\"Testing\",\"Stims/Figures/71-C-30-1.bmp\",\"tapa:ka\",\"Left\",\"39\",\"3\",\"23\",\"5\",\"P\",\"C\",\"71\"
\"\",\"\",\"approach-retreat\",\"220\",\"1763701\",\"0.0-220.0\",\"\",\"\",\"2-1\",\"5214\",\"39\",\"0\",\"Testing\",\"Stims/Figures/93-C-30-1.bmp\",\"taka:ka\",\"Right\",\"37\",\"3\",\"24\",\"5\",\"P\",\"C\",\"72\"
\"\",\"\",\"approach-retreat\",\"221\",\"1769390\",\"0.0-221.0\",\"\",\"\",\"2-1\",\"4183\",\"39\",\"1\",\"Testing\",\"Stims/Figures/74-J-10-4.bmp\",\"nalala\",\"Right\",\"39\",\"4\",\"1\",\"5\",\"S\",\"C\",\"73\"
\"\",\"\",\"approach-retreat\",\"222\",\"1775403\",\"0.0-222.0\",\"\",\"\",\"2-1\",\"4508\",\"37\",\"0\",\"Testing\",\"Stims/Figures/87-J-10-4.bmp\",\"nama:na\",\"Right\",\"39\",\"4\",\"2\",\"5\",\"S\",\"C\",\"74\"
\"\",\"\",\"approach-retreat\",\"223\",\"1781129\",\"0.0-223.0\",\"\",\"\",\"2-1\",\"4218\",\"38\",\"0\",\"Testing\",\"Stims/Figures/74-C-20-4.bmp\",\"ta:kata\",\"Up\",\"40\",\"4\",\"3\",\"5\",\"P\",\"C\",\"75\"
\"\",\"\",\"approach-retreat\",\"224\",\"1787723\",\"0.0-224.0\",\"\",\"\",\"2-1\",\"5090\",\"39\",\"0\",\"Testing\",\"Stims/Figures/139-J-0-2.bmp\",\"nama:la\",\"Left\",\"37\",\"4\",\"4\",\"5\",\"S\",\"C\",\"76\"
\"\",\"\",\"approach-retreat\",\"225\",\"1793746\",\"0.0-225.0\",\"\",\"\",\"2-1\",\"4515\",\"39\",\"0\",\"Testing\",\"Stims/Figures/71-C-30-1.bmp\",\"tapa:ka\",\"Right\",\"37\",\"4\",\"5\",\"5\",\"P\",\"C\",\"77\"
\"\",\"\",\"approach-retreat\",\"226\",\"1799634\",\"0.0-226.0\",\"\",\"\",\"2-1\",\"4382\",\"40\",\"0\",\"Testing\",\"Stims/Figures/102-C-20-4.bmp\",\"tapata\",\"Down\",\"38\",\"4\",\"6\",\"5\",\"P\",\"C\",\"78\"
\"\",\"\",\"approach-retreat\",\"227\",\"1806251\",\"0.0-227.0\",\"\",\"\",\"2-1\",\"5112\",\"37\",\"1\",\"Testing\",\"Stims/Figures/128-J-10-3.bmp\",\"mamana\",\"Left\",\"37\",\"4\",\"7\",\"5\",\"S\",\"C\",\"79\"
\"\",\"\",\"approach-retreat\",\"228\",\"1812025\",\"0.0-228.0\",\"\",\"\",\"2-1\",\"4268\",\"39\",\"1\",\"Testing\",\"Stims/Figures/87-C-20-4.bmp\",\"pakata\",\"Left\",\"39\",\"4\",\"8\",\"5\",\"P\",\"C\",\"80\"
\"\",\"\",\"approach-retreat\",\"229\",\"1818548\",\"0.0-229.0\",\"\",\"\",\"2-1\",\"5017\",\"37\",\"1\",\"Testing\",\"Stims/Figures/111-C-30-3.bmp\",\"papata\",\"Right\",\"37\",\"4\",\"9\",\"5\",\"P\",\"C\",\"81\"
\"\",\"\",\"approach-retreat\",\"230\",\"1824430\",\"0.0-230.0\",\"\",\"\",\"2-1\",\"4377\",\"38\",\"0\",\"Testing\",\"Stims/Figures/111-J-10-3.bmp\",\"na:la:la\",\"Down\",\"40\",\"4\",\"10\",\"5\",\"S\",\"C\",\"82\"
\"\",\"\",\"approach-retreat\",\"231\",\"1830431\",\"0.0-231.0\",\"\",\"\",\"2-1\",\"4493\",\"37\",\"1\",\"Testing\",\"Stims/Figures/139-C-20-2.bmp\",\"ta:pata\",\"Right\",\"37\",\"4\",\"11\",\"5\",\"P\",\"C\",\"83\"
\"\",\"\",\"approach-retreat\",\"232\",\"1836129\",\"0.0-232.0\",\"\",\"\",\"2-1\",\"4192\",\"38\",\"1\",\"Testing\",\"Stims/Figures/93-C-30-1.bmp\",\"taka:ka\",\"Down\",\"38\",\"4\",\"12\",\"5\",\"P\",\"C\",\"84\"
\"\",\"\",\"approach-retreat\",\"233\",\"1842814\",\"0.0-233.0\",\"\",\"\",\"2-1\",\"5179\",\"39\",\"1\",\"Testing\",\"Stims/Figures/102-J-10-4.bmp\",\"nalana\",\"Right\",\"39\",\"4\",\"13\",\"5\",\"S\",\"C\",\"85\"
\"\",\"\",\"approach-retreat\",\"234\",\"1848616\",\"0.0-234.0\",\"\",\"\",\"2-1\",\"4294\",\"38\",\"1\",\"Testing\",\"Stims/Figures/71-J-0-1.bmp\",\"ma:lana\",\"Up\",\"38\",\"4\",\"14\",\"5\",\"S\",\"C\",\"86\"
\"\",\"\",\"approach-retreat\",\"235\",\"1854482\",\"0.0-235.0\",\"\",\"\",\"2-1\",\"4356\",\"37\",\"0\",\"Testing\",\"Stims/Figures/128-C-30-3.bmp\",\"papa:ta\",\"Left\",\"39\",\"4\",\"15\",\"5\",\"P\",\"C\",\"87\"
\"\",\"\",\"approach-retreat\",\"236\",\"1861338\",\"0.0-236.0\",\"\",\"\",\"2-1\",\"5351\",\"37\",\"1\",\"Testing\",\"Stims/Figures/93-J-0-1.bmp\",\"na:mana\",\"Left\",\"37\",\"4\",\"16\",\"5\",\"S\",\"C\",\"88\"
\"\",\"\",\"approach-retreat\",\"237\",\"1871726\",\"0.0-237.0\",\"\",\"\",\"2-1\",\"8879\",\"38\",\"0\",\"Testing\",\"Stims/Figures/85-C-20-2.bmp\",\"tapa:ta\",\"Up\",\"40\",\"4\",\"17\",\"5\",\"P\",\"C\",\"89\"
\"\",\"\",\"approach-retreat\",\"238\",\"1882026\",\"0.0-238.0\",\"\",\"\",\"2-1\",\"8791\",\"38\",\"0\",\"Testing\",\"Stims/Figures/27-C-30-1.bmp\",\"pa:kaka\",\"Up\",\"40\",\"4\",\"18\",\"5\",\"P\",\"C\",\"90\"
\"\",\"\",\"approach-retreat\",\"239\",\"1888054\",\"0.0-239.0\",\"\",\"\",\"2-1\",\"4524\",\"38\",\"0\",\"Testing\",\"Stims/Figures/118-C-20-2.bmp\",\"pa:ka:ka\",\"Up\",\"40\",\"4\",\"19\",\"5\",\"P\",\"C\",\"91\"
\"\",\"\",\"approach-retreat\",\"240\",\"1894553\",\"0.0-240.0\",\"\",\"\",\"2-1\",\"4992\",\"37\",\"1\",\"Testing\",\"Stims/Figures/44-J-10-3.bmp\",\"mama:na\",\"Left\",\"37\",\"4\",\"20\",\"5\",\"S\",\"C\",\"92\"
\"\",\"\",\"approach-retreat\",\"241\",\"1900453\",\"0.0-241.0\",\"\",\"\",\"2-1\",\"4395\",\"38\",\"0\",\"Testing\",\"Stims/Figures/85-J-0-2.bmp\",\"nala:na\",\"Down\",\"40\",\"4\",\"21\",\"5\",\"S\",\"C\",\"93\"
\"\",\"\",\"approach-retreat\",\"242\",\"1906335\",\"0.0-242.0\",\"\",\"\",\"2-1\",\"4378\",\"40\",\"1\",\"Testing\",\"Stims/Figures/27-J-0-1.bmp\",\"malana\",\"Down\",\"40\",\"4\",\"22\",\"5\",\"S\",\"C\",\"94\"
\"\",\"\",\"approach-retreat\",\"243\",\"1915731\",\"0.0-243.0\",\"\",\"\",\"2-1\",\"7888\",\"38\",\"1\",\"Testing\",\"Stims/Figures/44-C-30-3.bmp\",\"pa:pa:ka\",\"Down\",\"38\",\"4\",\"23\",\"5\",\"P\",\"C\",\"95\"
\"\",\"\",\"approach-retreat\",\"244\",\"1921641\",\"0.0-244.0\",\"\",\"\",\"2-1\",\"4405\",\"38\",\"1\",\"Testing\",\"Stims/Figures/118-J-0-2.bmp\",\"ma:mana\",\"Up\",\"38\",\"4\",\"24\",\"5\",\"S\",\"C\",\"96\"
\"251724\",\"\",\"survey-text\",\"245\",\"2173372\",\"0.0-245.0\",\"\",\"{\"\"Q0\"\":\"\"1428/2017\"\"}\",\"\",\"\",\"\",\"\",\"\",\"\",\"\",\"\",\"\",\"\",\"\",\"\",\"\",\"\",\"\"
