\"rt\",\"key_press\",\"trial_type\",\"trial_index\",\"time_elapsed\",\"internal_node_id\",\"view_history\",\"responses\",\"Id\",\"Rt\",\"ResKeyCode\",\"ResCorr\",\"TrialType2\",\"Image\",\"Label\",\"Location\",\"CorrectResponse\",\"Block\",\"BlockTrial\",\"Condition\",\"LabelType\",\"Subcondition\",\"trialNum\"
\"18419\",\"32\",\"text\",\"0\",\"18421\",\"0.0-0.0-0.0\",\"\",\"\",\"\",\"\",\"\",\"\",\"\",\"\",\"\",\"\",\"\",\"\",\"\",\"\",\"\",\"\",\"\"
\"55584\",\"\",\"instructions\",\"1\",\"74009\",\"0.0-1.0\",\"[{\"\"page_index\"\":0,\"\"viewing_time\"\":55583}]\",\"\",\"\",\"\",\"\",\"\",\"\",\"\",\"\",\"\",\"\",\"\",\"\",\"\",\"\",\"\",\"\"
\"25432\",\"\",\"survey-multi-choice\",\"2\",\"99480\",\"0.0-2.0\",\"\",\"{\"\"Q0\"\":\"\"Da\"\",\"\"Q1\"\":\"\"Da\"\",\"\"Q2\"\":\"\"Da\"\",\"\"Q3\"\":\"\"Da\"\",\"\"Q4\"\":\"\"Da\"\",\"\"Q5\"\":\"\"Da\"\"}\",\"\",\"\",\"\",\"\",\"\",\"\",\"\",\"\",\"\",\"\",\"\",\"\",\"\",\"\",\"\"
\"\",\"\",\"bio\",\"3\",\"105879\",\"0.0-3.0\",\"\",\"{\"\"age\"\":\"\"20\"\",\"\"gender\"\":\"\"f\"\",\"\"specify\"\":\"\"\"\"}\",\"\",\"\",\"\",\"\",\"\",\"\",\"\",\"\",\"\",\"\",\"\",\"\",\"\",\"\",\"\"
\"\",\"\",\"approach-retreat\",\"4\",\"112781\",\"0.0-4.0\",\"\",\"\",\"3-5\",\"5397\",\"39\",\"0\",\"Training\",\"Stims/Figures/111-C-30-3.bmp\",\"za:haza\",\"Right\",\"37\",\"1\",\"1\",\"8\",\"C2\",\"C\",\"1\"
\"\",\"\",\"approach-retreat\",\"5\",\"118900\",\"0.0-5.0\",\"\",\"\",\"3-5\",\"4609\",\"40\",\"1\",\"Training\",\"Stims/Figures/7-C-20-4.bmp\",\"zaha:za\",\"Up\",\"40\",\"1\",\"2\",\"8\",\"C2\",\"C\",\"2\"
\"\",\"\",\"approach-retreat\",\"6\",\"125178\",\"0.0-6.0\",\"\",\"\",\"3-5\",\"4770\",\"39\",\"1\",\"Training\",\"Stims/Figures/86-C-30-1.bmp\",\"vafasha\",\"Left\",\"39\",\"1\",\"3\",\"8\",\"C1\",\"C\",\"3\"
\"\",\"\",\"approach-retreat\",\"7\",\"130893\",\"0.0-7.0\",\"\",\"\",\"3-5\",\"4206\",\"38\",\"0\",\"Training\",\"Stims/Figures/94-J-0-2.bmp\",\"fasha:va\",\"Down\",\"40\",\"1\",\"4\",\"8\",\"C1\",\"C\",\"4\"
\"\",\"\",\"approach-retreat\",\"8\",\"137329\",\"0.0-8.0\",\"\",\"\",\"3-5\",\"4927\",\"37\",\"1\",\"Training\",\"Stims/Figures/111-J-10-3.bmp\",\"saha:ha\",\"Left\",\"37\",\"1\",\"5\",\"8\",\"C2\",\"C\",\"5\"
\"\",\"\",\"approach-retreat\",\"9\",\"143663\",\"0.0-9.0\",\"\",\"\",\"3-5\",\"4825\",\"38\",\"1\",\"Training\",\"Stims/Figures/44-C-30-3.bmp\",\"za:ha:ha\",\"Down\",\"38\",\"1\",\"6\",\"8\",\"C2\",\"C\",\"6\"
\"\",\"\",\"approach-retreat\",\"10\",\"149582\",\"0.0-10.0\",\"\",\"\",\"3-5\",\"4409\",\"40\",\"1\",\"Training\",\"Stims/Figures/94-C-20-2.bmp\",\"fa:shasha\",\"Up\",\"40\",\"1\",\"7\",\"8\",\"C1\",\"C\",\"7\"
\"\",\"\",\"approach-retreat\",\"11\",\"155849\",\"0.0-11.0\",\"\",\"\",\"3-5\",\"4758\",\"39\",\"1\",\"Training\",\"Stims/Figures/7-J-10-4.bmp\",\"sa:ha:ha\",\"Right\",\"39\",\"1\",\"8\",\"8\",\"C2\",\"C\",\"8\"
\"\",\"\",\"approach-retreat\",\"12\",\"162407\",\"0.0-12.0\",\"\",\"\",\"3-5\",\"5047\",\"37\",\"0\",\"Training\",\"Stims/Figures/102-J-10-4.bmp\",\"zasa:za\",\"Right\",\"39\",\"1\",\"9\",\"8\",\"C2\",\"C\",\"9\"
\"\",\"\",\"approach-retreat\",\"13\",\"168458\",\"0.0-13.0\",\"\",\"\",\"3-5\",\"4544\",\"39\",\"0\",\"Training\",\"Stims/Figures/44-J-10-3.bmp\",\"za:saza\",\"Left\",\"37\",\"1\",\"10\",\"8\",\"C2\",\"C\",\"10\"
\"\",\"\",\"approach-retreat\",\"14\",\"174726\",\"0.0-14.0\",\"\",\"\",\"3-5\",\"4759\",\"37\",\"1\",\"Training\",\"Stims/Figures/27-C-30-1.bmp\",\"vasha:va\",\"Right\",\"37\",\"1\",\"11\",\"8\",\"C1\",\"C\",\"11\"
\"\",\"\",\"approach-retreat\",\"15\",\"182173\",\"0.0-15.0\",\"\",\"\",\"3-5\",\"5939\",\"40\",\"1\",\"Training\",\"Stims/Figures/27-J-0-1.bmp\",\"va:fa:va\",\"Down\",\"40\",\"1\",\"12\",\"8\",\"C1\",\"C\",\"12\"
\"\",\"\",\"approach-retreat\",\"16\",\"188069\",\"0.0-16.0\",\"\",\"\",\"3-5\",\"4388\",\"38\",\"1\",\"Training\",\"Stims/Figures/86-J-0-1.bmp\",\"vashasha\",\"Up\",\"38\",\"1\",\"13\",\"8\",\"C1\",\"C\",\"13\"
\"\",\"\",\"approach-retreat\",\"17\",\"194616\",\"0.0-17.0\",\"\",\"\",\"3-5\",\"5039\",\"38\",\"0\",\"Training\",\"Stims/Figures/102-C-20-4.bmp\",\"sahaza\",\"Up\",\"40\",\"1\",\"14\",\"8\",\"C2\",\"C\",\"14\"
\"\",\"\",\"approach-retreat\",\"18\",\"200423\",\"0.0-18.0\",\"\",\"\",\"3-5\",\"4298\",\"37\",\"1\",\"Training\",\"Stims/Figures/84-J-0-2.bmp\",\"va:fa:sha\",\"Left\",\"37\",\"1\",\"15\",\"8\",\"C1\",\"C\",\"15\"
\"\",\"\",\"approach-retreat\",\"19\",\"206274\",\"0.0-19.0\",\"\",\"\",\"3-5\",\"4340\",\"40\",\"0\",\"Training\",\"Stims/Figures/84-C-20-2.bmp\",\"fa:fava\",\"Down\",\"38\",\"1\",\"16\",\"8\",\"C1\",\"C\",\"16\"
\"\",\"\",\"approach-retreat\",\"20\",\"212934\",\"0.0-20.0\",\"\",\"\",\"3-5\",\"5151\",\"38\",\"1\",\"Training\",\"Stims/Figures/102-J-10-4.bmp\",\"zasa:za\",\"Up\",\"38\",\"2\",\"1\",\"8\",\"C2\",\"C\",\"17\"
\"\",\"\",\"approach-retreat\",\"21\",\"220505\",\"0.0-21.0\",\"\",\"\",\"3-5\",\"6061\",\"37\",\"1\",\"Training\",\"Stims/Figures/84-J-0-2.bmp\",\"va:fa:sha\",\"Left\",\"37\",\"2\",\"2\",\"8\",\"C1\",\"C\",\"18\"
\"\",\"\",\"approach-retreat\",\"22\",\"226390\",\"0.0-22.0\",\"\",\"\",\"3-5\",\"4375\",\"40\",\"1\",\"Training\",\"Stims/Figures/44-C-30-3.bmp\",\"za:ha:ha\",\"Up\",\"40\",\"2\",\"3\",\"8\",\"C2\",\"C\",\"19\"
\"\",\"\",\"approach-retreat\",\"23\",\"232104\",\"0.0-23.0\",\"\",\"\",\"3-5\",\"4205\",\"38\",\"1\",\"Training\",\"Stims/Figures/7-J-10-4.bmp\",\"sa:ha:ha\",\"Up\",\"38\",\"2\",\"4\",\"8\",\"C2\",\"C\",\"20\"
\"\",\"\",\"approach-retreat\",\"24\",\"237819\",\"0.0-24.0\",\"\",\"\",\"3-5\",\"4208\",\"37\",\"1\",\"Training\",\"Stims/Figures/44-J-10-3.bmp\",\"za:saza\",\"Left\",\"37\",\"2\",\"5\",\"8\",\"C2\",\"C\",\"21\"
\"\",\"\",\"approach-retreat\",\"25\",\"243537\",\"0.0-25.0\",\"\",\"\",\"3-5\",\"4206\",\"37\",\"0\",\"Training\",\"Stims/Figures/111-C-30-3.bmp\",\"za:haza\",\"Left\",\"39\",\"2\",\"6\",\"8\",\"C2\",\"C\",\"22\"
\"\",\"\",\"approach-retreat\",\"26\",\"249295\",\"0.0-26.0\",\"\",\"\",\"3-5\",\"4250\",\"40\",\"1\",\"Training\",\"Stims/Figures/111-J-10-3.bmp\",\"saha:ha\",\"Down\",\"40\",\"2\",\"7\",\"8\",\"C2\",\"C\",\"23\"
\"\",\"\",\"approach-retreat\",\"27\",\"255145\",\"0.0-27.0\",\"\",\"\",\"3-5\",\"4341\",\"39\",\"0\",\"Training\",\"Stims/Figures/7-C-20-4.bmp\",\"zaha:za\",\"Right\",\"37\",\"2\",\"8\",\"8\",\"C2\",\"C\",\"24\"
\"\",\"\",\"approach-retreat\",\"28\",\"261175\",\"0.0-28.0\",\"\",\"\",\"3-5\",\"4523\",\"39\",\"0\",\"Training\",\"Stims/Figures/86-C-30-1.bmp\",\"vafasha\",\"Right\",\"37\",\"2\",\"9\",\"8\",\"C1\",\"C\",\"25\"
\"\",\"\",\"approach-retreat\",\"29\",\"266833\",\"0.0-29.0\",\"\",\"\",\"3-5\",\"4152\",\"39\",\"0\",\"Training\",\"Stims/Figures/102-C-20-4.bmp\",\"sahaza\",\"Right\",\"37\",\"2\",\"10\",\"8\",\"C2\",\"C\",\"26\"
\"\",\"\",\"approach-retreat\",\"30\",\"273483\",\"0.0-30.0\",\"\",\"\",\"3-5\",\"5141\",\"39\",\"1\",\"Training\",\"Stims/Figures/84-C-20-2.bmp\",\"fa:fava\",\"Left\",\"39\",\"2\",\"11\",\"8\",\"C1\",\"C\",\"27\"
\"\",\"\",\"approach-retreat\",\"31\",\"279693\",\"0.0-31.0\",\"\",\"\",\"3-5\",\"4701\",\"40\",\"1\",\"Training\",\"Stims/Figures/27-J-0-1.bmp\",\"va:fa:va\",\"Down\",\"40\",\"2\",\"12\",\"8\",\"C1\",\"C\",\"28\"
\"\",\"\",\"approach-retreat\",\"32\",\"285577\",\"0.0-32.0\",\"\",\"\",\"3-5\",\"4376\",\"40\",\"0\",\"Training\",\"Stims/Figures/94-C-20-2.bmp\",\"fa:shasha\",\"Down\",\"38\",\"2\",\"13\",\"8\",\"C1\",\"C\",\"29\"
\"\",\"\",\"approach-retreat\",\"33\",\"292384\",\"0.0-33.0\",\"\",\"\",\"3-5\",\"5299\",\"37\",\"0\",\"Training\",\"Stims/Figures/86-J-0-1.bmp\",\"vashasha\",\"Right\",\"39\",\"2\",\"14\",\"8\",\"C1\",\"C\",\"30\"
\"\",\"\",\"approach-retreat\",\"34\",\"298258\",\"0.0-34.0\",\"\",\"\",\"3-5\",\"4364\",\"38\",\"0\",\"Training\",\"Stims/Figures/27-C-30-1.bmp\",\"vasha:va\",\"Up\",\"40\",\"2\",\"15\",\"8\",\"C1\",\"C\",\"31\"
\"\",\"\",\"approach-retreat\",\"35\",\"305187\",\"0.0-35.0\",\"\",\"\",\"3-5\",\"5421\",\"38\",\"0\",\"Training\",\"Stims/Figures/94-J-0-2.bmp\",\"fasha:va\",\"Down\",\"40\",\"2\",\"16\",\"8\",\"C1\",\"C\",\"32\"
\"\",\"\",\"approach-retreat\",\"36\",\"312444\",\"0.0-36.0\",\"\",\"\",\"3-5\",\"5748\",\"37\",\"0\",\"Training\",\"Stims/Figures/27-C-30-1.bmp\",\"vasha:va\",\"Left\",\"39\",\"3\",\"1\",\"8\",\"C1\",\"C\",\"33\"
\"\",\"\",\"approach-retreat\",\"37\",\"318654\",\"0.0-37.0\",\"\",\"\",\"3-5\",\"4701\",\"38\",\"1\",\"Training\",\"Stims/Figures/86-J-0-1.bmp\",\"vashasha\",\"Up\",\"38\",\"3\",\"2\",\"8\",\"C1\",\"C\",\"34\"
\"\",\"\",\"approach-retreat\",\"38\",\"324967\",\"0.0-38.0\",\"\",\"\",\"3-5\",\"4804\",\"37\",\"0\",\"Training\",\"Stims/Figures/111-C-30-3.bmp\",\"za:haza\",\"Left\",\"39\",\"3\",\"3\",\"8\",\"C2\",\"C\",\"35\"
\"\",\"\",\"approach-retreat\",\"39\",\"332346\",\"0.0-39.0\",\"\",\"\",\"3-5\",\"5870\",\"39\",\"0\",\"Training\",\"Stims/Figures/7-C-20-4.bmp\",\"zaha:za\",\"Right\",\"37\",\"3\",\"4\",\"8\",\"C2\",\"C\",\"36\"
\"\",\"\",\"approach-retreat\",\"40\",\"338028\",\"0.0-40.0\",\"\",\"\",\"3-5\",\"4173\",\"38\",\"1\",\"Training\",\"Stims/Figures/44-J-10-3.bmp\",\"za:saza\",\"Up\",\"38\",\"3\",\"5\",\"8\",\"C2\",\"C\",\"37\"
\"\",\"\",\"approach-retreat\",\"41\",\"343888\",\"0.0-41.0\",\"\",\"\",\"3-5\",\"4353\",\"37\",\"0\",\"Training\",\"Stims/Figures/86-C-30-1.bmp\",\"vafasha\",\"Left\",\"39\",\"3\",\"6\",\"8\",\"C1\",\"C\",\"38\"
\"\",\"\",\"approach-retreat\",\"42\",\"351416\",\"0.0-42.0\",\"\",\"\",\"3-5\",\"6019\",\"37\",\"0\",\"Training\",\"Stims/Figures/27-J-0-1.bmp\",\"va:fa:va\",\"Right\",\"39\",\"3\",\"7\",\"8\",\"C1\",\"C\",\"39\"
\"\",\"\",\"approach-retreat\",\"43\",\"358032\",\"0.0-43.0\",\"\",\"\",\"3-5\",\"5107\",\"39\",\"1\",\"Training\",\"Stims/Figures/84-J-0-2.bmp\",\"va:fa:sha\",\"Right\",\"39\",\"3\",\"8\",\"8\",\"C1\",\"C\",\"40\"
\"\",\"\",\"approach-retreat\",\"44\",\"366120\",\"0.0-44.0\",\"\",\"\",\"3-5\",\"6580\",\"39\",\"1\",\"Training\",\"Stims/Figures/94-J-0-2.bmp\",\"fasha:va\",\"Right\",\"39\",\"3\",\"9\",\"8\",\"C1\",\"C\",\"41\"
\"\",\"\",\"approach-retreat\",\"45\",\"371869\",\"0.0-45.0\",\"\",\"\",\"3-5\",\"4241\",\"38\",\"0\",\"Training\",\"Stims/Figures/111-J-10-3.bmp\",\"saha:ha\",\"Down\",\"40\",\"3\",\"10\",\"8\",\"C2\",\"C\",\"42\"
\"\",\"\",\"approach-retreat\",\"46\",\"377753\",\"0.0-46.0\",\"\",\"\",\"3-5\",\"4376\",\"40\",\"1\",\"Training\",\"Stims/Figures/102-C-20-4.bmp\",\"sahaza\",\"Up\",\"40\",\"3\",\"11\",\"8\",\"C2\",\"C\",\"43\"
\"\",\"\",\"approach-retreat\",\"47\",\"384683\",\"0.0-47.0\",\"\",\"\",\"3-5\",\"5421\",\"40\",\"0\",\"Training\",\"Stims/Figures/94-C-20-2.bmp\",\"fa:shasha\",\"Down\",\"38\",\"3\",\"12\",\"8\",\"C1\",\"C\",\"44\"
\"\",\"\",\"approach-retreat\",\"48\",\"391165\",\"0.0-48.0\",\"\",\"\",\"3-5\",\"4973\",\"38\",\"0\",\"Training\",\"Stims/Figures/84-C-20-2.bmp\",\"fa:fava\",\"Up\",\"40\",\"3\",\"13\",\"8\",\"C1\",\"C\",\"45\"
\"\",\"\",\"approach-retreat\",\"49\",\"397319\",\"0.0-49.0\",\"\",\"\",\"3-5\",\"4646\",\"39\",\"0\",\"Training\",\"Stims/Figures/7-J-10-4.bmp\",\"sa:ha:ha\",\"Left\",\"37\",\"3\",\"14\",\"8\",\"C2\",\"C\",\"46\"
\"\",\"\",\"approach-retreat\",\"50\",\"403890\",\"0.0-50.0\",\"\",\"\",\"3-5\",\"5062\",\"38\",\"0\",\"Training\",\"Stims/Figures/102-J-10-4.bmp\",\"zasa:za\",\"Down\",\"40\",\"3\",\"15\",\"8\",\"C2\",\"C\",\"47\"
\"\",\"\",\"approach-retreat\",\"51\",\"409423\",\"0.0-51.0\",\"\",\"\",\"3-5\",\"4025\",\"40\",\"0\",\"Training\",\"Stims/Figures/44-C-30-3.bmp\",\"za:ha:ha\",\"Down\",\"38\",\"3\",\"16\",\"8\",\"C2\",\"C\",\"48\"
\"\",\"\",\"approach-retreat\",\"52\",\"416995\",\"0.0-52.0\",\"\",\"\",\"3-5\",\"6064\",\"38\",\"0\",\"Training\",\"Stims/Figures/102-C-20-4.bmp\",\"sahaza\",\"Up\",\"40\",\"4\",\"1\",\"8\",\"C2\",\"C\",\"49\"
\"\",\"\",\"approach-retreat\",\"53\",\"424017\",\"0.0-53.0\",\"\",\"\",\"3-5\",\"5512\",\"39\",\"0\",\"Training\",\"Stims/Figures/44-J-10-3.bmp\",\"za:saza\",\"Left\",\"37\",\"4\",\"2\",\"8\",\"C2\",\"C\",\"50\"
\"\",\"\",\"approach-retreat\",\"54\",\"430271\",\"0.0-54.0\",\"\",\"\",\"3-5\",\"4747\",\"37\",\"0\",\"Training\",\"Stims/Figures/94-J-0-2.bmp\",\"fasha:va\",\"Right\",\"39\",\"4\",\"3\",\"8\",\"C1\",\"C\",\"51\"
\"\",\"\",\"approach-retreat\",\"55\",\"436953\",\"0.0-55.0\",\"\",\"\",\"3-5\",\"5175\",\"38\",\"0\",\"Training\",\"Stims/Figures/86-J-0-1.bmp\",\"vashasha\",\"Down\",\"40\",\"4\",\"4\",\"8\",\"C1\",\"C\",\"52\"
\"\",\"\",\"approach-retreat\",\"56\",\"443648\",\"0.0-56.0\",\"\",\"\",\"3-5\",\"5188\",\"40\",\"0\",\"Training\",\"Stims/Figures/27-J-0-1.bmp\",\"va:fa:va\",\"Up\",\"38\",\"4\",\"5\",\"8\",\"C1\",\"C\",\"53\"
\"\",\"\",\"approach-retreat\",\"57\",\"449363\",\"0.0-57.0\",\"\",\"\",\"3-5\",\"4207\",\"38\",\"1\",\"Training\",\"Stims/Figures/94-C-20-2.bmp\",\"fa:shasha\",\"Down\",\"38\",\"4\",\"6\",\"8\",\"C1\",\"C\",\"54\"
\"\",\"\",\"approach-retreat\",\"58\",\"455067\",\"0.0-58.0\",\"\",\"\",\"3-5\",\"4196\",\"37\",\"1\",\"Training\",\"Stims/Figures/7-C-20-4.bmp\",\"zaha:za\",\"Right\",\"37\",\"4\",\"7\",\"8\",\"C2\",\"C\",\"55\"
\"\",\"\",\"approach-retreat\",\"59\",\"461536\",\"0.0-59.0\",\"\",\"\",\"3-5\",\"4960\",\"37\",\"1\",\"Training\",\"Stims/Figures/84-J-0-2.bmp\",\"va:fa:sha\",\"Left\",\"37\",\"4\",\"8\",\"8\",\"C1\",\"C\",\"56\"
\"\",\"\",\"approach-retreat\",\"60\",\"467296\",\"0.0-60.0\",\"\",\"\",\"3-5\",\"4253\",\"39\",\"1\",\"Training\",\"Stims/Figures/7-J-10-4.bmp\",\"sa:ha:ha\",\"Right\",\"39\",\"4\",\"9\",\"8\",\"C2\",\"C\",\"57\"
\"\",\"\",\"approach-retreat\",\"61\",\"473023\",\"0.0-61.0\",\"\",\"\",\"3-5\",\"4218\",\"37\",\"1\",\"Training\",\"Stims/Figures/84-C-20-2.bmp\",\"fa:fava\",\"Right\",\"37\",\"4\",\"10\",\"8\",\"C1\",\"C\",\"58\"
\"\",\"\",\"approach-retreat\",\"62\",\"478648\",\"0.0-62.0\",\"\",\"\",\"3-5\",\"4117\",\"40\",\"1\",\"Training\",\"Stims/Figures/102-J-10-4.bmp\",\"zasa:za\",\"Down\",\"40\",\"4\",\"11\",\"8\",\"C2\",\"C\",\"59\"
\"\",\"\",\"approach-retreat\",\"63\",\"484465\",\"0.0-63.0\",\"\",\"\",\"3-5\",\"4307\",\"37\",\"0\",\"Training\",\"Stims/Figures/111-C-30-3.bmp\",\"za:haza\",\"Left\",\"39\",\"4\",\"12\",\"8\",\"C2\",\"C\",\"60\"
\"\",\"\",\"approach-retreat\",\"64\",\"490090\",\"0.0-64.0\",\"\",\"\",\"3-5\",\"4117\",\"37\",\"0\",\"Training\",\"Stims/Figures/86-C-30-1.bmp\",\"vafasha\",\"Left\",\"39\",\"4\",\"13\",\"8\",\"C1\",\"C\",\"61\"
\"\",\"\",\"approach-retreat\",\"65\",\"495760\",\"0.0-65.0\",\"\",\"\",\"3-5\",\"4162\",\"40\",\"0\",\"Training\",\"Stims/Figures/111-J-10-3.bmp\",\"saha:ha\",\"Up\",\"38\",\"4\",\"14\",\"8\",\"C2\",\"C\",\"62\"
\"\",\"\",\"approach-retreat\",\"66\",\"501803\",\"0.0-66.0\",\"\",\"\",\"3-5\",\"4534\",\"40\",\"0\",\"Training\",\"Stims/Figures/44-C-30-3.bmp\",\"za:ha:ha\",\"Down\",\"38\",\"4\",\"15\",\"8\",\"C2\",\"C\",\"63\"
\"\",\"\",\"approach-retreat\",\"67\",\"508114\",\"0.0-67.0\",\"\",\"\",\"3-5\",\"4803\",\"38\",\"0\",\"Training\",\"Stims/Figures/27-C-30-1.bmp\",\"vasha:va\",\"Up\",\"40\",\"4\",\"16\",\"8\",\"C1\",\"C\",\"64\"
\"\",\"\",\"approach-retreat\",\"68\",\"514718\",\"0.0-68.0\",\"\",\"\",\"3-5\",\"5094\",\"40\",\"1\",\"Training\",\"Stims/Figures/94-J-0-2.bmp\",\"fasha:va\",\"Down\",\"40\",\"5\",\"1\",\"8\",\"C1\",\"C\",\"65\"
\"\",\"\",\"approach-retreat\",\"69\",\"520601\",\"0.0-69.0\",\"\",\"\",\"3-5\",\"4376\",\"37\",\"1\",\"Training\",\"Stims/Figures/7-J-10-4.bmp\",\"sa:ha:ha\",\"Left\",\"37\",\"5\",\"2\",\"8\",\"C2\",\"C\",\"66\"
\"\",\"\",\"approach-retreat\",\"70\",\"526261\",\"0.0-70.0\",\"\",\"\",\"3-5\",\"4151\",\"37\",\"0\",\"Training\",\"Stims/Figures/27-C-30-1.bmp\",\"vasha:va\",\"Left\",\"39\",\"5\",\"3\",\"8\",\"C1\",\"C\",\"67\"
\"\",\"\",\"approach-retreat\",\"71\",\"533078\",\"0.0-71.0\",\"\",\"\",\"3-5\",\"5308\",\"39\",\"1\",\"Training\",\"Stims/Figures/111-C-30-3.bmp\",\"za:haza\",\"Left\",\"39\",\"5\",\"4\",\"8\",\"C2\",\"C\",\"68\"
\"\",\"\",\"approach-retreat\",\"72\",\"538793\",\"0.0-72.0\",\"\",\"\",\"3-5\",\"4207\",\"39\",\"1\",\"Training\",\"Stims/Figures/44-C-30-3.bmp\",\"za:ha:ha\",\"Left\",\"39\",\"5\",\"5\",\"8\",\"C2\",\"C\",\"69\"
\"\",\"\",\"approach-retreat\",\"73\",\"545567\",\"0.0-73.0\",\"\",\"\",\"3-5\",\"5264\",\"38\",\"1\",\"Training\",\"Stims/Figures/44-J-10-3.bmp\",\"za:saza\",\"Up\",\"38\",\"5\",\"6\",\"8\",\"C2\",\"C\",\"70\"
\"\",\"\",\"approach-retreat\",\"74\",\"551283\",\"0.0-74.0\",\"\",\"\",\"3-5\",\"4206\",\"37\",\"0\",\"Training\",\"Stims/Figures/84-J-0-2.bmp\",\"va:fa:sha\",\"Right\",\"39\",\"5\",\"7\",\"8\",\"C1\",\"C\",\"71\"
\"\",\"\",\"approach-retreat\",\"75\",\"556942\",\"0.0-75.0\",\"\",\"\",\"3-5\",\"4150\",\"40\",\"1\",\"Training\",\"Stims/Figures/84-C-20-2.bmp\",\"fa:fava\",\"Up\",\"40\",\"5\",\"8\",\"8\",\"C1\",\"C\",\"72\"
\"\",\"\",\"approach-retreat\",\"76\",\"562567\",\"0.0-76.0\",\"\",\"\",\"3-5\",\"4116\",\"38\",\"0\",\"Training\",\"Stims/Figures/111-J-10-3.bmp\",\"saha:ha\",\"Down\",\"40\",\"5\",\"9\",\"8\",\"C2\",\"C\",\"73\"
\"\",\"\",\"approach-retreat\",\"77\",\"568214\",\"0.0-77.0\",\"\",\"\",\"3-5\",\"4140\",\"40\",\"1\",\"Training\",\"Stims/Figures/7-C-20-4.bmp\",\"zaha:za\",\"Up\",\"40\",\"5\",\"10\",\"8\",\"C2\",\"C\",\"74\"
\"\",\"\",\"approach-retreat\",\"78\",\"573728\",\"0.0-78.0\",\"\",\"\",\"3-5\",\"4005\",\"40\",\"1\",\"Training\",\"Stims/Figures/102-C-20-4.bmp\",\"sahaza\",\"Up\",\"40\",\"5\",\"11\",\"8\",\"C2\",\"C\",\"75\"
\"\",\"\",\"approach-retreat\",\"79\",\"579431\",\"0.0-79.0\",\"\",\"\",\"3-5\",\"4194\",\"38\",\"1\",\"Training\",\"Stims/Figures/86-C-30-1.bmp\",\"vafasha\",\"Down\",\"38\",\"5\",\"12\",\"8\",\"C1\",\"C\",\"76\"
\"\",\"\",\"approach-retreat\",\"80\",\"585170\",\"0.0-80.0\",\"\",\"\",\"3-5\",\"4228\",\"37\",\"0\",\"Training\",\"Stims/Figures/86-J-0-1.bmp\",\"vashasha\",\"Right\",\"39\",\"5\",\"13\",\"8\",\"C1\",\"C\",\"77\"
\"\",\"\",\"approach-retreat\",\"81\",\"591491\",\"0.0-81.0\",\"\",\"\",\"3-5\",\"4812\",\"39\",\"0\",\"Training\",\"Stims/Figures/94-C-20-2.bmp\",\"fa:shasha\",\"Right\",\"37\",\"5\",\"14\",\"8\",\"C1\",\"C\",\"78\"
\"\",\"\",\"approach-retreat\",\"82\",\"597488\",\"0.0-82.0\",\"\",\"\",\"3-5\",\"4489\",\"38\",\"0\",\"Training\",\"Stims/Figures/27-J-0-1.bmp\",\"va:fa:va\",\"Down\",\"40\",\"5\",\"15\",\"8\",\"C1\",\"C\",\"79\"
\"\",\"\",\"approach-retreat\",\"83\",\"603260\",\"0.0-83.0\",\"\",\"\",\"3-5\",\"4264\",\"37\",\"0\",\"Training\",\"Stims/Figures/102-J-10-4.bmp\",\"zasa:za\",\"Right\",\"39\",\"5\",\"16\",\"8\",\"C2\",\"C\",\"80\"
\"\",\"\",\"approach-retreat\",\"84\",\"608975\",\"0.0-84.0\",\"\",\"\",\"3-5\",\"4207\",\"40\",\"1\",\"Training\",\"Stims/Figures/44-C-30-3.bmp\",\"za:ha:ha\",\"Up\",\"40\",\"6\",\"1\",\"8\",\"C2\",\"C\",\"81\"
\"\",\"\",\"approach-retreat\",\"85\",\"615342\",\"0.0-85.0\",\"\",\"\",\"3-5\",\"4860\",\"37\",\"0\",\"Training\",\"Stims/Figures/86-J-0-1.bmp\",\"vashasha\",\"Right\",\"39\",\"6\",\"2\",\"8\",\"C1\",\"C\",\"82\"
\"\",\"\",\"approach-retreat\",\"86\",\"621249\",\"0.0-86.0\",\"\",\"\",\"3-5\",\"4399\",\"40\",\"1\",\"Training\",\"Stims/Figures/111-J-10-3.bmp\",\"saha:ha\",\"Down\",\"40\",\"6\",\"3\",\"8\",\"C2\",\"C\",\"83\"
\"\",\"\",\"approach-retreat\",\"87\",\"626638\",\"0.0-87.0\",\"\",\"\",\"3-5\",\"3882\",\"38\",\"0\",\"Training\",\"Stims/Figures/7-C-20-4.bmp\",\"zaha:za\",\"Up\",\"40\",\"6\",\"4\",\"8\",\"C2\",\"C\",\"84\"
\"\",\"\",\"approach-retreat\",\"88\",\"632636\",\"0.0-88.0\",\"\",\"\",\"3-5\",\"4489\",\"39\",\"0\",\"Training\",\"Stims/Figures/86-C-30-1.bmp\",\"vafasha\",\"Right\",\"37\",\"6\",\"5\",\"8\",\"C1\",\"C\",\"85\"
\"\",\"\",\"approach-retreat\",\"89\",\"639002\",\"0.0-89.0\",\"\",\"\",\"3-5\",\"4857\",\"37\",\"1\",\"Training\",\"Stims/Figures/94-J-0-2.bmp\",\"fasha:va\",\"Left\",\"37\",\"6\",\"6\",\"8\",\"C1\",\"C\",\"86\"
\"\",\"\",\"approach-retreat\",\"90\",\"645192\",\"0.0-90.0\",\"\",\"\",\"3-5\",\"4680\",\"39\",\"0\",\"Training\",\"Stims/Figures/111-C-30-3.bmp\",\"za:haza\",\"Right\",\"37\",\"6\",\"7\",\"8\",\"C2\",\"C\",\"87\"
\"\",\"\",\"approach-retreat\",\"91\",\"651075\",\"0.0-91.0\",\"\",\"\",\"3-5\",\"4375\",\"38\",\"0\",\"Training\",\"Stims/Figures/84-J-0-2.bmp\",\"va:fa:sha\",\"Down\",\"40\",\"6\",\"8\",\"8\",\"C1\",\"C\",\"88\"
\"\",\"\",\"approach-retreat\",\"92\",\"656947\",\"0.0-92.0\",\"\",\"\",\"3-5\",\"4365\",\"39\",\"0\",\"Training\",\"Stims/Figures/94-C-20-2.bmp\",\"fa:shasha\",\"Right\",\"37\",\"6\",\"9\",\"8\",\"C1\",\"C\",\"89\"
\"\",\"\",\"approach-retreat\",\"93\",\"662617\",\"0.0-93.0\",\"\",\"\",\"3-5\",\"4161\",\"38\",\"1\",\"Training\",\"Stims/Figures/84-C-20-2.bmp\",\"fa:fava\",\"Down\",\"38\",\"6\",\"10\",\"8\",\"C1\",\"C\",\"90\"
\"\",\"\",\"approach-retreat\",\"94\",\"668940\",\"0.0-94.0\",\"\",\"\",\"3-5\",\"4816\",\"37\",\"1\",\"Training\",\"Stims/Figures/44-J-10-3.bmp\",\"za:saza\",\"Left\",\"37\",\"6\",\"11\",\"8\",\"C2\",\"C\",\"91\"
\"\",\"\",\"approach-retreat\",\"95\",\"675692\",\"0.0-95.0\",\"\",\"\",\"3-5\",\"5242\",\"40\",\"0\",\"Training\",\"Stims/Figures/27-J-0-1.bmp\",\"va:fa:va\",\"Up\",\"38\",\"6\",\"12\",\"8\",\"C1\",\"C\",\"92\"
\"\",\"\",\"approach-retreat\",\"96\",\"681260\",\"0.0-96.0\",\"\",\"\",\"3-5\",\"4059\",\"39\",\"1\",\"Training\",\"Stims/Figures/27-C-30-1.bmp\",\"vasha:va\",\"Left\",\"39\",\"6\",\"13\",\"8\",\"C1\",\"C\",\"93\"
\"\",\"\",\"approach-retreat\",\"97\",\"686841\",\"0.0-97.0\",\"\",\"\",\"3-5\",\"4073\",\"38\",\"0\",\"Training\",\"Stims/Figures/7-J-10-4.bmp\",\"sa:ha:ha\",\"Down\",\"40\",\"6\",\"14\",\"8\",\"C2\",\"C\",\"94\"
\"\",\"\",\"approach-retreat\",\"98\",\"693962\",\"0.0-98.0\",\"\",\"\",\"3-5\",\"5612\",\"37\",\"0\",\"Training\",\"Stims/Figures/102-C-20-4.bmp\",\"sahaza\",\"Left\",\"39\",\"6\",\"15\",\"8\",\"C2\",\"C\",\"95\"
\"\",\"\",\"approach-retreat\",\"99\",\"700621\",\"0.0-99.0\",\"\",\"\",\"3-5\",\"5152\",\"38\",\"1\",\"Training\",\"Stims/Figures/102-J-10-4.bmp\",\"zasa:za\",\"Up\",\"38\",\"6\",\"16\",\"8\",\"C2\",\"C\",\"96\"
\"\",\"\",\"approach-retreat\",\"100\",\"706889\",\"0.0-100.0\",\"\",\"\",\"3-5\",\"4759\",\"38\",\"0\",\"Training\",\"Stims/Figures/102-J-10-4.bmp\",\"zasa:za\",\"Down\",\"40\",\"7\",\"1\",\"8\",\"C2\",\"C\",\"97\"
\"\",\"\",\"approach-retreat\",\"101\",\"713481\",\"0.0-101.0\",\"\",\"\",\"3-5\",\"5084\",\"40\",\"1\",\"Training\",\"Stims/Figures/94-C-20-2.bmp\",\"fa:shasha\",\"Up\",\"40\",\"7\",\"2\",\"8\",\"C1\",\"C\",\"98\"
\"\",\"\",\"approach-retreat\",\"102\",\"719356\",\"0.0-102.0\",\"\",\"\",\"3-5\",\"4362\",\"37\",\"0\",\"Training\",\"Stims/Figures/27-J-0-1.bmp\",\"va:fa:va\",\"Right\",\"39\",\"7\",\"3\",\"8\",\"C1\",\"C\",\"99\"
\"\",\"\",\"approach-retreat\",\"103\",\"725588\",\"0.0-103.0\",\"\",\"\",\"3-5\",\"4722\",\"39\",\"1\",\"Training\",\"Stims/Figures/44-J-10-3.bmp\",\"za:saza\",\"Right\",\"39\",\"7\",\"4\",\"8\",\"C2\",\"C\",\"100\"
\"\",\"\",\"approach-retreat\",\"104\",\"731348\",\"0.0-104.0\",\"\",\"\",\"3-5\",\"4251\",\"38\",\"1\",\"Training\",\"Stims/Figures/27-C-30-1.bmp\",\"vasha:va\",\"Down\",\"38\",\"7\",\"5\",\"8\",\"C1\",\"C\",\"101\"
\"\",\"\",\"approach-retreat\",\"105\",\"737547\",\"0.0-105.0\",\"\",\"\",\"3-5\",\"4690\",\"38\",\"0\",\"Training\",\"Stims/Figures/94-J-0-2.bmp\",\"fasha:va\",\"Down\",\"40\",\"7\",\"6\",\"8\",\"C1\",\"C\",\"102\"
\"\",\"\",\"approach-retreat\",\"106\",\"743397\",\"0.0-106.0\",\"\",\"\",\"3-5\",\"4342\",\"39\",\"0\",\"Training\",\"Stims/Figures/86-J-0-1.bmp\",\"vashasha\",\"Left\",\"37\",\"7\",\"7\",\"8\",\"C1\",\"C\",\"103\"
\"\",\"\",\"approach-retreat\",\"107\",\"749100\",\"0.0-107.0\",\"\",\"\",\"3-5\",\"4195\",\"39\",\"1\",\"Training\",\"Stims/Figures/44-C-30-3.bmp\",\"za:ha:ha\",\"Left\",\"39\",\"7\",\"8\",\"8\",\"C2\",\"C\",\"104\"
\"\",\"\",\"approach-retreat\",\"108\",\"755099\",\"0.0-108.0\",\"\",\"\",\"3-5\",\"4489\",\"39\",\"0\",\"Training\",\"Stims/Figures/111-C-30-3.bmp\",\"za:haza\",\"Right\",\"37\",\"7\",\"9\",\"8\",\"C2\",\"C\",\"105\"
\"\",\"\",\"approach-retreat\",\"109\",\"760755\",\"0.0-109.0\",\"\",\"\",\"3-5\",\"4148\",\"40\",\"0\",\"Training\",\"Stims/Figures/84-C-20-2.bmp\",\"fa:fava\",\"Down\",\"38\",\"7\",\"10\",\"8\",\"C1\",\"C\",\"106\"
\"\",\"\",\"approach-retreat\",\"110\",\"766359\",\"0.0-110.0\",\"\",\"\",\"3-5\",\"4096\",\"39\",\"1\",\"Training\",\"Stims/Figures/7-C-20-4.bmp\",\"zaha:za\",\"Left\",\"39\",\"7\",\"11\",\"8\",\"C2\",\"C\",\"107\"
\"\",\"\",\"approach-retreat\",\"111\",\"771938\",\"0.0-111.0\",\"\",\"\",\"3-5\",\"4072\",\"40\",\"1\",\"Training\",\"Stims/Figures/102-C-20-4.bmp\",\"sahaza\",\"Up\",\"40\",\"7\",\"12\",\"8\",\"C2\",\"C\",\"108\"
\"\",\"\",\"approach-retreat\",\"112\",\"777496\",\"0.0-112.0\",\"\",\"\",\"3-5\",\"4050\",\"40\",\"1\",\"Training\",\"Stims/Figures/86-C-30-1.bmp\",\"vafasha\",\"Up\",\"40\",\"7\",\"13\",\"8\",\"C1\",\"C\",\"109\"
\"\",\"\",\"approach-retreat\",\"113\",\"783595\",\"0.0-113.0\",\"\",\"\",\"3-5\",\"4595\",\"37\",\"1\",\"Training\",\"Stims/Figures/111-J-10-3.bmp\",\"saha:ha\",\"Left\",\"37\",\"7\",\"14\",\"8\",\"C2\",\"C\",\"110\"
\"\",\"\",\"approach-retreat\",\"114\",\"789433\",\"0.0-114.0\",\"\",\"\",\"3-5\",\"4330\",\"38\",\"1\",\"Training\",\"Stims/Figures/84-J-0-2.bmp\",\"va:fa:sha\",\"Up\",\"38\",\"7\",\"15\",\"8\",\"C1\",\"C\",\"111\"
\"\",\"\",\"approach-retreat\",\"115\",\"795576\",\"0.0-115.0\",\"\",\"\",\"3-5\",\"4635\",\"39\",\"1\",\"Training\",\"Stims/Figures/7-J-10-4.bmp\",\"sa:ha:ha\",\"Right\",\"39\",\"7\",\"16\",\"8\",\"C2\",\"C\",\"112\"
\"\",\"\",\"approach-retreat\",\"116\",\"801574\",\"0.0-116.0\",\"\",\"\",\"3-5\",\"4490\",\"37\",\"1\",\"Training\",\"Stims/Figures/7-C-20-4.bmp\",\"zaha:za\",\"Right\",\"37\",\"8\",\"1\",\"8\",\"C2\",\"C\",\"113\"
\"\",\"\",\"approach-retreat\",\"117\",\"807345\",\"0.0-117.0\",\"\",\"\",\"3-5\",\"4263\",\"39\",\"0\",\"Training\",\"Stims/Figures/84-C-20-2.bmp\",\"fa:fava\",\"Right\",\"37\",\"8\",\"2\",\"8\",\"C1\",\"C\",\"114\"
\"\",\"\",\"approach-retreat\",\"118\",\"813308\",\"0.0-118.0\",\"\",\"\",\"3-5\",\"4454\",\"38\",\"1\",\"Training\",\"Stims/Figures/27-J-0-1.bmp\",\"va:fa:va\",\"Up\",\"38\",\"8\",\"3\",\"8\",\"C1\",\"C\",\"115\"
\"\",\"\",\"approach-retreat\",\"119\",\"822127\",\"0.0-119.0\",\"\",\"\",\"3-5\",\"7311\",\"39\",\"0\",\"Training\",\"Stims/Figures/44-J-10-3.bmp\",\"za:saza\",\"Left\",\"37\",\"8\",\"4\",\"8\",\"C2\",\"C\",\"116\"
\"\",\"\",\"approach-retreat\",\"120\",\"827856\",\"0.0-120.0\",\"\",\"\",\"3-5\",\"4219\",\"40\",\"1\",\"Training\",\"Stims/Figures/111-C-30-3.bmp\",\"za:haza\",\"Up\",\"40\",\"8\",\"5\",\"8\",\"C2\",\"C\",\"117\"
\"\",\"\",\"approach-retreat\",\"121\",\"833570\",\"0.0-121.0\",\"\",\"\",\"3-5\",\"4206\",\"38\",\"1\",\"Training\",\"Stims/Figures/44-C-30-3.bmp\",\"za:ha:ha\",\"Down\",\"38\",\"8\",\"6\",\"8\",\"C2\",\"C\",\"118\"
\"\",\"\",\"approach-retreat\",\"122\",\"839735\",\"0.0-122.0\",\"\",\"\",\"3-5\",\"4658\",\"39\",\"0\",\"Training\",\"Stims/Figures/27-C-30-1.bmp\",\"vasha:va\",\"Right\",\"37\",\"8\",\"7\",\"8\",\"C1\",\"C\",\"119\"
\"\",\"\",\"approach-retreat\",\"123\",\"845676\",\"0.0-123.0\",\"\",\"\",\"3-5\",\"4432\",\"39\",\"1\",\"Training\",\"Stims/Figures/84-J-0-2.bmp\",\"va:fa:sha\",\"Right\",\"39\",\"8\",\"8\",\"8\",\"C1\",\"C\",\"120\"
\"\",\"\",\"approach-retreat\",\"124\",\"852236\",\"0.0-124.0\",\"\",\"\",\"3-5\",\"5050\",\"40\",\"0\",\"Training\",\"Stims/Figures/102-C-20-4.bmp\",\"sahaza\",\"Down\",\"38\",\"8\",\"9\",\"8\",\"C2\",\"C\",\"121\"
\"\",\"\",\"approach-retreat\",\"125\",\"858379\",\"0.0-125.0\",\"\",\"\",\"3-5\",\"4633\",\"38\",\"1\",\"Training\",\"Stims/Figures/7-J-10-4.bmp\",\"sa:ha:ha\",\"Up\",\"38\",\"8\",\"10\",\"8\",\"C2\",\"C\",\"122\"
\"\",\"\",\"approach-retreat\",\"126\",\"864216\",\"0.0-126.0\",\"\",\"\",\"3-5\",\"4330\",\"39\",\"1\",\"Training\",\"Stims/Figures/94-C-20-2.bmp\",\"fa:shasha\",\"Left\",\"39\",\"8\",\"11\",\"8\",\"C1\",\"C\",\"123\"
\"\",\"\",\"approach-retreat\",\"127\",\"870393\",\"0.0-127.0\",\"\",\"\",\"3-5\",\"4667\",\"37\",\"1\",\"Training\",\"Stims/Figures/111-J-10-3.bmp\",\"saha:ha\",\"Left\",\"37\",\"8\",\"12\",\"8\",\"C2\",\"C\",\"124\"
\"\",\"\",\"approach-retreat\",\"128\",\"876648\",\"0.0-128.0\",\"\",\"\",\"3-5\",\"4747\",\"38\",\"1\",\"Training\",\"Stims/Figures/102-J-10-4.bmp\",\"zasa:za\",\"Up\",\"38\",\"8\",\"13\",\"8\",\"C2\",\"C\",\"125\"
\"\",\"\",\"approach-retreat\",\"129\",\"882543\",\"0.0-129.0\",\"\",\"\",\"3-5\",\"4387\",\"39\",\"1\",\"Training\",\"Stims/Figures/86-C-30-1.bmp\",\"vafasha\",\"Left\",\"39\",\"8\",\"14\",\"8\",\"C1\",\"C\",\"126\"
\"\",\"\",\"approach-retreat\",\"130\",\"889024\",\"0.0-130.0\",\"\",\"\",\"3-5\",\"4969\",\"40\",\"1\",\"Training\",\"Stims/Figures/94-J-0-2.bmp\",\"fasha:va\",\"Down\",\"40\",\"8\",\"15\",\"8\",\"C1\",\"C\",\"127\"
\"\",\"\",\"approach-retreat\",\"131\",\"894707\",\"0.0-131.0\",\"\",\"\",\"3-5\",\"4172\",\"38\",\"0\",\"Training\",\"Stims/Figures/86-J-0-1.bmp\",\"vashasha\",\"Down\",\"40\",\"8\",\"16\",\"8\",\"C1\",\"C\",\"128\"
\"\",\"\",\"approach-retreat\",\"132\",\"900670\",\"0.0-132.0\",\"\",\"\",\"3-5\",\"4454\",\"39\",\"0\",\"Training\",\"Stims/Figures/7-C-20-4.bmp\",\"zaha:za\",\"Right\",\"37\",\"9\",\"1\",\"8\",\"C2\",\"C\",\"129\"
\"\",\"\",\"approach-retreat\",\"133\",\"906306\",\"0.0-133.0\",\"\",\"\",\"3-5\",\"4127\",\"40\",\"1\",\"Training\",\"Stims/Figures/111-C-30-3.bmp\",\"za:haza\",\"Up\",\"40\",\"9\",\"2\",\"8\",\"C2\",\"C\",\"130\"
\"\",\"\",\"approach-retreat\",\"134\",\"912323\",\"0.0-134.0\",\"\",\"\",\"3-5\",\"4509\",\"37\",\"1\",\"Training\",\"Stims/Figures/44-J-10-3.bmp\",\"za:saza\",\"Left\",\"37\",\"9\",\"3\",\"8\",\"C2\",\"C\",\"131\"
\"\",\"\",\"approach-retreat\",\"135\",\"918400\",\"0.0-135.0\",\"\",\"\",\"3-5\",\"4567\",\"37\",\"1\",\"Training\",\"Stims/Figures/84-C-20-2.bmp\",\"fa:fava\",\"Right\",\"37\",\"9\",\"4\",\"8\",\"C1\",\"C\",\"132\"
\"\",\"\",\"approach-retreat\",\"136\",\"924452\",\"0.0-136.0\",\"\",\"\",\"3-5\",\"4543\",\"38\",\"1\",\"Training\",\"Stims/Figures/7-J-10-4.bmp\",\"sa:ha:ha\",\"Up\",\"38\",\"9\",\"5\",\"8\",\"C2\",\"C\",\"133\"
\"\",\"\",\"approach-retreat\",\"137\",\"931181\",\"0.0-137.0\",\"\",\"\",\"3-5\",\"5219\",\"37\",\"0\",\"Training\",\"Stims/Figures/102-C-20-4.bmp\",\"sahaza\",\"Left\",\"39\",\"9\",\"6\",\"8\",\"C2\",\"C\",\"134\"
\"\",\"\",\"approach-retreat\",\"138\",\"937210\",\"0.0-138.0\",\"\",\"\",\"3-5\",\"4521\",\"37\",\"1\",\"Training\",\"Stims/Figures/86-J-0-1.bmp\",\"vashasha\",\"Left\",\"37\",\"9\",\"7\",\"8\",\"C1\",\"C\",\"135\"
\"\",\"\",\"approach-retreat\",\"139\",\"942892\",\"0.0-139.0\",\"\",\"\",\"3-5\",\"4174\",\"40\",\"1\",\"Training\",\"Stims/Figures/44-C-30-3.bmp\",\"za:ha:ha\",\"Up\",\"40\",\"9\",\"8\",\"8\",\"C2\",\"C\",\"136\"
\"\",\"\",\"approach-retreat\",\"140\",\"949171\",\"0.0-140.0\",\"\",\"\",\"3-5\",\"4770\",\"38\",\"0\",\"Training\",\"Stims/Figures/102-J-10-4.bmp\",\"zasa:za\",\"Down\",\"40\",\"9\",\"9\",\"8\",\"C2\",\"C\",\"137\"
\"\",\"\",\"approach-retreat\",\"141\",\"954616\",\"0.0-141.0\",\"\",\"\",\"3-5\",\"3937\",\"38\",\"1\",\"Training\",\"Stims/Figures/94-C-20-2.bmp\",\"fa:shasha\",\"Down\",\"38\",\"9\",\"10\",\"8\",\"C1\",\"C\",\"138\"
\"\",\"\",\"approach-retreat\",\"142\",\"960240\",\"0.0-142.0\",\"\",\"\",\"3-5\",\"4116\",\"40\",\"1\",\"Training\",\"Stims/Figures/27-C-30-1.bmp\",\"vasha:va\",\"Up\",\"40\",\"9\",\"11\",\"8\",\"C1\",\"C\",\"139\"
\"\",\"\",\"approach-retreat\",\"143\",\"966360\",\"0.0-143.0\",\"\",\"\",\"3-5\",\"4609\",\"40\",\"1\",\"Training\",\"Stims/Figures/94-J-0-2.bmp\",\"fasha:va\",\"Down\",\"40\",\"9\",\"12\",\"8\",\"C1\",\"C\",\"140\"
\"\",\"\",\"approach-retreat\",\"144\",\"972335\",\"0.0-144.0\",\"\",\"\",\"3-5\",\"4466\",\"37\",\"0\",\"Training\",\"Stims/Figures/86-C-30-1.bmp\",\"vafasha\",\"Left\",\"39\",\"9\",\"13\",\"8\",\"C1\",\"C\",\"141\"
\"\",\"\",\"approach-retreat\",\"145\",\"978208\",\"0.0-145.0\",\"\",\"\",\"3-5\",\"4365\",\"39\",\"1\",\"Training\",\"Stims/Figures/84-J-0-2.bmp\",\"va:fa:sha\",\"Right\",\"39\",\"9\",\"14\",\"8\",\"C1\",\"C\",\"142\"
\"\",\"\",\"approach-retreat\",\"146\",\"983766\",\"0.0-146.0\",\"\",\"\",\"3-5\",\"4049\",\"39\",\"1\",\"Training\",\"Stims/Figures/111-J-10-3.bmp\",\"saha:ha\",\"Right\",\"39\",\"9\",\"15\",\"8\",\"C2\",\"C\",\"143\"
\"\",\"\",\"approach-retreat\",\"147\",\"989603\",\"0.0-147.0\",\"\",\"\",\"3-5\",\"4330\",\"40\",\"1\",\"Training\",\"Stims/Figures/27-J-0-1.bmp\",\"va:fa:va\",\"Down\",\"40\",\"9\",\"16\",\"8\",\"C1\",\"C\",\"144\"
\"16107\",\"\",\"instructions\",\"148\",\"1005711\",\"0.0-148.0\",\"[{\"\"page_index\"\":0,\"\"viewing_time\"\":16106}]\",\"\",\"\",\"\",\"\",\"\",\"\",\"\",\"\",\"\",\"\",\"\",\"\",\"\",\"\",\"\",\"\"
\"\",\"\",\"approach-retreat\",\"149\",\"1012172\",\"0.0-149.0\",\"\",\"\",\"3-5\",\"4954\",\"38\",\"1\",\"Testing\",\"Stims/Figures/86-J-0-1.bmp\",\"vashasha\",\"Up\",\"38\",\"1\",\"1\",\"8\",\"C1\",\"C\",\"1\"
\"\",\"\",\"approach-retreat\",\"150\",\"1018620\",\"0.0-150.0\",\"\",\"\",\"3-5\",\"4940\",\"37\",\"1\",\"Testing\",\"Stims/Figures/94-J-0-2.bmp\",\"fasha:va\",\"Left\",\"37\",\"1\",\"2\",\"8\",\"C1\",\"C\",\"2\"
\"\",\"\",\"approach-retreat\",\"151\",\"1024277\",\"0.0-151.0\",\"\",\"\",\"3-5\",\"4150\",\"37\",\"1\",\"Testing\",\"Stims/Figures/27-C-30-1.bmp\",\"vasha:va\",\"Right\",\"37\",\"1\",\"3\",\"8\",\"C1\",\"C\",\"3\"
\"\",\"\",\"approach-retreat\",\"152\",\"1030601\",\"0.0-152.0\",\"\",\"\",\"3-5\",\"4817\",\"40\",\"1\",\"Testing\",\"Stims/Figures/44-J-10-3.bmp\",\"za:saza\",\"Down\",\"40\",\"1\",\"4\",\"8\",\"C2\",\"C\",\"4\"
\"\",\"\",\"approach-retreat\",\"153\",\"1036316\",\"0.0-153.0\",\"\",\"\",\"3-5\",\"4208\",\"38\",\"1\",\"Testing\",\"Stims/Figures/44-C-30-3.bmp\",\"za:ha:ha\",\"Down\",\"38\",\"1\",\"5\",\"8\",\"C2\",\"C\",\"5\"
\"\",\"\",\"approach-retreat\",\"154\",\"1042391\",\"0.0-154.0\",\"\",\"\",\"3-5\",\"4568\",\"40\",\"0\",\"Testing\",\"Stims/Figures/144-C-30-3.bmp\",\"sasa:za\",\"Down\",\"38\",\"1\",\"6\",\"8\",\"C2\",\"C\",\"6\"
\"\",\"\",\"approach-retreat\",\"155\",\"1049310\",\"0.0-155.0\",\"\",\"\",\"3-5\",\"5413\",\"38\",\"0\",\"Testing\",\"Stims/Figures/85-C-20-2.bmp\",\"va:shava\",\"Up\",\"40\",\"1\",\"7\",\"8\",\"C1\",\"C\",\"7\"
\"\",\"\",\"approach-retreat\",\"156\",\"1055679\",\"0.0-156.0\",\"\",\"\",\"3-5\",\"4862\",\"37\",\"1\",\"Testing\",\"Stims/Figures/111-J-10-3.bmp\",\"saha:ha\",\"Left\",\"37\",\"1\",\"8\",\"8\",\"C2\",\"C\",\"8\"
\"\",\"\",\"approach-retreat\",\"157\",\"1061315\",\"0.0-157.0\",\"\",\"\",\"3-5\",\"4129\",\"37\",\"1\",\"Testing\",\"Stims/Figures/86-C-30-1.bmp\",\"vafasha\",\"Right\",\"37\",\"1\",\"9\",\"8\",\"C1\",\"C\",\"9\"
\"\",\"\",\"approach-retreat\",\"158\",\"1066941\",\"0.0-158.0\",\"\",\"\",\"3-5\",\"4119\",\"40\",\"1\",\"Testing\",\"Stims/Figures/57-C-30-1.bmp\",\"vasha:sha\",\"Up\",\"40\",\"1\",\"10\",\"8\",\"C1\",\"C\",\"10\"
\"\",\"\",\"approach-retreat\",\"159\",\"1072914\",\"0.0-159.0\",\"\",\"\",\"3-5\",\"4467\",\"38\",\"1\",\"Testing\",\"Stims/Figures/85-J-0-2.bmp\",\"fafa:va\",\"Up\",\"38\",\"1\",\"11\",\"8\",\"C1\",\"C\",\"11\"
\"\",\"\",\"approach-retreat\",\"160\",\"1078551\",\"0.0-160.0\",\"\",\"\",\"3-5\",\"4130\",\"38\",\"1\",\"Testing\",\"Stims/Figures/94-C-20-2.bmp\",\"fa:shasha\",\"Down\",\"38\",\"1\",\"12\",\"8\",\"C1\",\"C\",\"12\"
\"\",\"\",\"approach-retreat\",\"161\",\"1085042\",\"0.0-161.0\",\"\",\"\",\"3-5\",\"4983\",\"38\",\"1\",\"Testing\",\"Stims/Figures/7-J-10-4.bmp\",\"sa:ha:ha\",\"Up\",\"38\",\"1\",\"13\",\"8\",\"C2\",\"C\",\"13\"
\"\",\"\",\"approach-retreat\",\"162\",\"1091152\",\"0.0-162.0\",\"\",\"\",\"3-5\",\"4602\",\"40\",\"1\",\"Testing\",\"Stims/Figures/84-J-0-2.bmp\",\"va:fa:sha\",\"Down\",\"40\",\"1\",\"14\",\"8\",\"C1\",\"C\",\"14\"
\"\",\"\",\"approach-retreat\",\"163\",\"1097148\",\"0.0-163.0\",\"\",\"\",\"3-5\",\"4489\",\"37\",\"0\",\"Testing\",\"Stims/Figures/102-C-20-4.bmp\",\"sahaza\",\"Left\",\"39\",\"1\",\"15\",\"8\",\"C2\",\"C\",\"15\"
\"\",\"\",\"approach-retreat\",\"164\",\"1102840\",\"0.0-164.0\",\"\",\"\",\"3-5\",\"4187\",\"37\",\"1\",\"Testing\",\"Stims/Figures/111-C-30-3.bmp\",\"za:haza\",\"Right\",\"37\",\"1\",\"16\",\"8\",\"C2\",\"C\",\"16\"
\"\",\"\",\"approach-retreat\",\"165\",\"1108545\",\"0.0-165.0\",\"\",\"\",\"3-5\",\"4195\",\"37\",\"0\",\"Testing\",\"Stims/Figures/7-C-20-4.bmp\",\"zaha:za\",\"Left\",\"39\",\"1\",\"17\",\"8\",\"C2\",\"C\",\"17\"
\"\",\"\",\"approach-retreat\",\"166\",\"1114520\",\"0.0-166.0\",\"\",\"\",\"3-5\",\"4467\",\"39\",\"0\",\"Testing\",\"Stims/Figures/19-C-20-4.bmp\",\"zasaza\",\"Right\",\"37\",\"1\",\"18\",\"8\",\"C2\",\"C\",\"18\"
\"\",\"\",\"approach-retreat\",\"167\",\"1120652\",\"0.0-167.0\",\"\",\"\",\"3-5\",\"4625\",\"38\",\"1\",\"Testing\",\"Stims/Figures/57-J-0-1.bmp\",\"fa:fasha\",\"Up\",\"38\",\"1\",\"19\",\"8\",\"C1\",\"C\",\"19\"
\"\",\"\",\"approach-retreat\",\"168\",\"1126670\",\"0.0-168.0\",\"\",\"\",\"3-5\",\"4511\",\"37\",\"1\",\"Testing\",\"Stims/Figures/144-J-10-3.bmp\",\"za:sa:za\",\"Left\",\"37\",\"1\",\"20\",\"8\",\"C2\",\"C\",\"20\"
\"\",\"\",\"approach-retreat\",\"169\",\"1132946\",\"0.0-169.0\",\"\",\"\",\"3-5\",\"4770\",\"39\",\"1\",\"Testing\",\"Stims/Figures/19-J-10-4.bmp\",\"zasa:ha\",\"Right\",\"39\",\"1\",\"21\",\"8\",\"C2\",\"C\",\"21\"
\"\",\"\",\"approach-retreat\",\"170\",\"1139046\",\"0.0-170.0\",\"\",\"\",\"3-5\",\"4592\",\"39\",\"1\",\"Testing\",\"Stims/Figures/102-J-10-4.bmp\",\"zasa:za\",\"Right\",\"39\",\"1\",\"22\",\"8\",\"C2\",\"C\",\"22\"
\"\",\"\",\"approach-retreat\",\"171\",\"1145357\",\"0.0-171.0\",\"\",\"\",\"3-5\",\"4803\",\"40\",\"1\",\"Testing\",\"Stims/Figures/27-J-0-1.bmp\",\"va:fa:va\",\"Down\",\"40\",\"1\",\"23\",\"8\",\"C1\",\"C\",\"23\"
\"\",\"\",\"approach-retreat\",\"172\",\"1153143\",\"0.0-172.0\",\"\",\"\",\"3-5\",\"6278\",\"39\",\"1\",\"Testing\",\"Stims/Figures/84-C-20-2.bmp\",\"fa:fava\",\"Left\",\"39\",\"1\",\"24\",\"8\",\"C1\",\"C\",\"24\"
\"\",\"\",\"approach-retreat\",\"173\",\"1159183\",\"0.0-173.0\",\"\",\"\",\"3-5\",\"4534\",\"38\",\"1\",\"Testing\",\"Stims/Figures/94-J-0-2.bmp\",\"fasha:va\",\"Up\",\"38\",\"2\",\"1\",\"8\",\"C1\",\"C\",\"25\"
\"\",\"\",\"approach-retreat\",\"174\",\"1165316\",\"0.0-174.0\",\"\",\"\",\"3-5\",\"4626\",\"40\",\"0\",\"Testing\",\"Stims/Figures/102-C-20-4.bmp\",\"sahaza\",\"Down\",\"38\",\"2\",\"2\",\"8\",\"C2\",\"C\",\"26\"
\"\",\"\",\"approach-retreat\",\"175\",\"1171481\",\"0.0-175.0\",\"\",\"\",\"3-5\",\"4658\",\"39\",\"1\",\"Testing\",\"Stims/Figures/86-J-0-1.bmp\",\"vashasha\",\"Right\",\"39\",\"2\",\"3\",\"8\",\"C1\",\"C\",\"27\"
\"\",\"\",\"approach-retreat\",\"176\",\"1178311\",\"0.0-176.0\",\"\",\"\",\"3-5\",\"5323\",\"37\",\"0\",\"Testing\",\"Stims/Figures/85-C-20-2.bmp\",\"va:shava\",\"Left\",\"39\",\"2\",\"4\",\"8\",\"C1\",\"C\",\"28\"
\"\",\"\",\"approach-retreat\",\"177\",\"1184026\",\"0.0-177.0\",\"\",\"\",\"3-5\",\"4208\",\"39\",\"1\",\"Testing\",\"Stims/Figures/144-C-30-3.bmp\",\"sasa:za\",\"Left\",\"39\",\"2\",\"5\",\"8\",\"C2\",\"C\",\"29\"
\"\",\"\",\"approach-retreat\",\"178\",\"1190494\",\"0.0-178.0\",\"\",\"\",\"3-5\",\"4963\",\"39\",\"1\",\"Testing\",\"Stims/Figures/111-J-10-3.bmp\",\"saha:ha\",\"Right\",\"39\",\"2\",\"6\",\"8\",\"C2\",\"C\",\"30\"
\"\",\"\",\"approach-retreat\",\"179\",\"1196063\",\"0.0-179.0\",\"\",\"\",\"3-5\",\"4061\",\"40\",\"1\",\"Testing\",\"Stims/Figures/86-C-30-1.bmp\",\"vafasha\",\"Up\",\"40\",\"2\",\"7\",\"8\",\"C1\",\"C\",\"31\"
\"\",\"\",\"approach-retreat\",\"180\",\"1201812\",\"0.0-180.0\",\"\",\"\",\"3-5\",\"4243\",\"38\",\"1\",\"Testing\",\"Stims/Figures/27-C-30-1.bmp\",\"vasha:va\",\"Down\",\"38\",\"2\",\"8\",\"8\",\"C1\",\"C\",\"32\"
\"\",\"\",\"approach-retreat\",\"181\",\"1208350\",\"0.0-181.0\",\"\",\"\",\"3-5\",\"5030\",\"38\",\"0\",\"Testing\",\"Stims/Figures/111-C-30-3.bmp\",\"za:haza\",\"Up\",\"40\",\"2\",\"9\",\"8\",\"C2\",\"C\",\"33\"
\"\",\"\",\"approach-retreat\",\"182\",\"1214109\",\"0.0-182.0\",\"\",\"\",\"3-5\",\"4252\",\"39\",\"1\",\"Testing\",\"Stims/Figures/7-J-10-4.bmp\",\"sa:ha:ha\",\"Right\",\"39\",\"2\",\"10\",\"8\",\"C2\",\"C\",\"34\"
\"\",\"\",\"approach-retreat\",\"183\",\"1219846\",\"0.0-183.0\",\"\",\"\",\"3-5\",\"4231\",\"40\",\"1\",\"Testing\",\"Stims/Figures/57-J-0-1.bmp\",\"fa:fasha\",\"Down\",\"40\",\"2\",\"11\",\"8\",\"C1\",\"C\",\"35\"
\"\",\"\",\"approach-retreat\",\"184\",\"1225574\",\"0.0-184.0\",\"\",\"\",\"3-5\",\"4221\",\"37\",\"0\",\"Testing\",\"Stims/Figures/84-C-20-2.bmp\",\"fa:fava\",\"Left\",\"39\",\"2\",\"12\",\"8\",\"C1\",\"C\",\"36\"
\"\",\"\",\"approach-retreat\",\"185\",\"1231267\",\"0.0-185.0\",\"\",\"\",\"3-5\",\"4185\",\"37\",\"1\",\"Testing\",\"Stims/Figures/44-J-10-3.bmp\",\"za:saza\",\"Left\",\"37\",\"2\",\"13\",\"8\",\"C2\",\"C\",\"37\"
\"\",\"\",\"approach-retreat\",\"186\",\"1237240\",\"0.0-186.0\",\"\",\"\",\"3-5\",\"4466\",\"38\",\"1\",\"Testing\",\"Stims/Figures/102-J-10-4.bmp\",\"zasa:za\",\"Up\",\"38\",\"2\",\"14\",\"8\",\"C2\",\"C\",\"38\"
\"\",\"\",\"approach-retreat\",\"187\",\"1243608\",\"0.0-187.0\",\"\",\"\",\"3-5\",\"4864\",\"38\",\"1\",\"Testing\",\"Stims/Figures/44-C-30-3.bmp\",\"za:ha:ha\",\"Down\",\"38\",\"2\",\"15\",\"8\",\"C2\",\"C\",\"39\"
\"\",\"\",\"approach-retreat\",\"188\",\"1249359\",\"0.0-188.0\",\"\",\"\",\"3-5\",\"4242\",\"37\",\"1\",\"Testing\",\"Stims/Figures/94-C-20-2.bmp\",\"fa:shasha\",\"Right\",\"37\",\"2\",\"16\",\"8\",\"C1\",\"C\",\"40\"
\"\",\"\",\"approach-retreat\",\"189\",\"1256782\",\"0.0-189.0\",\"\",\"\",\"3-5\",\"5916\",\"40\",\"1\",\"Testing\",\"Stims/Figures/85-J-0-2.bmp\",\"fafa:va\",\"Down\",\"40\",\"2\",\"17\",\"8\",\"C1\",\"C\",\"41\"
\"\",\"\",\"approach-retreat\",\"190\",\"1263477\",\"0.0-190.0\",\"\",\"\",\"3-5\",\"5189\",\"39\",\"0\",\"Testing\",\"Stims/Figures/7-C-20-4.bmp\",\"zaha:za\",\"Right\",\"37\",\"2\",\"18\",\"8\",\"C2\",\"C\",\"42\"
\"\",\"\",\"approach-retreat\",\"191\",\"1270082\",\"0.0-191.0\",\"\",\"\",\"3-5\",\"5096\",\"40\",\"1\",\"Testing\",\"Stims/Figures/19-J-10-4.bmp\",\"zasa:ha\",\"Down\",\"40\",\"2\",\"19\",\"8\",\"C2\",\"C\",\"43\"
\"\",\"\",\"approach-retreat\",\"192\",\"1275819\",\"0.0-192.0\",\"\",\"\",\"3-5\",\"4231\",\"40\",\"1\",\"Testing\",\"Stims/Figures/57-C-30-1.bmp\",\"vasha:sha\",\"Up\",\"40\",\"2\",\"20\",\"8\",\"C1\",\"C\",\"44\"
\"\",\"\",\"approach-retreat\",\"193\",\"1283232\",\"0.0-193.0\",\"\",\"\",\"3-5\",\"5907\",\"39\",\"1\",\"Testing\",\"Stims/Figures/84-J-0-2.bmp\",\"va:fa:sha\",\"Right\",\"39\",\"2\",\"21\",\"8\",\"C1\",\"C\",\"45\"
\"\",\"\",\"approach-retreat\",\"194\",\"1288849\",\"0.0-194.0\",\"\",\"\",\"3-5\",\"4108\",\"40\",\"1\",\"Testing\",\"Stims/Figures/19-C-20-4.bmp\",\"zasaza\",\"Up\",\"40\",\"2\",\"22\",\"8\",\"C2\",\"C\",\"46\"
\"\",\"\",\"approach-retreat\",\"195\",\"1295135\",\"0.0-195.0\",\"\",\"\",\"3-5\",\"4780\",\"37\",\"1\",\"Testing\",\"Stims/Figures/144-J-10-3.bmp\",\"za:sa:za\",\"Left\",\"37\",\"2\",\"23\",\"8\",\"C2\",\"C\",\"47\"
\"\",\"\",\"approach-retreat\",\"196\",\"1301210\",\"0.0-196.0\",\"\",\"\",\"3-5\",\"4568\",\"37\",\"1\",\"Testing\",\"Stims/Figures/27-J-0-1.bmp\",\"va:fa:va\",\"Left\",\"37\",\"2\",\"24\",\"8\",\"C1\",\"C\",\"48\"
\"\",\"\",\"approach-retreat\",\"197\",\"1307499\",\"0.0-197.0\",\"\",\"\",\"3-5\",\"4782\",\"40\",\"1\",\"Testing\",\"Stims/Figures/144-J-10-3.bmp\",\"za:sa:za\",\"Down\",\"40\",\"3\",\"1\",\"8\",\"C2\",\"C\",\"49\"
\"\",\"\",\"approach-retreat\",\"198\",\"1313328\",\"0.0-198.0\",\"\",\"\",\"3-5\",\"4321\",\"40\",\"1\",\"Testing\",\"Stims/Figures/19-J-10-4.bmp\",\"zasa:ha\",\"Down\",\"40\",\"3\",\"2\",\"8\",\"C2\",\"C\",\"50\"
\"\",\"\",\"approach-retreat\",\"199\",\"1319020\",\"0.0-199.0\",\"\",\"\",\"3-5\",\"4185\",\"37\",\"1\",\"Testing\",\"Stims/Figures/19-C-20-4.bmp\",\"zasaza\",\"Right\",\"37\",\"3\",\"3\",\"8\",\"C2\",\"C\",\"51\"
\"\",\"\",\"approach-retreat\",\"200\",\"1325232\",\"0.0-200.0\",\"\",\"\",\"3-5\",\"4703\",\"38\",\"1\",\"Testing\",\"Stims/Figures/102-J-10-4.bmp\",\"zasa:za\",\"Up\",\"38\",\"3\",\"4\",\"8\",\"C2\",\"C\",\"52\"
\"\",\"\",\"approach-retreat\",\"201\",\"1331891\",\"0.0-201.0\",\"\",\"\",\"3-5\",\"5152\",\"40\",\"1\",\"Testing\",\"Stims/Figures/86-J-0-1.bmp\",\"vashasha\",\"Down\",\"40\",\"3\",\"5\",\"8\",\"C1\",\"C\",\"53\"
\"\",\"\",\"approach-retreat\",\"202\",\"1337573\",\"0.0-202.0\",\"\",\"\",\"3-5\",\"4175\",\"40\",\"1\",\"Testing\",\"Stims/Figures/85-C-20-2.bmp\",\"va:shava\",\"Up\",\"40\",\"3\",\"6\",\"8\",\"C1\",\"C\",\"54\"
\"\",\"\",\"approach-retreat\",\"203\",\"1343143\",\"0.0-203.0\",\"\",\"\",\"3-5\",\"4063\",\"40\",\"1\",\"Testing\",\"Stims/Figures/7-C-20-4.bmp\",\"zaha:za\",\"Up\",\"40\",\"3\",\"7\",\"8\",\"C2\",\"C\",\"55\"
\"\",\"\",\"approach-retreat\",\"204\",\"1349408\",\"0.0-204.0\",\"\",\"\",\"3-5\",\"4760\",\"39\",\"1\",\"Testing\",\"Stims/Figures/84-J-0-2.bmp\",\"va:fa:sha\",\"Right\",\"39\",\"3\",\"8\",\"8\",\"C1\",\"C\",\"56\"
\"\",\"\",\"approach-retreat\",\"205\",\"1356215\",\"0.0-205.0\",\"\",\"\",\"3-5\",\"5300\",\"40\",\"1\",\"Testing\",\"Stims/Figures/27-J-0-1.bmp\",\"va:fa:va\",\"Down\",\"40\",\"3\",\"9\",\"8\",\"C1\",\"C\",\"57\"
\"\",\"\",\"approach-retreat\",\"206\",\"1365025\",\"0.0-206.0\",\"\",\"\",\"3-5\",\"7303\",\"38\",\"1\",\"Testing\",\"Stims/Figures/7-J-10-4.bmp\",\"sa:ha:ha\",\"Up\",\"38\",\"3\",\"10\",\"8\",\"C2\",\"C\",\"58\"
\"\",\"\",\"approach-retreat\",\"207\",\"1370954\",\"0.0-207.0\",\"\",\"\",\"3-5\",\"4421\",\"39\",\"1\",\"Testing\",\"Stims/Figures/94-J-0-2.bmp\",\"fasha:va\",\"Right\",\"39\",\"3\",\"11\",\"8\",\"C1\",\"C\",\"59\"
\"\",\"\",\"approach-retreat\",\"208\",\"1376747\",\"0.0-208.0\",\"\",\"\",\"3-5\",\"4287\",\"37\",\"1\",\"Testing\",\"Stims/Figures/27-C-30-1.bmp\",\"vasha:va\",\"Right\",\"37\",\"3\",\"12\",\"8\",\"C1\",\"C\",\"60\"
\"\",\"\",\"approach-retreat\",\"209\",\"1382621\",\"0.0-209.0\",\"\",\"\",\"3-5\",\"4365\",\"39\",\"1\",\"Testing\",\"Stims/Figures/57-C-30-1.bmp\",\"vasha:sha\",\"Left\",\"39\",\"3\",\"13\",\"8\",\"C1\",\"C\",\"61\"
\"\",\"\",\"approach-retreat\",\"210\",\"1388909\",\"0.0-210.0\",\"\",\"\",\"3-5\",\"4780\",\"40\",\"1\",\"Testing\",\"Stims/Figures/44-J-10-3.bmp\",\"za:saza\",\"Down\",\"40\",\"3\",\"14\",\"8\",\"C2\",\"C\",\"62\"
\"\",\"\",\"approach-retreat\",\"211\",\"1394714\",\"0.0-211.0\",\"\",\"\",\"3-5\",\"4299\",\"39\",\"1\",\"Testing\",\"Stims/Figures/111-C-30-3.bmp\",\"za:haza\",\"Left\",\"39\",\"3\",\"15\",\"8\",\"C2\",\"C\",\"63\"
\"\",\"\",\"approach-retreat\",\"212\",\"1400452\",\"0.0-212.0\",\"\",\"\",\"3-5\",\"4232\",\"39\",\"1\",\"Testing\",\"Stims/Figures/86-C-30-1.bmp\",\"vafasha\",\"Left\",\"39\",\"3\",\"16\",\"8\",\"C1\",\"C\",\"64\"
\"\",\"\",\"approach-retreat\",\"213\",\"1406617\",\"0.0-213.0\",\"\",\"\",\"3-5\",\"4659\",\"37\",\"0\",\"Testing\",\"Stims/Figures/102-C-20-4.bmp\",\"sahaza\",\"Left\",\"39\",\"3\",\"17\",\"8\",\"C2\",\"C\",\"65\"
\"\",\"\",\"approach-retreat\",\"214\",\"1412289\",\"0.0-214.0\",\"\",\"\",\"3-5\",\"4164\",\"37\",\"1\",\"Testing\",\"Stims/Figures/94-C-20-2.bmp\",\"fa:shasha\",\"Right\",\"37\",\"3\",\"18\",\"8\",\"C1\",\"C\",\"66\"
\"\",\"\",\"approach-retreat\",\"215\",\"1418554\",\"0.0-215.0\",\"\",\"\",\"3-5\",\"4760\",\"38\",\"1\",\"Testing\",\"Stims/Figures/111-J-10-3.bmp\",\"saha:ha\",\"Up\",\"38\",\"3\",\"19\",\"8\",\"C2\",\"C\",\"67\"
\"\",\"\",\"approach-retreat\",\"216\",\"1425293\",\"0.0-216.0\",\"\",\"\",\"3-5\",\"5232\",\"38\",\"1\",\"Testing\",\"Stims/Figures/57-J-0-1.bmp\",\"fa:fasha\",\"Up\",\"38\",\"3\",\"20\",\"8\",\"C1\",\"C\",\"68\"
\"\",\"\",\"approach-retreat\",\"217\",\"1431280\",\"0.0-217.0\",\"\",\"\",\"3-5\",\"4479\",\"37\",\"1\",\"Testing\",\"Stims/Figures/44-C-30-3.bmp\",\"za:ha:ha\",\"Right\",\"37\",\"3\",\"21\",\"8\",\"C2\",\"C\",\"69\"
\"\",\"\",\"approach-retreat\",\"218\",\"1437074\",\"0.0-218.0\",\"\",\"\",\"3-5\",\"4287\",\"38\",\"1\",\"Testing\",\"Stims/Figures/84-C-20-2.bmp\",\"fa:fava\",\"Down\",\"38\",\"3\",\"22\",\"8\",\"C1\",\"C\",\"70\"
\"\",\"\",\"approach-retreat\",\"219\",\"1443508\",\"0.0-219.0\",\"\",\"\",\"3-5\",\"4927\",\"37\",\"1\",\"Testing\",\"Stims/Figures/85-J-0-2.bmp\",\"fafa:va\",\"Left\",\"37\",\"3\",\"23\",\"8\",\"C1\",\"C\",\"71\"
\"\",\"\",\"approach-retreat\",\"220\",\"1449234\",\"0.0-220.0\",\"\",\"\",\"3-5\",\"4220\",\"39\",\"1\",\"Testing\",\"Stims/Figures/144-C-30-3.bmp\",\"sasa:za\",\"Left\",\"39\",\"3\",\"24\",\"8\",\"C2\",\"C\",\"72\"
\"\",\"\",\"approach-retreat\",\"221\",\"1454894\",\"0.0-221.0\",\"\",\"\",\"3-5\",\"4152\",\"39\",\"1\",\"Testing\",\"Stims/Figures/44-C-30-3.bmp\",\"za:ha:ha\",\"Left\",\"39\",\"4\",\"1\",\"8\",\"C2\",\"C\",\"73\"
\"\",\"\",\"approach-retreat\",\"222\",\"1461453\",\"0.0-222.0\",\"\",\"\",\"3-5\",\"5052\",\"39\",\"1\",\"Testing\",\"Stims/Figures/84-J-0-2.bmp\",\"va:fa:sha\",\"Right\",\"39\",\"4\",\"2\",\"8\",\"C1\",\"C\",\"74\"
\"\",\"\",\"approach-retreat\",\"223\",\"1467584\",\"0.0-223.0\",\"\",\"\",\"3-5\",\"4624\",\"37\",\"1\",\"Testing\",\"Stims/Figures/144-J-10-3.bmp\",\"za:sa:za\",\"Left\",\"37\",\"4\",\"3\",\"8\",\"C2\",\"C\",\"75\"
\"\",\"\",\"approach-retreat\",\"224\",\"1473344\",\"0.0-224.0\",\"\",\"\",\"3-5\",\"4253\",\"40\",\"1\",\"Testing\",\"Stims/Figures/57-J-0-1.bmp\",\"fa:fasha\",\"Down\",\"40\",\"4\",\"4\",\"8\",\"C1\",\"C\",\"76\"
\"\",\"\",\"approach-retreat\",\"225\",\"1479150\",\"0.0-225.0\",\"\",\"\",\"3-5\",\"4298\",\"39\",\"1\",\"Testing\",\"Stims/Figures/19-J-10-4.bmp\",\"zasa:ha\",\"Right\",\"39\",\"4\",\"5\",\"8\",\"C2\",\"C\",\"77\"
\"\",\"\",\"approach-retreat\",\"226\",\"1484832\",\"0.0-226.0\",\"\",\"\",\"3-5\",\"4174\",\"39\",\"1\",\"Testing\",\"Stims/Figures/144-C-30-3.bmp\",\"sasa:za\",\"Left\",\"39\",\"4\",\"6\",\"8\",\"C2\",\"C\",\"78\"
\"\",\"\",\"approach-retreat\",\"227\",\"1491211\",\"0.0-227.0\",\"\",\"\",\"3-5\",\"4871\",\"38\",\"1\",\"Testing\",\"Stims/Figures/7-J-10-4.bmp\",\"sa:ha:ha\",\"Up\",\"38\",\"4\",\"7\",\"8\",\"C2\",\"C\",\"79\"
\"\",\"\",\"approach-retreat\",\"228\",\"1497961\",\"0.0-228.0\",\"\",\"\",\"3-5\",\"5243\",\"40\",\"1\",\"Testing\",\"Stims/Figures/86-J-0-1.bmp\",\"vashasha\",\"Down\",\"40\",\"4\",\"8\",\"8\",\"C1\",\"C\",\"80\"
\"\",\"\",\"approach-retreat\",\"229\",\"1504859\",\"0.0-229.0\",\"\",\"\",\"3-5\",\"5389\",\"38\",\"1\",\"Testing\",\"Stims/Figures/44-J-10-3.bmp\",\"za:saza\",\"Up\",\"38\",\"4\",\"9\",\"8\",\"C2\",\"C\",\"81\"
\"\",\"\",\"approach-retreat\",\"230\",\"1510966\",\"0.0-230.0\",\"\",\"\",\"3-5\",\"4599\",\"40\",\"0\",\"Testing\",\"Stims/Figures/86-C-30-1.bmp\",\"vafasha\",\"Down\",\"38\",\"4\",\"10\",\"8\",\"C1\",\"C\",\"82\"
\"\",\"\",\"approach-retreat\",\"231\",\"1516804\",\"0.0-231.0\",\"\",\"\",\"3-5\",\"4332\",\"40\",\"1\",\"Testing\",\"Stims/Figures/7-C-20-4.bmp\",\"zaha:za\",\"Up\",\"40\",\"4\",\"11\",\"8\",\"C2\",\"C\",\"83\"
\"\",\"\",\"approach-retreat\",\"232\",\"1522555\",\"0.0-232.0\",\"\",\"\",\"3-5\",\"4243\",\"37\",\"1\",\"Testing\",\"Stims/Figures/57-C-30-1.bmp\",\"vasha:sha\",\"Right\",\"37\",\"4\",\"12\",\"8\",\"C1\",\"C\",\"84\"
\"\",\"\",\"approach-retreat\",\"233\",\"1528754\",\"0.0-233.0\",\"\",\"\",\"3-5\",\"4693\",\"39\",\"1\",\"Testing\",\"Stims/Figures/85-J-0-2.bmp\",\"fafa:va\",\"Right\",\"39\",\"4\",\"13\",\"8\",\"C1\",\"C\",\"85\"
\"\",\"\",\"approach-retreat\",\"234\",\"1535144\",\"0.0-234.0\",\"\",\"\",\"3-5\",\"4884\",\"37\",\"1\",\"Testing\",\"Stims/Figures/94-J-0-2.bmp\",\"fasha:va\",\"Left\",\"37\",\"4\",\"14\",\"8\",\"C1\",\"C\",\"86\"
\"\",\"\",\"approach-retreat\",\"235\",\"1542040\",\"0.0-235.0\",\"\",\"\",\"3-5\",\"5389\",\"38\",\"1\",\"Testing\",\"Stims/Figures/27-J-0-1.bmp\",\"va:fa:va\",\"Up\",\"38\",\"4\",\"15\",\"8\",\"C1\",\"C\",\"87\"
\"\",\"\",\"approach-retreat\",\"236\",\"1548600\",\"0.0-236.0\",\"\",\"\",\"3-5\",\"5052\",\"38\",\"1\",\"Testing\",\"Stims/Figures/85-C-20-2.bmp\",\"va:shava\",\"Down\",\"38\",\"4\",\"16\",\"8\",\"C1\",\"C\",\"88\"
\"\",\"\",\"approach-retreat\",\"237\",\"1554495\",\"0.0-237.0\",\"\",\"\",\"3-5\",\"4389\",\"38\",\"1\",\"Testing\",\"Stims/Figures/111-C-30-3.bmp\",\"za:haza\",\"Down\",\"38\",\"4\",\"17\",\"8\",\"C2\",\"C\",\"89\"
\"\",\"\",\"approach-retreat\",\"238\",\"1560211\",\"0.0-238.0\",\"\",\"\",\"3-5\",\"4210\",\"37\",\"1\",\"Testing\",\"Stims/Figures/19-C-20-4.bmp\",\"zasaza\",\"Right\",\"37\",\"4\",\"18\",\"8\",\"C2\",\"C\",\"90\"
\"\",\"\",\"approach-retreat\",\"239\",\"1565870\",\"0.0-239.0\",\"\",\"\",\"3-5\",\"4151\",\"39\",\"1\",\"Testing\",\"Stims/Figures/94-C-20-2.bmp\",\"fa:shasha\",\"Left\",\"39\",\"4\",\"19\",\"8\",\"C1\",\"C\",\"91\"
\"\",\"\",\"approach-retreat\",\"240\",\"1571484\",\"0.0-240.0\",\"\",\"\",\"3-5\",\"4106\",\"40\",\"1\",\"Testing\",\"Stims/Figures/27-C-30-1.bmp\",\"vasha:va\",\"Up\",\"40\",\"4\",\"20\",\"8\",\"C1\",\"C\",\"92\"
\"\",\"\",\"approach-retreat\",\"241\",\"1577480\",\"0.0-241.0\",\"\",\"\",\"3-5\",\"4489\",\"39\",\"1\",\"Testing\",\"Stims/Figures/102-J-10-4.bmp\",\"zasa:za\",\"Right\",\"39\",\"4\",\"21\",\"8\",\"C2\",\"C\",\"93\"
\"\",\"\",\"approach-retreat\",\"242\",\"1583578\",\"0.0-242.0\",\"\",\"\",\"3-5\",\"4591\",\"40\",\"1\",\"Testing\",\"Stims/Figures/84-C-20-2.bmp\",\"fa:fava\",\"Up\",\"40\",\"4\",\"22\",\"8\",\"C1\",\"C\",\"94\"
\"\",\"\",\"approach-retreat\",\"243\",\"1589261\",\"0.0-243.0\",\"\",\"\",\"3-5\",\"4174\",\"39\",\"1\",\"Testing\",\"Stims/Figures/102-C-20-4.bmp\",\"sahaza\",\"Left\",\"39\",\"4\",\"23\",\"8\",\"C2\",\"C\",\"95\"
\"\",\"\",\"approach-retreat\",\"244\",\"1595975\",\"0.0-244.0\",\"\",\"\",\"3-5\",\"5208\",\"40\",\"1\",\"Testing\",\"Stims/Figures/111-J-10-3.bmp\",\"saha:ha\",\"Down\",\"40\",\"4\",\"24\",\"8\",\"C2\",\"C\",\"96\"
\"12041\",\"\",\"survey-text\",\"245\",\"1608021\",\"0.0-245.0\",\"\",\"{\"\"Q0\"\":\"\"PS170095\"\"}\",\"\",\"\",\"\",\"\",\"\",\"\",\"\",\"\",\"\",\"\",\"\",\"\",\"\",\"\",\"\"
