\"rt\",\"key_press\",\"trial_type\",\"trial_index\",\"time_elapsed\",\"internal_node_id\",\"view_history\",\"responses\",\"Id\",\"Rt\",\"ResKeyCode\",\"ResCorr\",\"TrialType2\",\"Image\",\"Label\",\"Location\",\"CorrectResponse\",\"Block\",\"BlockTrial\",\"Condition\",\"LabelType\",\"Subcondition\",\"trialNum\"
\"47368\",\"32\",\"text\",\"0\",\"47371\",\"0.0-0.0-0.0\",\"\",\"\",\"\",\"\",\"\",\"\",\"\",\"\",\"\",\"\",\"\",\"\",\"\",\"\",\"\",\"\",\"\"
\"145866\",\"\",\"instructions\",\"1\",\"193240\",\"0.0-1.0\",\"[{\"\"page_index\"\":0,\"\"viewing_time\"\":145865}]\",\"\",\"\",\"\",\"\",\"\",\"\",\"\",\"\",\"\",\"\",\"\",\"\",\"\",\"\",\"\",\"\"
\"46476\",\"\",\"survey-multi-choice\",\"2\",\"239742\",\"0.0-2.0\",\"\",\"{\"\"Q0\"\":\"\"Da\"\",\"\"Q1\"\":\"\"Da\"\",\"\"Q2\"\":\"\"Da\"\",\"\"Q3\"\":\"\"Da\"\",\"\"Q4\"\":\"\"Da\"\",\"\"Q5\"\":\"\"Da\"\"}\",\"\",\"\",\"\",\"\",\"\",\"\",\"\",\"\",\"\",\"\",\"\",\"\",\"\",\"\",\"\"
\"\",\"\",\"bio\",\"3\",\"253400\",\"0.0-3.0\",\"\",\"{\"\"age\"\":\"\"37\"\",\"\"gender\"\":\"\"m\"\",\"\"specify\"\":\"\"\"\"}\",\"\",\"\",\"\",\"\",\"\",\"\",\"\",\"\",\"\",\"\",\"\",\"\",\"\",\"\",\"\"
\"\",\"\",\"approach-retreat\",\"4\",\"261820\",\"0.0-4.0\",\"\",\"\",\"2-2\",\"6906\",\"40\",\"1\",\"Training\",\"Stims/Figures/102-J-10-4.bmp\",\"fa:fa:sha\",\"Down\",\"40\",\"1\",\"1\",\"3A\",\"C1\",\"C\",\"1\"
\"\",\"\",\"approach-retreat\",\"5\",\"270659\",\"0.0-5.0\",\"\",\"\",\"2-2\",\"7329\",\"39\",\"1\",\"Training\",\"Stims/Figures/93-J-0-1.bmp\",\"fa:fa:sha\",\"Right\",\"39\",\"1\",\"2\",\"3A\",\"C1\",\"C\",\"2\"
\"\",\"\",\"approach-retreat\",\"6\",\"278474\",\"0.0-6.0\",\"\",\"\",\"2-2\",\"6305\",\"37\",\"1\",\"Training\",\"Stims/Figures/86-C-30-1.bmp\",\"zahaha\",\"Right\",\"37\",\"1\",\"3\",\"3A\",\"C2\",\"C\",\"3\"
\"\",\"\",\"approach-retreat\",\"7\",\"285586\",\"0.0-7.0\",\"\",\"\",\"2-2\",\"5603\",\"40\",\"1\",\"Training\",\"Stims/Figures/94-C-20-2.bmp\",\"zahaha\",\"Up\",\"40\",\"1\",\"4\",\"3A\",\"C2\",\"C\",\"4\"
\"\",\"\",\"approach-retreat\",\"8\",\"292994\",\"0.0-8.0\",\"\",\"\",\"2-2\",\"5902\",\"40\",\"1\",\"Training\",\"Stims/Figures/19-J-10-4.bmp\",\"fa:fa:sha\",\"Down\",\"40\",\"1\",\"5\",\"3A\",\"C1\",\"C\",\"5\"
\"\",\"\",\"approach-retreat\",\"9\",\"300511\",\"0.0-9.0\",\"\",\"\",\"2-2\",\"5994\",\"37\",\"0\",\"Training\",\"Stims/Figures/102-C-20-4.bmp\",\"zahaha\",\"Left\",\"39\",\"1\",\"6\",\"3A\",\"C2\",\"C\",\"6\"
\"\",\"\",\"approach-retreat\",\"10\",\"306659\",\"0.0-10.0\",\"\",\"\",\"2-2\",\"4643\",\"38\",\"1\",\"Training\",\"Stims/Figures/118-C-20-2.bmp\",\"zahaha\",\"Down\",\"38\",\"1\",\"7\",\"3A\",\"C2\",\"C\",\"7\"
\"\",\"\",\"approach-retreat\",\"11\",\"312947\",\"0.0-11.0\",\"\",\"\",\"2-2\",\"4781\",\"39\",\"1\",\"Training\",\"Stims/Figures/19-C-20-4.bmp\",\"zahaha\",\"Left\",\"39\",\"1\",\"8\",\"3A\",\"C2\",\"C\",\"8\"
\"\",\"\",\"approach-retreat\",\"12\",\"319074\",\"0.0-12.0\",\"\",\"\",\"2-2\",\"4619\",\"39\",\"1\",\"Training\",\"Stims/Figures/118-J-0-2.bmp\",\"fa:fa:sha\",\"Right\",\"39\",\"1\",\"9\",\"3A\",\"C1\",\"C\",\"9\"
\"\",\"\",\"approach-retreat\",\"13\",\"325308\",\"0.0-13.0\",\"\",\"\",\"2-2\",\"4725\",\"37\",\"1\",\"Training\",\"Stims/Figures/86-J-0-1.bmp\",\"fa:fa:sha\",\"Left\",\"37\",\"1\",\"10\",\"3A\",\"C1\",\"C\",\"10\"
\"\",\"\",\"approach-retreat\",\"14\",\"331435\",\"0.0-14.0\",\"\",\"\",\"2-2\",\"4622\",\"38\",\"1\",\"Training\",\"Stims/Figures/144-C-30-3.bmp\",\"zahaha\",\"Down\",\"38\",\"1\",\"11\",\"3A\",\"C2\",\"C\",\"11\"
\"\",\"\",\"approach-retreat\",\"15\",\"337858\",\"0.0-15.0\",\"\",\"\",\"2-2\",\"4913\",\"39\",\"1\",\"Training\",\"Stims/Figures/100-C-30-3.bmp\",\"zahaha\",\"Left\",\"39\",\"1\",\"12\",\"3A\",\"C2\",\"C\",\"12\"
\"\",\"\",\"approach-retreat\",\"16\",\"344059\",\"0.0-16.0\",\"\",\"\",\"2-2\",\"4697\",\"40\",\"1\",\"Training\",\"Stims/Figures/93-C-30-1.bmp\",\"zahaha\",\"Up\",\"40\",\"1\",\"13\",\"3A\",\"C2\",\"C\",\"13\"
\"\",\"\",\"approach-retreat\",\"17\",\"350211\",\"0.0-17.0\",\"\",\"\",\"2-2\",\"4643\",\"39\",\"1\",\"Training\",\"Stims/Figures/94-J-0-2.bmp\",\"fa:fa:sha\",\"Right\",\"39\",\"1\",\"14\",\"3A\",\"C1\",\"C\",\"14\"
\"\",\"\",\"approach-retreat\",\"18\",\"356113\",\"0.0-18.0\",\"\",\"\",\"2-2\",\"4387\",\"40\",\"0\",\"Training\",\"Stims/Figures/100-J-10-3.bmp\",\"fa:fa:sha\",\"Up\",\"38\",\"1\",\"15\",\"3A\",\"C1\",\"C\",\"15\"
\"\",\"\",\"approach-retreat\",\"19\",\"361587\",\"0.0-19.0\",\"\",\"\",\"2-2\",\"3969\",\"38\",\"1\",\"Training\",\"Stims/Figures/144-J-10-3.bmp\",\"fa:fa:sha\",\"Up\",\"38\",\"1\",\"16\",\"3A\",\"C1\",\"C\",\"16\"
\"\",\"\",\"approach-retreat\",\"20\",\"367266\",\"0.0-20.0\",\"\",\"\",\"2-2\",\"4176\",\"39\",\"1\",\"Training\",\"Stims/Figures/100-J-10-3.bmp\",\"fa:fa:sha\",\"Right\",\"39\",\"2\",\"1\",\"3A\",\"C1\",\"C\",\"17\"
\"\",\"\",\"approach-retreat\",\"21\",\"372658\",\"0.0-21.0\",\"\",\"\",\"2-2\",\"3888\",\"37\",\"1\",\"Training\",\"Stims/Figures/19-J-10-4.bmp\",\"fa:fa:sha\",\"Left\",\"37\",\"2\",\"2\",\"3A\",\"C1\",\"C\",\"18\"
\"\",\"\",\"approach-retreat\",\"22\",\"378666\",\"0.0-22.0\",\"\",\"\",\"2-2\",\"4505\",\"40\",\"1\",\"Training\",\"Stims/Figures/144-C-30-3.bmp\",\"zahaha\",\"Up\",\"40\",\"2\",\"3\",\"3A\",\"C2\",\"C\",\"19\"
\"\",\"\",\"approach-retreat\",\"23\",\"386314\",\"0.0-23.0\",\"\",\"\",\"2-2\",\"6145\",\"38\",\"1\",\"Training\",\"Stims/Figures/118-C-20-2.bmp\",\"zahaha\",\"Down\",\"38\",\"2\",\"4\",\"3A\",\"C2\",\"C\",\"20\"
\"\",\"\",\"approach-retreat\",\"24\",\"393003\",\"0.0-24.0\",\"\",\"\",\"2-2\",\"5181\",\"39\",\"1\",\"Training\",\"Stims/Figures/93-J-0-1.bmp\",\"fa:fa:sha\",\"Right\",\"39\",\"2\",\"5\",\"3A\",\"C1\",\"C\",\"21\"
\"\",\"\",\"approach-retreat\",\"25\",\"400147\",\"0.0-25.0\",\"\",\"\",\"2-2\",\"5640\",\"38\",\"1\",\"Training\",\"Stims/Figures/19-C-20-4.bmp\",\"zahaha\",\"Down\",\"38\",\"2\",\"6\",\"3A\",\"C2\",\"C\",\"22\"
\"\",\"\",\"approach-retreat\",\"26\",\"405803\",\"0.0-26.0\",\"\",\"\",\"2-2\",\"4152\",\"39\",\"1\",\"Training\",\"Stims/Figures/93-C-30-1.bmp\",\"zahaha\",\"Left\",\"39\",\"2\",\"7\",\"3A\",\"C2\",\"C\",\"23\"
\"\",\"\",\"approach-retreat\",\"27\",\"411497\",\"0.0-27.0\",\"\",\"\",\"2-2\",\"4193\",\"40\",\"1\",\"Training\",\"Stims/Figures/86-J-0-1.bmp\",\"fa:fa:sha\",\"Down\",\"40\",\"2\",\"8\",\"3A\",\"C1\",\"C\",\"24\"
\"\",\"\",\"approach-retreat\",\"28\",\"419683\",\"0.0-28.0\",\"\",\"\",\"2-2\",\"6682\",\"37\",\"1\",\"Training\",\"Stims/Figures/94-C-20-2.bmp\",\"zahaha\",\"Right\",\"37\",\"2\",\"9\",\"3A\",\"C2\",\"C\",\"25\"
\"\",\"\",\"approach-retreat\",\"29\",\"425907\",\"0.0-29.0\",\"\",\"\",\"2-2\",\"4720\",\"38\",\"1\",\"Training\",\"Stims/Figures/144-J-10-3.bmp\",\"fa:fa:sha\",\"Up\",\"38\",\"2\",\"10\",\"3A\",\"C1\",\"C\",\"26\"
\"\",\"\",\"approach-retreat\",\"30\",\"431379\",\"0.0-30.0\",\"\",\"\",\"2-2\",\"3970\",\"37\",\"1\",\"Training\",\"Stims/Figures/102-J-10-4.bmp\",\"fa:fa:sha\",\"Left\",\"37\",\"2\",\"11\",\"3A\",\"C1\",\"C\",\"27\"
\"\",\"\",\"approach-retreat\",\"31\",\"437123\",\"0.0-31.0\",\"\",\"\",\"2-2\",\"4240\",\"40\",\"1\",\"Training\",\"Stims/Figures/102-C-20-4.bmp\",\"zahaha\",\"Up\",\"40\",\"2\",\"12\",\"3A\",\"C2\",\"C\",\"28\"
\"\",\"\",\"approach-retreat\",\"32\",\"442686\",\"0.0-32.0\",\"\",\"\",\"2-2\",\"4047\",\"39\",\"0\",\"Training\",\"Stims/Figures/100-C-30-3.bmp\",\"zahaha\",\"Right\",\"37\",\"2\",\"13\",\"3A\",\"C2\",\"C\",\"29\"
\"\",\"\",\"approach-retreat\",\"33\",\"450954\",\"0.0-33.0\",\"\",\"\",\"2-2\",\"6757\",\"39\",\"0\",\"Training\",\"Stims/Figures/118-J-0-2.bmp\",\"fa:fa:sha\",\"Left\",\"37\",\"2\",\"14\",\"3A\",\"C1\",\"C\",\"30\"
\"\",\"\",\"approach-retreat\",\"34\",\"457114\",\"0.0-34.0\",\"\",\"\",\"2-2\",\"4657\",\"40\",\"1\",\"Training\",\"Stims/Figures/94-J-0-2.bmp\",\"fa:fa:sha\",\"Down\",\"40\",\"2\",\"15\",\"3A\",\"C1\",\"C\",\"31\"
\"\",\"\",\"approach-retreat\",\"35\",\"463474\",\"0.0-35.0\",\"\",\"\",\"2-2\",\"4857\",\"40\",\"1\",\"Training\",\"Stims/Figures/86-C-30-1.bmp\",\"zahaha\",\"Up\",\"40\",\"2\",\"16\",\"3A\",\"C2\",\"C\",\"32\"
\"\",\"\",\"approach-retreat\",\"36\",\"471234\",\"0.0-36.0\",\"\",\"\",\"2-2\",\"6259\",\"37\",\"1\",\"Training\",\"Stims/Figures/100-J-10-3.bmp\",\"fa:fa:sha\",\"Left\",\"37\",\"3\",\"1\",\"3A\",\"C1\",\"C\",\"33\"
\"\",\"\",\"approach-retreat\",\"37\",\"477818\",\"0.0-37.0\",\"\",\"\",\"2-2\",\"5074\",\"40\",\"1\",\"Training\",\"Stims/Figures/19-C-20-4.bmp\",\"zahaha\",\"Up\",\"40\",\"3\",\"2\",\"3A\",\"C2\",\"C\",\"34\"
\"\",\"\",\"approach-retreat\",\"38\",\"484211\",\"0.0-38.0\",\"\",\"\",\"2-2\",\"4887\",\"37\",\"1\",\"Training\",\"Stims/Figures/86-J-0-1.bmp\",\"fa:fa:sha\",\"Left\",\"37\",\"3\",\"3\",\"3A\",\"C1\",\"C\",\"35\"
\"\",\"\",\"approach-retreat\",\"39\",\"489859\",\"0.0-39.0\",\"\",\"\",\"2-2\",\"4145\",\"37\",\"1\",\"Training\",\"Stims/Figures/93-J-0-1.bmp\",\"fa:fa:sha\",\"Left\",\"37\",\"3\",\"4\",\"3A\",\"C1\",\"C\",\"36\"
\"\",\"\",\"approach-retreat\",\"40\",\"495306\",\"0.0-40.0\",\"\",\"\",\"2-2\",\"3944\",\"38\",\"1\",\"Training\",\"Stims/Figures/19-J-10-4.bmp\",\"fa:fa:sha\",\"Up\",\"38\",\"3\",\"5\",\"3A\",\"C1\",\"C\",\"37\"
\"\",\"\",\"approach-retreat\",\"41\",\"500803\",\"0.0-41.0\",\"\",\"\",\"2-2\",\"3993\",\"38\",\"1\",\"Training\",\"Stims/Figures/144-J-10-3.bmp\",\"fa:fa:sha\",\"Up\",\"38\",\"3\",\"6\",\"3A\",\"C1\",\"C\",\"38\"
\"\",\"\",\"approach-retreat\",\"42\",\"506274\",\"0.0-42.0\",\"\",\"\",\"2-2\",\"3969\",\"40\",\"1\",\"Training\",\"Stims/Figures/118-C-20-2.bmp\",\"zahaha\",\"Up\",\"40\",\"3\",\"7\",\"3A\",\"C2\",\"C\",\"39\"
\"\",\"\",\"approach-retreat\",\"43\",\"511786\",\"0.0-43.0\",\"\",\"\",\"2-2\",\"4009\",\"38\",\"1\",\"Training\",\"Stims/Figures/102-C-20-4.bmp\",\"zahaha\",\"Down\",\"38\",\"3\",\"8\",\"3A\",\"C2\",\"C\",\"40\"
\"\",\"\",\"approach-retreat\",\"44\",\"517210\",\"0.0-44.0\",\"\",\"\",\"2-2\",\"3922\",\"40\",\"1\",\"Training\",\"Stims/Figures/94-J-0-2.bmp\",\"fa:fa:sha\",\"Down\",\"40\",\"3\",\"9\",\"3A\",\"C1\",\"C\",\"41\"
\"\",\"\",\"approach-retreat\",\"45\",\"522770\",\"0.0-45.0\",\"\",\"\",\"2-2\",\"4058\",\"39\",\"1\",\"Training\",\"Stims/Figures/93-C-30-1.bmp\",\"zahaha\",\"Left\",\"39\",\"3\",\"10\",\"3A\",\"C2\",\"C\",\"42\"
\"\",\"\",\"approach-retreat\",\"46\",\"528323\",\"0.0-46.0\",\"\",\"\",\"2-2\",\"4049\",\"37\",\"1\",\"Training\",\"Stims/Figures/86-C-30-1.bmp\",\"zahaha\",\"Right\",\"37\",\"3\",\"11\",\"3A\",\"C2\",\"C\",\"43\"
\"\",\"\",\"approach-retreat\",\"47\",\"533866\",\"0.0-47.0\",\"\",\"\",\"2-2\",\"4040\",\"39\",\"1\",\"Training\",\"Stims/Figures/102-J-10-4.bmp\",\"fa:fa:sha\",\"Right\",\"39\",\"3\",\"12\",\"3A\",\"C1\",\"C\",\"44\"
\"\",\"\",\"approach-retreat\",\"48\",\"539394\",\"0.0-48.0\",\"\",\"\",\"2-2\",\"4025\",\"37\",\"1\",\"Training\",\"Stims/Figures/144-C-30-3.bmp\",\"zahaha\",\"Right\",\"37\",\"3\",\"13\",\"3A\",\"C2\",\"C\",\"45\"
\"\",\"\",\"approach-retreat\",\"49\",\"544978\",\"0.0-49.0\",\"\",\"\",\"2-2\",\"4081\",\"38\",\"1\",\"Training\",\"Stims/Figures/94-C-20-2.bmp\",\"zahaha\",\"Down\",\"38\",\"3\",\"14\",\"3A\",\"C2\",\"C\",\"46\"
\"\",\"\",\"approach-retreat\",\"50\",\"550594\",\"0.0-50.0\",\"\",\"\",\"2-2\",\"4112\",\"39\",\"1\",\"Training\",\"Stims/Figures/118-J-0-2.bmp\",\"fa:fa:sha\",\"Right\",\"39\",\"3\",\"15\",\"3A\",\"C1\",\"C\",\"47\"
\"\",\"\",\"approach-retreat\",\"51\",\"556619\",\"0.0-51.0\",\"\",\"\",\"2-2\",\"4521\",\"38\",\"1\",\"Training\",\"Stims/Figures/100-C-30-3.bmp\",\"zahaha\",\"Down\",\"38\",\"3\",\"16\",\"3A\",\"C2\",\"C\",\"48\"
\"\",\"\",\"approach-retreat\",\"52\",\"562035\",\"0.0-52.0\",\"\",\"\",\"2-2\",\"3913\",\"37\",\"1\",\"Training\",\"Stims/Figures/118-C-20-2.bmp\",\"zahaha\",\"Right\",\"37\",\"4\",\"1\",\"3A\",\"C2\",\"C\",\"49\"
\"\",\"\",\"approach-retreat\",\"53\",\"567522\",\"0.0-53.0\",\"\",\"\",\"2-2\",\"3986\",\"40\",\"1\",\"Training\",\"Stims/Figures/102-J-10-4.bmp\",\"fa:fa:sha\",\"Down\",\"40\",\"4\",\"2\",\"3A\",\"C1\",\"C\",\"50\"
\"\",\"\",\"approach-retreat\",\"54\",\"572962\",\"0.0-54.0\",\"\",\"\",\"2-2\",\"3938\",\"37\",\"1\",\"Training\",\"Stims/Figures/19-C-20-4.bmp\",\"zahaha\",\"Right\",\"37\",\"4\",\"3\",\"3A\",\"C2\",\"C\",\"51\"
\"\",\"\",\"approach-retreat\",\"55\",\"578442\",\"0.0-55.0\",\"\",\"\",\"2-2\",\"3977\",\"40\",\"1\",\"Training\",\"Stims/Figures/144-J-10-3.bmp\",\"fa:fa:sha\",\"Down\",\"40\",\"4\",\"4\",\"3A\",\"C1\",\"C\",\"52\"
\"\",\"\",\"approach-retreat\",\"56\",\"583818\",\"0.0-56.0\",\"\",\"\",\"2-2\",\"3871\",\"38\",\"1\",\"Training\",\"Stims/Figures/86-J-0-1.bmp\",\"fa:fa:sha\",\"Up\",\"38\",\"4\",\"5\",\"3A\",\"C1\",\"C\",\"53\"
\"\",\"\",\"approach-retreat\",\"57\",\"589330\",\"0.0-57.0\",\"\",\"\",\"2-2\",\"4009\",\"38\",\"1\",\"Training\",\"Stims/Figures/86-C-30-1.bmp\",\"zahaha\",\"Down\",\"38\",\"4\",\"6\",\"3A\",\"C2\",\"C\",\"54\"
\"\",\"\",\"approach-retreat\",\"58\",\"596347\",\"0.0-58.0\",\"\",\"\",\"2-2\",\"5513\",\"38\",\"1\",\"Training\",\"Stims/Figures/19-J-10-4.bmp\",\"fa:fa:sha\",\"Up\",\"38\",\"4\",\"7\",\"3A\",\"C1\",\"C\",\"55\"
\"\",\"\",\"approach-retreat\",\"59\",\"601867\",\"0.0-59.0\",\"\",\"\",\"2-2\",\"4016\",\"37\",\"1\",\"Training\",\"Stims/Figures/93-J-0-1.bmp\",\"fa:fa:sha\",\"Left\",\"37\",\"4\",\"8\",\"3A\",\"C1\",\"C\",\"56\"
\"\",\"\",\"approach-retreat\",\"60\",\"607323\",\"0.0-60.0\",\"\",\"\",\"2-2\",\"3952\",\"37\",\"1\",\"Training\",\"Stims/Figures/118-J-0-2.bmp\",\"fa:fa:sha\",\"Left\",\"37\",\"4\",\"9\",\"3A\",\"C1\",\"C\",\"57\"
\"\",\"\",\"approach-retreat\",\"61\",\"612811\",\"0.0-61.0\",\"\",\"\",\"2-2\",\"3985\",\"40\",\"1\",\"Training\",\"Stims/Figures/100-C-30-3.bmp\",\"zahaha\",\"Up\",\"40\",\"4\",\"10\",\"3A\",\"C2\",\"C\",\"58\"
\"\",\"\",\"approach-retreat\",\"62\",\"618475\",\"0.0-62.0\",\"\",\"\",\"2-2\",\"4162\",\"40\",\"1\",\"Training\",\"Stims/Figures/94-C-20-2.bmp\",\"zahaha\",\"Up\",\"40\",\"4\",\"11\",\"3A\",\"C2\",\"C\",\"59\"
\"\",\"\",\"approach-retreat\",\"63\",\"624003\",\"0.0-63.0\",\"\",\"\",\"2-2\",\"4024\",\"39\",\"1\",\"Training\",\"Stims/Figures/94-J-0-2.bmp\",\"fa:fa:sha\",\"Right\",\"39\",\"4\",\"12\",\"3A\",\"C1\",\"C\",\"60\"
\"\",\"\",\"approach-retreat\",\"64\",\"629547\",\"0.0-64.0\",\"\",\"\",\"2-2\",\"4041\",\"38\",\"1\",\"Training\",\"Stims/Figures/102-C-20-4.bmp\",\"zahaha\",\"Down\",\"38\",\"4\",\"13\",\"3A\",\"C2\",\"C\",\"61\"
\"\",\"\",\"approach-retreat\",\"65\",\"635043\",\"0.0-65.0\",\"\",\"\",\"2-2\",\"3992\",\"37\",\"1\",\"Training\",\"Stims/Figures/144-C-30-3.bmp\",\"zahaha\",\"Right\",\"37\",\"4\",\"14\",\"3A\",\"C2\",\"C\",\"62\"
\"\",\"\",\"approach-retreat\",\"66\",\"640419\",\"0.0-66.0\",\"\",\"\",\"2-2\",\"3873\",\"37\",\"1\",\"Training\",\"Stims/Figures/100-J-10-3.bmp\",\"fa:fa:sha\",\"Left\",\"37\",\"4\",\"15\",\"3A\",\"C1\",\"C\",\"63\"
\"\",\"\",\"approach-retreat\",\"67\",\"646026\",\"0.0-67.0\",\"\",\"\",\"2-2\",\"4104\",\"39\",\"1\",\"Training\",\"Stims/Figures/93-C-30-1.bmp\",\"zahaha\",\"Left\",\"39\",\"4\",\"16\",\"3A\",\"C2\",\"C\",\"64\"
\"\",\"\",\"approach-retreat\",\"68\",\"652019\",\"0.0-68.0\",\"\",\"\",\"2-2\",\"4490\",\"39\",\"1\",\"Training\",\"Stims/Figures/102-J-10-4.bmp\",\"fa:fa:sha\",\"Right\",\"39\",\"5\",\"1\",\"3A\",\"C1\",\"C\",\"65\"
\"\",\"\",\"approach-retreat\",\"69\",\"657570\",\"0.0-69.0\",\"\",\"\",\"2-2\",\"4049\",\"40\",\"1\",\"Training\",\"Stims/Figures/144-C-30-3.bmp\",\"zahaha\",\"Up\",\"40\",\"5\",\"2\",\"3A\",\"C2\",\"C\",\"66\"
\"\",\"\",\"approach-retreat\",\"70\",\"663163\",\"0.0-70.0\",\"\",\"\",\"2-2\",\"4089\",\"38\",\"1\",\"Training\",\"Stims/Figures/118-J-0-2.bmp\",\"fa:fa:sha\",\"Up\",\"38\",\"5\",\"3\",\"3A\",\"C1\",\"C\",\"67\"
\"\",\"\",\"approach-retreat\",\"71\",\"668755\",\"0.0-71.0\",\"\",\"\",\"2-2\",\"4088\",\"38\",\"1\",\"Training\",\"Stims/Figures/19-C-20-4.bmp\",\"zahaha\",\"Down\",\"38\",\"5\",\"4\",\"3A\",\"C2\",\"C\",\"68\"
\"\",\"\",\"approach-retreat\",\"72\",\"674226\",\"0.0-72.0\",\"\",\"\",\"2-2\",\"3968\",\"40\",\"1\",\"Training\",\"Stims/Figures/93-J-0-1.bmp\",\"fa:fa:sha\",\"Down\",\"40\",\"5\",\"5\",\"3A\",\"C1\",\"C\",\"69\"
\"\",\"\",\"approach-retreat\",\"73\",\"679810\",\"0.0-73.0\",\"\",\"\",\"2-2\",\"4081\",\"38\",\"1\",\"Training\",\"Stims/Figures/86-C-30-1.bmp\",\"zahaha\",\"Down\",\"38\",\"5\",\"6\",\"3A\",\"C2\",\"C\",\"70\"
\"\",\"\",\"approach-retreat\",\"74\",\"685279\",\"0.0-74.0\",\"\",\"\",\"2-2\",\"3962\",\"39\",\"0\",\"Training\",\"Stims/Figures/93-C-30-1.bmp\",\"zahaha\",\"Right\",\"37\",\"5\",\"7\",\"3A\",\"C2\",\"C\",\"71\"
\"\",\"\",\"approach-retreat\",\"75\",\"690747\",\"0.0-75.0\",\"\",\"\",\"2-2\",\"3965\",\"38\",\"1\",\"Training\",\"Stims/Figures/19-J-10-4.bmp\",\"fa:fa:sha\",\"Up\",\"38\",\"5\",\"8\",\"3A\",\"C1\",\"C\",\"72\"
\"\",\"\",\"approach-retreat\",\"76\",\"697243\",\"0.0-76.0\",\"\",\"\",\"2-2\",\"4992\",\"38\",\"1\",\"Training\",\"Stims/Figures/100-J-10-3.bmp\",\"fa:fa:sha\",\"Up\",\"38\",\"5\",\"9\",\"3A\",\"C1\",\"C\",\"73\"
\"\",\"\",\"approach-retreat\",\"77\",\"703144\",\"0.0-77.0\",\"\",\"\",\"2-2\",\"4383\",\"37\",\"0\",\"Training\",\"Stims/Figures/100-C-30-3.bmp\",\"zahaha\",\"Left\",\"39\",\"5\",\"10\",\"3A\",\"C2\",\"C\",\"74\"
\"\",\"\",\"approach-retreat\",\"78\",\"708851\",\"0.0-78.0\",\"\",\"\",\"2-2\",\"4204\",\"39\",\"1\",\"Training\",\"Stims/Figures/102-C-20-4.bmp\",\"zahaha\",\"Left\",\"39\",\"5\",\"11\",\"3A\",\"C2\",\"C\",\"75\"
\"\",\"\",\"approach-retreat\",\"79\",\"714394\",\"0.0-79.0\",\"\",\"\",\"2-2\",\"4041\",\"37\",\"1\",\"Training\",\"Stims/Figures/118-C-20-2.bmp\",\"zahaha\",\"Right\",\"37\",\"5\",\"12\",\"3A\",\"C2\",\"C\",\"76\"
\"\",\"\",\"approach-retreat\",\"80\",\"720290\",\"0.0-80.0\",\"\",\"\",\"2-2\",\"4393\",\"40\",\"1\",\"Training\",\"Stims/Figures/94-J-0-2.bmp\",\"fa:fa:sha\",\"Down\",\"40\",\"5\",\"13\",\"3A\",\"C1\",\"C\",\"77\"
\"\",\"\",\"approach-retreat\",\"81\",\"725915\",\"0.0-81.0\",\"\",\"\",\"2-2\",\"4123\",\"39\",\"1\",\"Training\",\"Stims/Figures/94-C-20-2.bmp\",\"zahaha\",\"Left\",\"39\",\"5\",\"14\",\"3A\",\"C2\",\"C\",\"78\"
\"\",\"\",\"approach-retreat\",\"82\",\"731922\",\"0.0-82.0\",\"\",\"\",\"2-2\",\"4505\",\"39\",\"1\",\"Training\",\"Stims/Figures/86-J-0-1.bmp\",\"fa:fa:sha\",\"Right\",\"39\",\"5\",\"15\",\"3A\",\"C1\",\"C\",\"79\"
\"\",\"\",\"approach-retreat\",\"83\",\"737459\",\"0.0-83.0\",\"\",\"\",\"2-2\",\"4033\",\"37\",\"1\",\"Training\",\"Stims/Figures/144-J-10-3.bmp\",\"fa:fa:sha\",\"Left\",\"37\",\"5\",\"16\",\"3A\",\"C1\",\"C\",\"80\"
\"\",\"\",\"approach-retreat\",\"84\",\"743090\",\"0.0-84.0\",\"\",\"\",\"2-2\",\"4129\",\"38\",\"1\",\"Training\",\"Stims/Figures/94-C-20-2.bmp\",\"zahaha\",\"Down\",\"38\",\"6\",\"1\",\"3A\",\"C2\",\"C\",\"81\"
\"\",\"\",\"approach-retreat\",\"85\",\"748722\",\"0.0-85.0\",\"\",\"\",\"2-2\",\"4130\",\"39\",\"1\",\"Training\",\"Stims/Figures/93-J-0-1.bmp\",\"fa:fa:sha\",\"Right\",\"39\",\"6\",\"2\",\"3A\",\"C1\",\"C\",\"82\"
\"\",\"\",\"approach-retreat\",\"86\",\"754425\",\"0.0-86.0\",\"\",\"\",\"2-2\",\"4200\",\"39\",\"1\",\"Training\",\"Stims/Figures/86-C-30-1.bmp\",\"zahaha\",\"Left\",\"39\",\"6\",\"3\",\"3A\",\"C2\",\"C\",\"83\"
\"\",\"\",\"approach-retreat\",\"87\",\"759978\",\"0.0-87.0\",\"\",\"\",\"2-2\",\"4049\",\"40\",\"1\",\"Training\",\"Stims/Figures/118-C-20-2.bmp\",\"zahaha\",\"Up\",\"40\",\"6\",\"4\",\"3A\",\"C2\",\"C\",\"84\"
\"\",\"\",\"approach-retreat\",\"88\",\"766531\",\"0.0-88.0\",\"\",\"\",\"2-2\",\"5046\",\"40\",\"1\",\"Training\",\"Stims/Figures/86-J-0-1.bmp\",\"fa:fa:sha\",\"Down\",\"40\",\"6\",\"5\",\"3A\",\"C1\",\"C\",\"85\"
\"\",\"\",\"approach-retreat\",\"89\",\"772187\",\"0.0-89.0\",\"\",\"\",\"2-2\",\"4152\",\"40\",\"1\",\"Training\",\"Stims/Figures/19-C-20-4.bmp\",\"zahaha\",\"Up\",\"40\",\"6\",\"6\",\"3A\",\"C2\",\"C\",\"86\"
\"\",\"\",\"approach-retreat\",\"90\",\"778035\",\"0.0-90.0\",\"\",\"\",\"2-2\",\"4344\",\"40\",\"1\",\"Training\",\"Stims/Figures/102-J-10-4.bmp\",\"fa:fa:sha\",\"Down\",\"40\",\"6\",\"7\",\"3A\",\"C1\",\"C\",\"87\"
\"\",\"\",\"approach-retreat\",\"91\",\"783674\",\"0.0-91.0\",\"\",\"\",\"2-2\",\"4137\",\"39\",\"1\",\"Training\",\"Stims/Figures/102-C-20-4.bmp\",\"zahaha\",\"Left\",\"39\",\"6\",\"8\",\"3A\",\"C2\",\"C\",\"88\"
\"\",\"\",\"approach-retreat\",\"92\",\"790155\",\"0.0-92.0\",\"\",\"\",\"2-2\",\"4977\",\"37\",\"1\",\"Training\",\"Stims/Figures/94-J-0-2.bmp\",\"fa:fa:sha\",\"Left\",\"37\",\"6\",\"9\",\"3A\",\"C1\",\"C\",\"89\"
\"\",\"\",\"approach-retreat\",\"93\",\"795643\",\"0.0-93.0\",\"\",\"\",\"2-2\",\"3985\",\"37\",\"1\",\"Training\",\"Stims/Figures/93-C-30-1.bmp\",\"zahaha\",\"Right\",\"37\",\"6\",\"10\",\"3A\",\"C2\",\"C\",\"90\"
\"\",\"\",\"approach-retreat\",\"94\",\"801698\",\"0.0-94.0\",\"\",\"\",\"2-2\",\"4553\",\"38\",\"1\",\"Training\",\"Stims/Figures/19-J-10-4.bmp\",\"fa:fa:sha\",\"Up\",\"38\",\"6\",\"11\",\"3A\",\"C1\",\"C\",\"91\"
\"\",\"\",\"approach-retreat\",\"95\",\"807218\",\"0.0-95.0\",\"\",\"\",\"2-2\",\"4018\",\"38\",\"1\",\"Training\",\"Stims/Figures/118-J-0-2.bmp\",\"fa:fa:sha\",\"Up\",\"38\",\"6\",\"12\",\"3A\",\"C1\",\"C\",\"92\"
\"\",\"\",\"approach-retreat\",\"96\",\"812722\",\"0.0-96.0\",\"\",\"\",\"2-2\",\"4002\",\"37\",\"1\",\"Training\",\"Stims/Figures/100-C-30-3.bmp\",\"zahaha\",\"Right\",\"37\",\"6\",\"13\",\"3A\",\"C2\",\"C\",\"93\"
\"\",\"\",\"approach-retreat\",\"97\",\"818178\",\"0.0-97.0\",\"\",\"\",\"2-2\",\"3954\",\"37\",\"1\",\"Training\",\"Stims/Figures/144-C-30-3.bmp\",\"zahaha\",\"Right\",\"37\",\"6\",\"14\",\"3A\",\"C2\",\"C\",\"94\"
\"\",\"\",\"approach-retreat\",\"98\",\"823700\",\"0.0-98.0\",\"\",\"\",\"2-2\",\"4016\",\"40\",\"1\",\"Training\",\"Stims/Figures/144-J-10-3.bmp\",\"fa:fa:sha\",\"Down\",\"40\",\"6\",\"15\",\"3A\",\"C1\",\"C\",\"95\"
\"\",\"\",\"approach-retreat\",\"99\",\"829267\",\"0.0-99.0\",\"\",\"\",\"2-2\",\"4065\",\"37\",\"1\",\"Training\",\"Stims/Figures/100-J-10-3.bmp\",\"fa:fa:sha\",\"Left\",\"37\",\"6\",\"16\",\"3A\",\"C1\",\"C\",\"96\"
\"\",\"\",\"approach-retreat\",\"100\",\"834763\",\"0.0-100.0\",\"\",\"\",\"2-2\",\"3993\",\"37\",\"1\",\"Training\",\"Stims/Figures/86-J-0-1.bmp\",\"fa:fa:sha\",\"Left\",\"37\",\"7\",\"1\",\"3A\",\"C1\",\"C\",\"97\"
\"\",\"\",\"approach-retreat\",\"101\",\"840186\",\"0.0-101.0\",\"\",\"\",\"2-2\",\"3920\",\"38\",\"1\",\"Training\",\"Stims/Figures/102-J-10-4.bmp\",\"fa:fa:sha\",\"Up\",\"38\",\"7\",\"2\",\"3A\",\"C1\",\"C\",\"98\"
\"\",\"\",\"approach-retreat\",\"102\",\"845722\",\"0.0-102.0\",\"\",\"\",\"2-2\",\"4034\",\"39\",\"1\",\"Training\",\"Stims/Figures/100-C-30-3.bmp\",\"zahaha\",\"Left\",\"39\",\"7\",\"3\",\"3A\",\"C2\",\"C\",\"99\"
\"\",\"\",\"approach-retreat\",\"103\",\"851914\",\"0.0-103.0\",\"\",\"\",\"2-2\",\"4690\",\"37\",\"1\",\"Training\",\"Stims/Figures/94-J-0-2.bmp\",\"fa:fa:sha\",\"Left\",\"37\",\"7\",\"4\",\"3A\",\"C1\",\"C\",\"100\"
\"\",\"\",\"approach-retreat\",\"104\",\"857436\",\"0.0-104.0\",\"\",\"\",\"2-2\",\"4018\",\"38\",\"1\",\"Training\",\"Stims/Figures/94-C-20-2.bmp\",\"zahaha\",\"Down\",\"38\",\"7\",\"5\",\"3A\",\"C2\",\"C\",\"101\"
\"\",\"\",\"approach-retreat\",\"105\",\"862930\",\"0.0-105.0\",\"\",\"\",\"2-2\",\"3993\",\"37\",\"1\",\"Training\",\"Stims/Figures/19-C-20-4.bmp\",\"zahaha\",\"Right\",\"37\",\"7\",\"6\",\"3A\",\"C2\",\"C\",\"102\"
\"\",\"\",\"approach-retreat\",\"106\",\"868866\",\"0.0-106.0\",\"\",\"\",\"2-2\",\"4434\",\"38\",\"1\",\"Training\",\"Stims/Figures/93-J-0-1.bmp\",\"fa:fa:sha\",\"Up\",\"38\",\"7\",\"7\",\"3A\",\"C1\",\"C\",\"103\"
\"\",\"\",\"approach-retreat\",\"107\",\"874378\",\"0.0-107.0\",\"\",\"\",\"2-2\",\"4010\",\"39\",\"1\",\"Training\",\"Stims/Figures/144-C-30-3.bmp\",\"zahaha\",\"Left\",\"39\",\"7\",\"8\",\"3A\",\"C2\",\"C\",\"104\"
\"\",\"\",\"approach-retreat\",\"108\",\"879955\",\"0.0-108.0\",\"\",\"\",\"2-2\",\"4074\",\"38\",\"1\",\"Training\",\"Stims/Figures/118-J-0-2.bmp\",\"fa:fa:sha\",\"Up\",\"38\",\"7\",\"9\",\"3A\",\"C1\",\"C\",\"105\"
\"\",\"\",\"approach-retreat\",\"109\",\"885346\",\"0.0-109.0\",\"\",\"\",\"2-2\",\"3890\",\"39\",\"1\",\"Training\",\"Stims/Figures/19-J-10-4.bmp\",\"fa:fa:sha\",\"Right\",\"39\",\"7\",\"10\",\"3A\",\"C1\",\"C\",\"106\"
\"\",\"\",\"approach-retreat\",\"110\",\"890771\",\"0.0-110.0\",\"\",\"\",\"2-2\",\"3922\",\"38\",\"1\",\"Training\",\"Stims/Figures/144-J-10-3.bmp\",\"fa:fa:sha\",\"Up\",\"38\",\"7\",\"11\",\"3A\",\"C1\",\"C\",\"107\"
\"\",\"\",\"approach-retreat\",\"111\",\"896275\",\"0.0-111.0\",\"\",\"\",\"2-2\",\"4003\",\"38\",\"1\",\"Training\",\"Stims/Figures/93-C-30-1.bmp\",\"zahaha\",\"Down\",\"38\",\"7\",\"12\",\"3A\",\"C2\",\"C\",\"108\"
\"\",\"\",\"approach-retreat\",\"112\",\"901763\",\"0.0-112.0\",\"\",\"\",\"2-2\",\"3985\",\"40\",\"1\",\"Training\",\"Stims/Figures/100-J-10-3.bmp\",\"fa:fa:sha\",\"Down\",\"40\",\"7\",\"13\",\"3A\",\"C1\",\"C\",\"109\"
\"\",\"\",\"approach-retreat\",\"113\",\"907275\",\"0.0-113.0\",\"\",\"\",\"2-2\",\"4009\",\"37\",\"1\",\"Training\",\"Stims/Figures/118-C-20-2.bmp\",\"zahaha\",\"Right\",\"37\",\"7\",\"14\",\"3A\",\"C2\",\"C\",\"110\"
\"\",\"\",\"approach-retreat\",\"114\",\"914372\",\"0.0-114.0\",\"\",\"\",\"2-2\",\"5593\",\"37\",\"1\",\"Training\",\"Stims/Figures/86-C-30-1.bmp\",\"zahaha\",\"Right\",\"37\",\"7\",\"15\",\"3A\",\"C2\",\"C\",\"111\"
\"\",\"\",\"approach-retreat\",\"115\",\"920226\",\"0.0-115.0\",\"\",\"\",\"2-2\",\"4352\",\"38\",\"1\",\"Training\",\"Stims/Figures/102-C-20-4.bmp\",\"zahaha\",\"Down\",\"38\",\"7\",\"16\",\"3A\",\"C2\",\"C\",\"112\"
\"\",\"\",\"approach-retreat\",\"116\",\"925970\",\"0.0-116.0\",\"\",\"\",\"2-2\",\"4241\",\"40\",\"1\",\"Training\",\"Stims/Figures/144-C-30-3.bmp\",\"zahaha\",\"Up\",\"40\",\"8\",\"1\",\"3A\",\"C2\",\"C\",\"113\"
\"\",\"\",\"approach-retreat\",\"117\",\"931467\",\"0.0-117.0\",\"\",\"\",\"2-2\",\"3994\",\"40\",\"1\",\"Training\",\"Stims/Figures/93-C-30-1.bmp\",\"zahaha\",\"Up\",\"40\",\"8\",\"2\",\"3A\",\"C2\",\"C\",\"114\"
\"\",\"\",\"approach-retreat\",\"118\",\"936971\",\"0.0-118.0\",\"\",\"\",\"2-2\",\"4001\",\"38\",\"1\",\"Training\",\"Stims/Figures/19-C-20-4.bmp\",\"zahaha\",\"Down\",\"38\",\"8\",\"3\",\"3A\",\"C2\",\"C\",\"115\"
\"\",\"\",\"approach-retreat\",\"119\",\"942475\",\"0.0-119.0\",\"\",\"\",\"2-2\",\"4003\",\"38\",\"1\",\"Training\",\"Stims/Figures/118-C-20-2.bmp\",\"zahaha\",\"Down\",\"38\",\"8\",\"4\",\"3A\",\"C2\",\"C\",\"116\"
\"\",\"\",\"approach-retreat\",\"120\",\"947970\",\"0.0-120.0\",\"\",\"\",\"2-2\",\"3993\",\"39\",\"1\",\"Training\",\"Stims/Figures/118-J-0-2.bmp\",\"fa:fa:sha\",\"Right\",\"39\",\"8\",\"5\",\"3A\",\"C1\",\"C\",\"117\"
\"\",\"\",\"approach-retreat\",\"121\",\"953395\",\"0.0-121.0\",\"\",\"\",\"2-2\",\"3923\",\"38\",\"1\",\"Training\",\"Stims/Figures/100-C-30-3.bmp\",\"zahaha\",\"Down\",\"38\",\"8\",\"6\",\"3A\",\"C2\",\"C\",\"118\"
\"\",\"\",\"approach-retreat\",\"122\",\"958930\",\"0.0-122.0\",\"\",\"\",\"2-2\",\"4032\",\"39\",\"1\",\"Training\",\"Stims/Figures/86-C-30-1.bmp\",\"zahaha\",\"Left\",\"39\",\"8\",\"7\",\"3A\",\"C2\",\"C\",\"119\"
\"\",\"\",\"approach-retreat\",\"123\",\"964571\",\"0.0-123.0\",\"\",\"\",\"2-2\",\"4139\",\"37\",\"1\",\"Training\",\"Stims/Figures/144-J-10-3.bmp\",\"fa:fa:sha\",\"Left\",\"37\",\"8\",\"8\",\"3A\",\"C1\",\"C\",\"120\"
\"\",\"\",\"approach-retreat\",\"124\",\"970202\",\"0.0-124.0\",\"\",\"\",\"2-2\",\"4128\",\"39\",\"1\",\"Training\",\"Stims/Figures/19-J-10-4.bmp\",\"fa:fa:sha\",\"Right\",\"39\",\"8\",\"9\",\"3A\",\"C1\",\"C\",\"121\"
\"\",\"\",\"approach-retreat\",\"125\",\"975747\",\"0.0-125.0\",\"\",\"\",\"2-2\",\"4041\",\"40\",\"1\",\"Training\",\"Stims/Figures/94-C-20-2.bmp\",\"zahaha\",\"Up\",\"40\",\"8\",\"10\",\"3A\",\"C2\",\"C\",\"122\"
\"\",\"\",\"approach-retreat\",\"126\",\"982074\",\"0.0-126.0\",\"\",\"\",\"2-2\",\"4827\",\"39\",\"1\",\"Training\",\"Stims/Figures/100-J-10-3.bmp\",\"fa:fa:sha\",\"Right\",\"39\",\"8\",\"11\",\"3A\",\"C1\",\"C\",\"123\"
\"\",\"\",\"approach-retreat\",\"127\",\"987507\",\"0.0-127.0\",\"\",\"\",\"2-2\",\"3929\",\"37\",\"1\",\"Training\",\"Stims/Figures/94-J-0-2.bmp\",\"fa:fa:sha\",\"Left\",\"37\",\"8\",\"12\",\"3A\",\"C1\",\"C\",\"124\"
\"\",\"\",\"approach-retreat\",\"128\",\"993123\",\"0.0-128.0\",\"\",\"\",\"2-2\",\"4115\",\"40\",\"1\",\"Training\",\"Stims/Figures/86-J-0-1.bmp\",\"fa:fa:sha\",\"Down\",\"40\",\"8\",\"13\",\"3A\",\"C1\",\"C\",\"125\"
\"\",\"\",\"approach-retreat\",\"129\",\"998675\",\"0.0-129.0\",\"\",\"\",\"2-2\",\"4048\",\"38\",\"1\",\"Training\",\"Stims/Figures/93-J-0-1.bmp\",\"fa:fa:sha\",\"Up\",\"38\",\"8\",\"14\",\"3A\",\"C1\",\"C\",\"126\"
\"\",\"\",\"approach-retreat\",\"130\",\"1004131\",\"0.0-130.0\",\"\",\"\",\"2-2\",\"3953\",\"37\",\"1\",\"Training\",\"Stims/Figures/102-J-10-4.bmp\",\"fa:fa:sha\",\"Left\",\"37\",\"8\",\"15\",\"3A\",\"C1\",\"C\",\"127\"
\"\",\"\",\"approach-retreat\",\"131\",\"1009675\",\"0.0-131.0\",\"\",\"\",\"2-2\",\"4042\",\"37\",\"1\",\"Training\",\"Stims/Figures/102-C-20-4.bmp\",\"zahaha\",\"Right\",\"37\",\"8\",\"16\",\"3A\",\"C2\",\"C\",\"128\"
\"\",\"\",\"approach-retreat\",\"132\",\"1015194\",\"0.0-132.0\",\"\",\"\",\"2-2\",\"4019\",\"37\",\"1\",\"Training\",\"Stims/Figures/100-J-10-3.bmp\",\"fa:fa:sha\",\"Left\",\"37\",\"9\",\"1\",\"3A\",\"C1\",\"C\",\"129\"
\"\",\"\",\"approach-retreat\",\"133\",\"1020716\",\"0.0-133.0\",\"\",\"\",\"2-2\",\"4017\",\"39\",\"1\",\"Training\",\"Stims/Figures/102-J-10-4.bmp\",\"fa:fa:sha\",\"Right\",\"39\",\"9\",\"2\",\"3A\",\"C1\",\"C\",\"130\"
\"\",\"\",\"approach-retreat\",\"134\",\"1026202\",\"0.0-134.0\",\"\",\"\",\"2-2\",\"3984\",\"37\",\"1\",\"Training\",\"Stims/Figures/86-J-0-1.bmp\",\"fa:fa:sha\",\"Left\",\"37\",\"9\",\"3\",\"3A\",\"C1\",\"C\",\"131\"
\"\",\"\",\"approach-retreat\",\"135\",\"1031763\",\"0.0-135.0\",\"\",\"\",\"2-2\",\"4057\",\"40\",\"1\",\"Training\",\"Stims/Figures/118-C-20-2.bmp\",\"zahaha\",\"Up\",\"40\",\"9\",\"4\",\"3A\",\"C2\",\"C\",\"132\"
\"\",\"\",\"approach-retreat\",\"136\",\"1037276\",\"0.0-136.0\",\"\",\"\",\"2-2\",\"4009\",\"38\",\"1\",\"Training\",\"Stims/Figures/93-C-30-1.bmp\",\"zahaha\",\"Down\",\"38\",\"9\",\"5\",\"3A\",\"C2\",\"C\",\"133\"
\"\",\"\",\"approach-retreat\",\"137\",\"1042922\",\"0.0-137.0\",\"\",\"\",\"2-2\",\"4144\",\"39\",\"1\",\"Training\",\"Stims/Figures/102-C-20-4.bmp\",\"zahaha\",\"Left\",\"39\",\"9\",\"6\",\"3A\",\"C2\",\"C\",\"134\"
\"\",\"\",\"approach-retreat\",\"138\",\"1048458\",\"0.0-138.0\",\"\",\"\",\"2-2\",\"4032\",\"40\",\"1\",\"Training\",\"Stims/Figures/86-C-30-1.bmp\",\"zahaha\",\"Up\",\"40\",\"9\",\"7\",\"3A\",\"C2\",\"C\",\"135\"
\"\",\"\",\"approach-retreat\",\"139\",\"1053939\",\"0.0-139.0\",\"\",\"\",\"2-2\",\"3973\",\"38\",\"1\",\"Training\",\"Stims/Figures/19-C-20-4.bmp\",\"zahaha\",\"Down\",\"38\",\"9\",\"8\",\"3A\",\"C2\",\"C\",\"136\"
\"\",\"\",\"approach-retreat\",\"140\",\"1059699\",\"0.0-140.0\",\"\",\"\",\"2-2\",\"4254\",\"40\",\"1\",\"Training\",\"Stims/Figures/19-J-10-4.bmp\",\"fa:fa:sha\",\"Down\",\"40\",\"9\",\"9\",\"3A\",\"C1\",\"C\",\"137\"
\"\",\"\",\"approach-retreat\",\"141\",\"1065178\",\"0.0-141.0\",\"\",\"\",\"2-2\",\"3977\",\"37\",\"1\",\"Training\",\"Stims/Figures/144-J-10-3.bmp\",\"fa:fa:sha\",\"Left\",\"37\",\"9\",\"10\",\"3A\",\"C1\",\"C\",\"138\"
\"\",\"\",\"approach-retreat\",\"142\",\"1070755\",\"0.0-142.0\",\"\",\"\",\"2-2\",\"4073\",\"40\",\"1\",\"Training\",\"Stims/Figures/100-C-30-3.bmp\",\"zahaha\",\"Up\",\"40\",\"9\",\"11\",\"3A\",\"C2\",\"C\",\"139\"
\"\",\"\",\"approach-retreat\",\"143\",\"1076362\",\"0.0-143.0\",\"\",\"\",\"2-2\",\"4105\",\"38\",\"1\",\"Training\",\"Stims/Figures/144-C-30-3.bmp\",\"zahaha\",\"Down\",\"38\",\"9\",\"12\",\"3A\",\"C2\",\"C\",\"140\"
\"\",\"\",\"approach-retreat\",\"144\",\"1081900\",\"0.0-144.0\",\"\",\"\",\"2-2\",\"4033\",\"39\",\"1\",\"Training\",\"Stims/Figures/118-J-0-2.bmp\",\"fa:fa:sha\",\"Right\",\"39\",\"9\",\"13\",\"3A\",\"C1\",\"C\",\"141\"
\"\",\"\",\"approach-retreat\",\"145\",\"1087586\",\"0.0-145.0\",\"\",\"\",\"2-2\",\"4185\",\"37\",\"1\",\"Training\",\"Stims/Figures/94-C-20-2.bmp\",\"zahaha\",\"Right\",\"37\",\"9\",\"14\",\"3A\",\"C2\",\"C\",\"142\"
\"\",\"\",\"approach-retreat\",\"146\",\"1093315\",\"0.0-146.0\",\"\",\"\",\"2-2\",\"4226\",\"39\",\"1\",\"Training\",\"Stims/Figures/93-J-0-1.bmp\",\"fa:fa:sha\",\"Right\",\"39\",\"9\",\"15\",\"3A\",\"C1\",\"C\",\"143\"
\"\",\"\",\"approach-retreat\",\"147\",\"1100138\",\"0.0-147.0\",\"\",\"\",\"2-2\",\"5321\",\"38\",\"1\",\"Training\",\"Stims/Figures/94-J-0-2.bmp\",\"fa:fa:sha\",\"Up\",\"38\",\"9\",\"16\",\"3A\",\"C1\",\"C\",\"144\"
\"65149\",\"\",\"instructions\",\"148\",\"1165287\",\"0.0-148.0\",\"[{\"\"page_index\"\":0,\"\"viewing_time\"\":65148}]\",\"\",\"\",\"\",\"\",\"\",\"\",\"\",\"\",\"\",\"\",\"\",\"\",\"\",\"\",\"\",\"\"
\"\",\"\",\"approach-retreat\",\"149\",\"1172851\",\"0.0-149.0\",\"\",\"\",\"2-2\",\"6054\",\"40\",\"1\",\"Testing\",\"Stims/Figures/93-J-0-1.bmp\",\"fa:fa:sha\",\"Down\",\"40\",\"1\",\"1\",\"3A\",\"C1\",\"C\",\"1\"
\"\",\"\",\"approach-retreat\",\"150\",\"1178737\",\"0.0-150.0\",\"\",\"\",\"2-2\",\"4377\",\"40\",\"1\",\"Testing\",\"Stims/Figures/94-C-20-2.bmp\",\"zahaha\",\"Up\",\"40\",\"1\",\"2\",\"3A\",\"C2\",\"C\",\"2\"
\"\",\"\",\"approach-retreat\",\"151\",\"1184566\",\"0.0-151.0\",\"\",\"\",\"2-2\",\"4315\",\"39\",\"1\",\"Testing\",\"Stims/Figures/100-J-10-3.bmp\",\"fa:fa:sha\",\"Right\",\"39\",\"1\",\"3\",\"3A\",\"C1\",\"C\",\"3\"
\"\",\"\",\"approach-retreat\",\"152\",\"1190210\",\"0.0-152.0\",\"\",\"\",\"2-2\",\"4142\",\"38\",\"1\",\"Testing\",\"Stims/Figures/100-C-30-3.bmp\",\"zahaha\",\"Down\",\"38\",\"1\",\"4\",\"3A\",\"C2\",\"C\",\"4\"
\"\",\"\",\"approach-retreat\",\"153\",\"1196075\",\"0.0-153.0\",\"\",\"\",\"2-2\",\"4360\",\"39\",\"0\",\"Testing\",\"Stims/Figures/84-J-0-2.bmp\",\"fa:fa:sha\",\"Left\",\"37\",\"1\",\"5\",\"3A\",\"C1\",\"C\",\"5\"
\"\",\"\",\"approach-retreat\",\"154\",\"1202762\",\"0.0-154.0\",\"\",\"\",\"2-2\",\"5177\",\"39\",\"0\",\"Testing\",\"Stims/Figures/86-C-30-1.bmp\",\"zahaha\",\"Right\",\"37\",\"1\",\"6\",\"3A\",\"C2\",\"C\",\"6\"
\"\",\"\",\"approach-retreat\",\"155\",\"1208866\",\"0.0-155.0\",\"\",\"\",\"2-2\",\"4594\",\"39\",\"0\",\"Testing\",\"Stims/Figures/19-J-10-4.bmp\",\"fa:fa:sha\",\"Left\",\"37\",\"1\",\"7\",\"3A\",\"C1\",\"C\",\"7\"
\"\",\"\",\"approach-retreat\",\"156\",\"1214947\",\"0.0-156.0\",\"\",\"\",\"2-2\",\"4578\",\"38\",\"0\",\"Testing\",\"Stims/Figures/144-J-10-3.bmp\",\"fa:fa:sha\",\"Down\",\"40\",\"1\",\"8\",\"3A\",\"C1\",\"C\",\"8\"
\"\",\"\",\"approach-retreat\",\"157\",\"1221579\",\"0.0-157.0\",\"\",\"\",\"2-2\",\"5121\",\"39\",\"0\",\"Testing\",\"Stims/Figures/86-J-0-1.bmp\",\"fa:fa:sha\",\"Left\",\"37\",\"1\",\"9\",\"3A\",\"C1\",\"C\",\"9\"
\"\",\"\",\"approach-retreat\",\"158\",\"1228035\",\"0.0-158.0\",\"\",\"\",\"2-2\",\"4954\",\"38\",\"0\",\"Testing\",\"Stims/Figures/19-C-20-4.bmp\",\"zahaha\",\"Up\",\"40\",\"1\",\"10\",\"3A\",\"C2\",\"C\",\"10\"
\"\",\"\",\"approach-retreat\",\"159\",\"1233850\",\"0.0-159.0\",\"\",\"\",\"2-2\",\"4314\",\"39\",\"0\",\"Testing\",\"Stims/Figures/102-C-20-4.bmp\",\"zahaha\",\"Right\",\"37\",\"1\",\"11\",\"3A\",\"C2\",\"C\",\"11\"
\"\",\"\",\"approach-retreat\",\"160\",\"1239475\",\"0.0-160.0\",\"\",\"\",\"2-2\",\"4111\",\"38\",\"0\",\"Testing\",\"Stims/Figures/84-C-20-2.bmp\",\"zahaha\",\"Up\",\"40\",\"1\",\"12\",\"3A\",\"C2\",\"C\",\"12\"
\"\",\"\",\"approach-retreat\",\"161\",\"1245651\",\"0.0-161.0\",\"\",\"\",\"2-2\",\"4672\",\"38\",\"1\",\"Testing\",\"Stims/Figures/93-C-30-1.bmp\",\"zahaha\",\"Down\",\"38\",\"1\",\"13\",\"3A\",\"C2\",\"C\",\"13\"
\"\",\"\",\"approach-retreat\",\"162\",\"1251705\",\"0.0-162.0\",\"\",\"\",\"2-2\",\"4537\",\"39\",\"0\",\"Testing\",\"Stims/Figures/118-C-20-2.bmp\",\"zahaha\",\"Right\",\"37\",\"1\",\"14\",\"3A\",\"C2\",\"C\",\"14\"
\"\",\"\",\"approach-retreat\",\"163\",\"1258706\",\"0.0-163.0\",\"\",\"\",\"2-2\",\"5491\",\"39\",\"1\",\"Testing\",\"Stims/Figures/118-J-0-2.bmp\",\"fa:fa:sha\",\"Right\",\"39\",\"1\",\"15\",\"3A\",\"C1\",\"C\",\"15\"
\"\",\"\",\"approach-retreat\",\"164\",\"1264580\",\"0.0-164.0\",\"\",\"\",\"2-2\",\"4361\",\"40\",\"1\",\"Testing\",\"Stims/Figures/144-C-30-3.bmp\",\"zahaha\",\"Up\",\"40\",\"1\",\"16\",\"3A\",\"C2\",\"C\",\"16\"
\"\",\"\",\"approach-retreat\",\"165\",\"1270659\",\"0.0-165.0\",\"\",\"\",\"2-2\",\"4567\",\"40\",\"1\",\"Testing\",\"Stims/Figures/74-C-20-4.bmp\",\"zahaha\",\"Up\",\"40\",\"1\",\"17\",\"3A\",\"C2\",\"C\",\"17\"
\"\",\"\",\"approach-retreat\",\"166\",\"1279699\",\"0.0-166.0\",\"\",\"\",\"2-2\",\"7536\",\"39\",\"1\",\"Testing\",\"Stims/Figures/71-C-30-1.bmp\",\"zahaha\",\"Left\",\"39\",\"1\",\"18\",\"3A\",\"C2\",\"C\",\"18\"
\"\",\"\",\"approach-retreat\",\"167\",\"1287396\",\"0.0-167.0\",\"\",\"\",\"2-2\",\"6177\",\"40\",\"1\",\"Testing\",\"Stims/Figures/74-J-10-4.bmp\",\"fa:fa:sha\",\"Down\",\"40\",\"1\",\"19\",\"3A\",\"C1\",\"C\",\"19\"
\"\",\"\",\"approach-retreat\",\"168\",\"1293125\",\"0.0-168.0\",\"\",\"\",\"2-2\",\"4223\",\"40\",\"0\",\"Testing\",\"Stims/Figures/44-J-10-3.bmp\",\"fa:fa:sha\",\"Up\",\"38\",\"1\",\"20\",\"3A\",\"C1\",\"C\",\"20\"
\"\",\"\",\"approach-retreat\",\"169\",\"1300050\",\"0.0-169.0\",\"\",\"\",\"2-2\",\"5413\",\"40\",\"1\",\"Testing\",\"Stims/Figures/71-J-0-1.bmp\",\"fa:fa:sha\",\"Down\",\"40\",\"1\",\"21\",\"3A\",\"C1\",\"C\",\"21\"
\"\",\"\",\"approach-retreat\",\"170\",\"1306780\",\"0.0-170.0\",\"\",\"\",\"2-2\",\"5226\",\"37\",\"1\",\"Testing\",\"Stims/Figures/102-J-10-4.bmp\",\"fa:fa:sha\",\"Left\",\"37\",\"1\",\"22\",\"3A\",\"C1\",\"C\",\"22\"
\"\",\"\",\"approach-retreat\",\"171\",\"1312715\",\"0.0-171.0\",\"\",\"\",\"2-2\",\"4425\",\"37\",\"1\",\"Testing\",\"Stims/Figures/94-J-0-2.bmp\",\"fa:fa:sha\",\"Left\",\"37\",\"1\",\"23\",\"3A\",\"C1\",\"C\",\"23\"
\"\",\"\",\"approach-retreat\",\"172\",\"1319162\",\"0.0-172.0\",\"\",\"\",\"2-2\",\"4935\",\"37\",\"1\",\"Testing\",\"Stims/Figures/44-C-30-3.bmp\",\"zahaha\",\"Right\",\"37\",\"1\",\"24\",\"3A\",\"C2\",\"C\",\"24\"
\"\",\"\",\"approach-retreat\",\"173\",\"1325671\",\"0.0-173.0\",\"\",\"\",\"2-2\",\"5000\",\"37\",\"1\",\"Testing\",\"Stims/Figures/84-J-0-2.bmp\",\"fa:fa:sha\",\"Left\",\"37\",\"2\",\"1\",\"3A\",\"C1\",\"C\",\"25\"
\"\",\"\",\"approach-retreat\",\"174\",\"1331366\",\"0.0-174.0\",\"\",\"\",\"2-2\",\"4182\",\"39\",\"1\",\"Testing\",\"Stims/Figures/44-J-10-3.bmp\",\"fa:fa:sha\",\"Right\",\"39\",\"2\",\"2\",\"3A\",\"C1\",\"C\",\"26\"
\"\",\"\",\"approach-retreat\",\"175\",\"1336894\",\"0.0-175.0\",\"\",\"\",\"2-2\",\"4021\",\"39\",\"1\",\"Testing\",\"Stims/Figures/71-J-0-1.bmp\",\"fa:fa:sha\",\"Right\",\"39\",\"2\",\"3\",\"3A\",\"C1\",\"C\",\"27\"
\"\",\"\",\"approach-retreat\",\"176\",\"1342615\",\"0.0-176.0\",\"\",\"\",\"2-2\",\"4213\",\"40\",\"1\",\"Testing\",\"Stims/Figures/94-C-20-2.bmp\",\"zahaha\",\"Up\",\"40\",\"2\",\"4\",\"3A\",\"C2\",\"C\",\"28\"
\"\",\"\",\"approach-retreat\",\"177\",\"1350326\",\"0.0-177.0\",\"\",\"\",\"2-2\",\"6197\",\"39\",\"1\",\"Testing\",\"Stims/Figures/118-J-0-2.bmp\",\"fa:fa:sha\",\"Right\",\"39\",\"2\",\"5\",\"3A\",\"C1\",\"C\",\"29\"
\"\",\"\",\"approach-retreat\",\"178\",\"1356715\",\"0.0-178.0\",\"\",\"\",\"2-2\",\"4878\",\"38\",\"0\",\"Testing\",\"Stims/Figures/19-J-10-4.bmp\",\"fa:fa:sha\",\"Down\",\"40\",\"2\",\"6\",\"3A\",\"C1\",\"C\",\"30\"
\"\",\"\",\"approach-retreat\",\"179\",\"1362410\",\"0.0-179.0\",\"\",\"\",\"2-2\",\"4177\",\"37\",\"0\",\"Testing\",\"Stims/Figures/102-J-10-4.bmp\",\"fa:fa:sha\",\"Right\",\"39\",\"2\",\"7\",\"3A\",\"C1\",\"C\",\"31\"
\"\",\"\",\"approach-retreat\",\"180\",\"1368735\",\"0.0-180.0\",\"\",\"\",\"2-2\",\"4818\",\"40\",\"0\",\"Testing\",\"Stims/Figures/74-J-10-4.bmp\",\"fa:fa:sha\",\"Up\",\"38\",\"2\",\"8\",\"3A\",\"C1\",\"C\",\"32\"
\"\",\"\",\"approach-retreat\",\"181\",\"1374505\",\"0.0-181.0\",\"\",\"\",\"2-2\",\"4261\",\"38\",\"1\",\"Testing\",\"Stims/Figures/94-J-0-2.bmp\",\"fa:fa:sha\",\"Up\",\"38\",\"2\",\"9\",\"3A\",\"C1\",\"C\",\"33\"
\"\",\"\",\"approach-retreat\",\"182\",\"1380684\",\"0.0-182.0\",\"\",\"\",\"2-2\",\"4675\",\"40\",\"1\",\"Testing\",\"Stims/Figures/93-J-0-1.bmp\",\"fa:fa:sha\",\"Down\",\"40\",\"2\",\"10\",\"3A\",\"C1\",\"C\",\"34\"
\"\",\"\",\"approach-retreat\",\"183\",\"1386560\",\"0.0-183.0\",\"\",\"\",\"2-2\",\"4367\",\"39\",\"1\",\"Testing\",\"Stims/Figures/144-C-30-3.bmp\",\"zahaha\",\"Left\",\"39\",\"2\",\"11\",\"3A\",\"C2\",\"C\",\"35\"
\"\",\"\",\"approach-retreat\",\"184\",\"1392246\",\"0.0-184.0\",\"\",\"\",\"2-2\",\"4177\",\"40\",\"0\",\"Testing\",\"Stims/Figures/100-J-10-3.bmp\",\"fa:fa:sha\",\"Up\",\"38\",\"2\",\"12\",\"3A\",\"C1\",\"C\",\"36\"
\"\",\"\",\"approach-retreat\",\"185\",\"1398109\",\"0.0-185.0\",\"\",\"\",\"2-2\",\"4358\",\"40\",\"1\",\"Testing\",\"Stims/Figures/86-J-0-1.bmp\",\"fa:fa:sha\",\"Down\",\"40\",\"2\",\"13\",\"3A\",\"C1\",\"C\",\"37\"
\"\",\"\",\"approach-retreat\",\"186\",\"1403905\",\"0.0-186.0\",\"\",\"\",\"2-2\",\"4278\",\"39\",\"0\",\"Testing\",\"Stims/Figures/74-C-20-4.bmp\",\"zahaha\",\"Right\",\"37\",\"2\",\"14\",\"3A\",\"C2\",\"C\",\"38\"
\"\",\"\",\"approach-retreat\",\"187\",\"1410029\",\"0.0-187.0\",\"\",\"\",\"2-2\",\"4619\",\"40\",\"0\",\"Testing\",\"Stims/Figures/144-J-10-3.bmp\",\"fa:fa:sha\",\"Up\",\"38\",\"2\",\"15\",\"3A\",\"C1\",\"C\",\"39\"
\"\",\"\",\"approach-retreat\",\"188\",\"1416740\",\"0.0-188.0\",\"\",\"\",\"2-2\",\"5206\",\"38\",\"1\",\"Testing\",\"Stims/Figures/118-C-20-2.bmp\",\"zahaha\",\"Down\",\"38\",\"2\",\"16\",\"3A\",\"C2\",\"C\",\"40\"
\"\",\"\",\"approach-retreat\",\"189\",\"1422480\",\"0.0-189.0\",\"\",\"\",\"2-2\",\"4233\",\"39\",\"1\",\"Testing\",\"Stims/Figures/84-C-20-2.bmp\",\"zahaha\",\"Left\",\"39\",\"2\",\"17\",\"3A\",\"C2\",\"C\",\"41\"
\"\",\"\",\"approach-retreat\",\"190\",\"1428059\",\"0.0-190.0\",\"\",\"\",\"2-2\",\"4075\",\"40\",\"1\",\"Testing\",\"Stims/Figures/100-C-30-3.bmp\",\"zahaha\",\"Up\",\"40\",\"2\",\"18\",\"3A\",\"C2\",\"C\",\"42\"
\"\",\"\",\"approach-retreat\",\"191\",\"1435995\",\"0.0-191.0\",\"\",\"\",\"2-2\",\"6425\",\"39\",\"1\",\"Testing\",\"Stims/Figures/102-C-20-4.bmp\",\"zahaha\",\"Left\",\"39\",\"2\",\"19\",\"3A\",\"C2\",\"C\",\"43\"
\"\",\"\",\"approach-retreat\",\"192\",\"1443500\",\"0.0-192.0\",\"\",\"\",\"2-2\",\"5994\",\"39\",\"1\",\"Testing\",\"Stims/Figures/44-C-30-3.bmp\",\"zahaha\",\"Left\",\"39\",\"2\",\"20\",\"3A\",\"C2\",\"C\",\"44\"
\"\",\"\",\"approach-retreat\",\"193\",\"1449850\",\"0.0-193.0\",\"\",\"\",\"2-2\",\"4847\",\"38\",\"1\",\"Testing\",\"Stims/Figures/93-C-30-1.bmp\",\"zahaha\",\"Down\",\"38\",\"2\",\"21\",\"3A\",\"C2\",\"C\",\"45\"
\"\",\"\",\"approach-retreat\",\"194\",\"1456628\",\"0.0-194.0\",\"\",\"\",\"2-2\",\"5274\",\"39\",\"0\",\"Testing\",\"Stims/Figures/71-C-30-1.bmp\",\"zahaha\",\"Right\",\"37\",\"2\",\"22\",\"3A\",\"C2\",\"C\",\"46\"
\"\",\"\",\"approach-retreat\",\"195\",\"1466157\",\"0.0-195.0\",\"\",\"\",\"2-2\",\"8016\",\"39\",\"1\",\"Testing\",\"Stims/Figures/86-C-30-1.bmp\",\"zahaha\",\"Left\",\"39\",\"2\",\"23\",\"3A\",\"C2\",\"C\",\"47\"
\"\",\"\",\"approach-retreat\",\"196\",\"1472330\",\"0.0-196.0\",\"\",\"\",\"2-2\",\"4664\",\"38\",\"1\",\"Testing\",\"Stims/Figures/19-C-20-4.bmp\",\"zahaha\",\"Down\",\"38\",\"2\",\"24\",\"3A\",\"C2\",\"C\",\"48\"
\"\",\"\",\"approach-retreat\",\"197\",\"1477951\",\"0.0-197.0\",\"\",\"\",\"2-2\",\"4106\",\"38\",\"1\",\"Testing\",\"Stims/Figures/94-C-20-2.bmp\",\"zahaha\",\"Down\",\"38\",\"3\",\"1\",\"3A\",\"C2\",\"C\",\"49\"
\"\",\"\",\"approach-retreat\",\"198\",\"1487554\",\"0.0-198.0\",\"\",\"\",\"2-2\",\"8093\",\"40\",\"1\",\"Testing\",\"Stims/Figures/100-J-10-3.bmp\",\"fa:fa:sha\",\"Down\",\"40\",\"3\",\"2\",\"3A\",\"C1\",\"C\",\"50\"
\"\",\"\",\"approach-retreat\",\"199\",\"1493905\",\"0.0-199.0\",\"\",\"\",\"2-2\",\"4841\",\"39\",\"0\",\"Testing\",\"Stims/Figures/71-C-30-1.bmp\",\"zahaha\",\"Right\",\"37\",\"3\",\"3\",\"3A\",\"C2\",\"C\",\"51\"
\"\",\"\",\"approach-retreat\",\"200\",\"1500292\",\"0.0-200.0\",\"\",\"\",\"2-2\",\"4875\",\"37\",\"1\",\"Testing\",\"Stims/Figures/102-C-20-4.bmp\",\"zahaha\",\"Right\",\"37\",\"3\",\"4\",\"3A\",\"C2\",\"C\",\"52\"
\"\",\"\",\"approach-retreat\",\"201\",\"1506316\",\"0.0-201.0\",\"\",\"\",\"2-2\",\"4512\",\"40\",\"1\",\"Testing\",\"Stims/Figures/118-C-20-2.bmp\",\"zahaha\",\"Up\",\"40\",\"3\",\"5\",\"3A\",\"C2\",\"C\",\"53\"
\"\",\"\",\"approach-retreat\",\"202\",\"1512025\",\"0.0-202.0\",\"\",\"\",\"2-2\",\"4200\",\"37\",\"1\",\"Testing\",\"Stims/Figures/94-J-0-2.bmp\",\"fa:fa:sha\",\"Left\",\"37\",\"3\",\"6\",\"3A\",\"C1\",\"C\",\"54\"
\"\",\"\",\"approach-retreat\",\"203\",\"1518345\",\"0.0-203.0\",\"\",\"\",\"2-2\",\"4803\",\"37\",\"1\",\"Testing\",\"Stims/Figures/19-J-10-4.bmp\",\"fa:fa:sha\",\"Left\",\"37\",\"3\",\"7\",\"3A\",\"C1\",\"C\",\"55\"
\"\",\"\",\"approach-retreat\",\"204\",\"1525750\",\"0.0-204.0\",\"\",\"\",\"2-2\",\"5899\",\"37\",\"1\",\"Testing\",\"Stims/Figures/93-J-0-1.bmp\",\"fa:fa:sha\",\"Left\",\"37\",\"3\",\"8\",\"3A\",\"C1\",\"C\",\"56\"
\"\",\"\",\"approach-retreat\",\"205\",\"1531966\",\"0.0-205.0\",\"\",\"\",\"2-2\",\"4703\",\"40\",\"0\",\"Testing\",\"Stims/Figures/118-J-0-2.bmp\",\"fa:fa:sha\",\"Up\",\"38\",\"3\",\"9\",\"3A\",\"C1\",\"C\",\"57\"
\"\",\"\",\"approach-retreat\",\"206\",\"1537551\",\"0.0-206.0\",\"\",\"\",\"2-2\",\"4070\",\"39\",\"0\",\"Testing\",\"Stims/Figures/102-J-10-4.bmp\",\"fa:fa:sha\",\"Left\",\"37\",\"3\",\"10\",\"3A\",\"C1\",\"C\",\"58\"
\"\",\"\",\"approach-retreat\",\"207\",\"1543655\",\"0.0-207.0\",\"\",\"\",\"2-2\",\"4597\",\"38\",\"1\",\"Testing\",\"Stims/Figures/93-C-30-1.bmp\",\"zahaha\",\"Down\",\"38\",\"3\",\"11\",\"3A\",\"C2\",\"C\",\"59\"
\"\",\"\",\"approach-retreat\",\"208\",\"1549430\",\"0.0-208.0\",\"\",\"\",\"2-2\",\"4270\",\"40\",\"1\",\"Testing\",\"Stims/Figures/44-C-30-3.bmp\",\"zahaha\",\"Up\",\"40\",\"3\",\"12\",\"3A\",\"C2\",\"C\",\"60\"
\"\",\"\",\"approach-retreat\",\"209\",\"1555683\",\"0.0-209.0\",\"\",\"\",\"2-2\",\"4751\",\"39\",\"0\",\"Testing\",\"Stims/Figures/86-J-0-1.bmp\",\"fa:fa:sha\",\"Left\",\"37\",\"3\",\"13\",\"3A\",\"C1\",\"C\",\"61\"
\"\",\"\",\"approach-retreat\",\"210\",\"1561672\",\"0.0-210.0\",\"\",\"\",\"2-2\",\"4481\",\"39\",\"1\",\"Testing\",\"Stims/Figures/71-J-0-1.bmp\",\"fa:fa:sha\",\"Right\",\"39\",\"3\",\"14\",\"3A\",\"C1\",\"C\",\"62\"
\"\",\"\",\"approach-retreat\",\"211\",\"1567298\",\"0.0-211.0\",\"\",\"\",\"2-2\",\"4116\",\"37\",\"1\",\"Testing\",\"Stims/Figures/84-C-20-2.bmp\",\"zahaha\",\"Right\",\"37\",\"3\",\"15\",\"3A\",\"C2\",\"C\",\"63\"
\"\",\"\",\"approach-retreat\",\"212\",\"1573164\",\"0.0-212.0\",\"\",\"\",\"2-2\",\"4354\",\"38\",\"1\",\"Testing\",\"Stims/Figures/74-C-20-4.bmp\",\"zahaha\",\"Down\",\"38\",\"3\",\"16\",\"3A\",\"C2\",\"C\",\"64\"
\"\",\"\",\"approach-retreat\",\"213\",\"1578906\",\"0.0-213.0\",\"\",\"\",\"2-2\",\"4225\",\"39\",\"1\",\"Testing\",\"Stims/Figures/100-C-30-3.bmp\",\"zahaha\",\"Left\",\"39\",\"3\",\"17\",\"3A\",\"C2\",\"C\",\"65\"
\"\",\"\",\"approach-retreat\",\"214\",\"1584799\",\"0.0-214.0\",\"\",\"\",\"2-2\",\"4387\",\"38\",\"1\",\"Testing\",\"Stims/Figures/19-C-20-4.bmp\",\"zahaha\",\"Down\",\"38\",\"3\",\"18\",\"3A\",\"C2\",\"C\",\"66\"
\"\",\"\",\"approach-retreat\",\"215\",\"1590481\",\"0.0-215.0\",\"\",\"\",\"2-2\",\"4164\",\"40\",\"0\",\"Testing\",\"Stims/Figures/44-J-10-3.bmp\",\"fa:fa:sha\",\"Up\",\"38\",\"3\",\"19\",\"3A\",\"C1\",\"C\",\"67\"
\"\",\"\",\"approach-retreat\",\"216\",\"1596282\",\"0.0-216.0\",\"\",\"\",\"2-2\",\"4291\",\"38\",\"1\",\"Testing\",\"Stims/Figures/144-C-30-3.bmp\",\"zahaha\",\"Down\",\"38\",\"3\",\"20\",\"3A\",\"C2\",\"C\",\"68\"
\"\",\"\",\"approach-retreat\",\"217\",\"1604115\",\"0.0-217.0\",\"\",\"\",\"2-2\",\"6329\",\"40\",\"0\",\"Testing\",\"Stims/Figures/74-J-10-4.bmp\",\"fa:fa:sha\",\"Up\",\"38\",\"3\",\"21\",\"3A\",\"C1\",\"C\",\"69\"
\"\",\"\",\"approach-retreat\",\"218\",\"1609869\",\"0.0-218.0\",\"\",\"\",\"2-2\",\"4249\",\"40\",\"0\",\"Testing\",\"Stims/Figures/84-J-0-2.bmp\",\"fa:fa:sha\",\"Up\",\"38\",\"3\",\"22\",\"3A\",\"C1\",\"C\",\"70\"
\"\",\"\",\"approach-retreat\",\"219\",\"1616299\",\"0.0-219.0\",\"\",\"\",\"2-2\",\"4918\",\"39\",\"1\",\"Testing\",\"Stims/Figures/144-J-10-3.bmp\",\"fa:fa:sha\",\"Right\",\"39\",\"3\",\"23\",\"3A\",\"C1\",\"C\",\"71\"
\"\",\"\",\"approach-retreat\",\"220\",\"1622022\",\"0.0-220.0\",\"\",\"\",\"2-2\",\"4216\",\"39\",\"0\",\"Testing\",\"Stims/Figures/86-C-30-1.bmp\",\"zahaha\",\"Right\",\"37\",\"3\",\"24\",\"3A\",\"C2\",\"C\",\"72\"
\"\",\"\",\"approach-retreat\",\"221\",\"1628005\",\"0.0-221.0\",\"\",\"\",\"2-2\",\"4477\",\"40\",\"1\",\"Testing\",\"Stims/Figures/19-C-20-4.bmp\",\"zahaha\",\"Up\",\"40\",\"4\",\"1\",\"3A\",\"C2\",\"C\",\"73\"
\"\",\"\",\"approach-retreat\",\"222\",\"1633653\",\"0.0-222.0\",\"\",\"\",\"2-2\",\"4135\",\"37\",\"1\",\"Testing\",\"Stims/Figures/74-C-20-4.bmp\",\"zahaha\",\"Right\",\"37\",\"4\",\"2\",\"3A\",\"C2\",\"C\",\"74\"
\"\",\"\",\"approach-retreat\",\"223\",\"1639576\",\"0.0-223.0\",\"\",\"\",\"2-2\",\"4408\",\"37\",\"1\",\"Testing\",\"Stims/Figures/86-C-30-1.bmp\",\"zahaha\",\"Right\",\"37\",\"4\",\"3\",\"3A\",\"C2\",\"C\",\"75\"
\"\",\"\",\"approach-retreat\",\"224\",\"1646251\",\"0.0-224.0\",\"\",\"\",\"2-2\",\"5165\",\"38\",\"0\",\"Testing\",\"Stims/Figures/118-J-0-2.bmp\",\"fa:fa:sha\",\"Down\",\"40\",\"4\",\"4\",\"3A\",\"C1\",\"C\",\"76\"
\"\",\"\",\"approach-retreat\",\"225\",\"1651905\",\"0.0-225.0\",\"\",\"\",\"2-2\",\"4137\",\"40\",\"0\",\"Testing\",\"Stims/Figures/44-J-10-3.bmp\",\"fa:fa:sha\",\"Up\",\"38\",\"4\",\"5\",\"3A\",\"C1\",\"C\",\"77\"
\"\",\"\",\"approach-retreat\",\"226\",\"1657580\",\"0.0-226.0\",\"\",\"\",\"2-2\",\"4171\",\"38\",\"1\",\"Testing\",\"Stims/Figures/71-C-30-1.bmp\",\"zahaha\",\"Down\",\"38\",\"4\",\"6\",\"3A\",\"C2\",\"C\",\"78\"
\"\",\"\",\"approach-retreat\",\"227\",\"1664220\",\"0.0-227.0\",\"\",\"\",\"2-2\",\"5136\",\"37\",\"0\",\"Testing\",\"Stims/Figures/84-J-0-2.bmp\",\"fa:fa:sha\",\"Right\",\"39\",\"4\",\"7\",\"3A\",\"C1\",\"C\",\"79\"
\"\",\"\",\"approach-retreat\",\"228\",\"1670304\",\"0.0-228.0\",\"\",\"\",\"2-2\",\"4578\",\"39\",\"0\",\"Testing\",\"Stims/Figures/102-J-10-4.bmp\",\"fa:fa:sha\",\"Left\",\"37\",\"4\",\"8\",\"3A\",\"C1\",\"C\",\"80\"
\"\",\"\",\"approach-retreat\",\"229\",\"1675951\",\"0.0-229.0\",\"\",\"\",\"2-2\",\"4141\",\"40\",\"1\",\"Testing\",\"Stims/Figures/86-J-0-1.bmp\",\"fa:fa:sha\",\"Down\",\"40\",\"4\",\"9\",\"3A\",\"C1\",\"C\",\"81\"
\"\",\"\",\"approach-retreat\",\"230\",\"1682181\",\"0.0-230.0\",\"\",\"\",\"2-2\",\"4725\",\"40\",\"0\",\"Testing\",\"Stims/Figures/144-J-10-3.bmp\",\"fa:fa:sha\",\"Up\",\"38\",\"4\",\"10\",\"3A\",\"C1\",\"C\",\"82\"
\"\",\"\",\"approach-retreat\",\"231\",\"1689110\",\"0.0-231.0\",\"\",\"\",\"2-2\",\"5423\",\"39\",\"0\",\"Testing\",\"Stims/Figures/74-J-10-4.bmp\",\"fa:fa:sha\",\"Left\",\"37\",\"4\",\"11\",\"3A\",\"C1\",\"C\",\"83\"
\"\",\"\",\"approach-retreat\",\"232\",\"1695775\",\"0.0-232.0\",\"\",\"\",\"2-2\",\"5151\",\"39\",\"1\",\"Testing\",\"Stims/Figures/144-C-30-3.bmp\",\"zahaha\",\"Left\",\"39\",\"4\",\"12\",\"3A\",\"C2\",\"C\",\"84\"
\"\",\"\",\"approach-retreat\",\"233\",\"1702030\",\"0.0-233.0\",\"\",\"\",\"2-2\",\"4749\",\"38\",\"1\",\"Testing\",\"Stims/Figures/102-C-20-4.bmp\",\"zahaha\",\"Down\",\"38\",\"4\",\"13\",\"3A\",\"C2\",\"C\",\"85\"
\"\",\"\",\"approach-retreat\",\"234\",\"1709295\",\"0.0-234.0\",\"\",\"\",\"2-2\",\"5751\",\"37\",\"1\",\"Testing\",\"Stims/Figures/84-C-20-2.bmp\",\"zahaha\",\"Right\",\"37\",\"4\",\"14\",\"3A\",\"C2\",\"C\",\"86\"
\"\",\"\",\"approach-retreat\",\"235\",\"1715471\",\"0.0-235.0\",\"\",\"\",\"2-2\",\"4668\",\"37\",\"1\",\"Testing\",\"Stims/Figures/94-J-0-2.bmp\",\"fa:fa:sha\",\"Left\",\"37\",\"4\",\"15\",\"3A\",\"C1\",\"C\",\"87\"
\"\",\"\",\"approach-retreat\",\"236\",\"1721370\",\"0.0-236.0\",\"\",\"\",\"2-2\",\"4389\",\"38\",\"1\",\"Testing\",\"Stims/Figures/94-C-20-2.bmp\",\"zahaha\",\"Down\",\"38\",\"4\",\"16\",\"3A\",\"C2\",\"C\",\"88\"
\"\",\"\",\"approach-retreat\",\"237\",\"1729959\",\"0.0-237.0\",\"\",\"\",\"2-2\",\"7083\",\"39\",\"0\",\"Testing\",\"Stims/Figures/93-C-30-1.bmp\",\"zahaha\",\"Right\",\"37\",\"4\",\"17\",\"3A\",\"C2\",\"C\",\"89\"
\"\",\"\",\"approach-retreat\",\"238\",\"1737631\",\"0.0-238.0\",\"\",\"\",\"2-2\",\"6166\",\"38\",\"1\",\"Testing\",\"Stims/Figures/71-J-0-1.bmp\",\"fa:fa:sha\",\"Up\",\"38\",\"4\",\"18\",\"3A\",\"C1\",\"C\",\"90\"
\"\",\"\",\"approach-retreat\",\"239\",\"1744490\",\"0.0-239.0\",\"\",\"\",\"2-2\",\"5357\",\"40\",\"0\",\"Testing\",\"Stims/Figures/100-J-10-3.bmp\",\"fa:fa:sha\",\"Up\",\"38\",\"4\",\"19\",\"3A\",\"C1\",\"C\",\"91\"
\"\",\"\",\"approach-retreat\",\"240\",\"1751735\",\"0.0-240.0\",\"\",\"\",\"2-2\",\"5729\",\"38\",\"1\",\"Testing\",\"Stims/Figures/19-J-10-4.bmp\",\"fa:fa:sha\",\"Up\",\"38\",\"4\",\"20\",\"3A\",\"C1\",\"C\",\"92\"
\"\",\"\",\"approach-retreat\",\"241\",\"1757370\",\"0.0-241.0\",\"\",\"\",\"2-2\",\"4126\",\"37\",\"1\",\"Testing\",\"Stims/Figures/100-C-30-3.bmp\",\"zahaha\",\"Right\",\"37\",\"4\",\"21\",\"3A\",\"C2\",\"C\",\"93\"
\"\",\"\",\"approach-retreat\",\"242\",\"1767385\",\"0.0-242.0\",\"\",\"\",\"2-2\",\"8498\",\"39\",\"0\",\"Testing\",\"Stims/Figures/93-J-0-1.bmp\",\"fa:fa:sha\",\"Left\",\"37\",\"4\",\"22\",\"3A\",\"C1\",\"C\",\"94\"
\"\",\"\",\"approach-retreat\",\"243\",\"1773166\",\"0.0-243.0\",\"\",\"\",\"2-2\",\"4275\",\"38\",\"1\",\"Testing\",\"Stims/Figures/44-C-30-3.bmp\",\"zahaha\",\"Down\",\"38\",\"4\",\"23\",\"3A\",\"C2\",\"C\",\"95\"
\"\",\"\",\"approach-retreat\",\"244\",\"1779705\",\"0.0-244.0\",\"\",\"\",\"2-2\",\"5023\",\"39\",\"1\",\"Testing\",\"Stims/Figures/118-C-20-2.bmp\",\"zahaha\",\"Left\",\"39\",\"4\",\"24\",\"3A\",\"C2\",\"C\",\"96\"
\"43073\",\"\",\"survey-text\",\"245\",\"1822787\",\"0.0-245.0\",\"\",\"{\"\"Q0\"\":\"\"PS150213\"\"}\",\"\",\"\",\"\",\"\",\"\",\"\",\"\",\"\",\"\",\"\",\"\",\"\",\"\",\"\",\"\"
