\"rt\",\"key_press\",\"trial_type\",\"trial_index\",\"time_elapsed\",\"internal_node_id\",\"view_history\",\"responses\",\"Id\",\"Rt\",\"ResKeyCode\",\"ResCorr\",\"TrialType2\",\"Image\",\"Label\",\"Location\",\"CorrectResponse\",\"Block\",\"BlockTrial\",\"Condition\",\"LabelType\",\"Subcondition\",\"trialNum\"
\"115532\",\"32\",\"text\",\"0\",\"115534\",\"0.0-0.0-0.0\",\"\",\"\",\"\",\"\",\"\",\"\",\"\",\"\",\"\",\"\",\"\",\"\",\"\",\"\",\"\",\"\",\"\"
\"90881\",\"\",\"instructions\",\"1\",\"206416\",\"0.0-1.0\",\"[{\"\"page_index\"\":0,\"\"viewing_time\"\":90881}]\",\"\",\"\",\"\",\"\",\"\",\"\",\"\",\"\",\"\",\"\",\"\",\"\",\"\",\"\",\"\",\"\"
\"57827\",\"\",\"survey-multi-choice\",\"2\",\"264258\",\"0.0-2.0\",\"\",\"{\"\"Q0\"\":\"\"Da\"\",\"\"Q1\"\":\"\"Da\"\",\"\"Q2\"\":\"\"Da\"\",\"\"Q3\"\":\"\"Da\"\",\"\"Q4\"\":\"\"Da\"\",\"\"Q5\"\":\"\"Da\"\"}\",\"\",\"\",\"\",\"\",\"\",\"\",\"\",\"\",\"\",\"\",\"\",\"\",\"\",\"\",\"\"
\"\",\"\",\"bio\",\"3\",\"276944\",\"0.0-3.0\",\"\",\"{\"\"age\"\":\"\"20\"\",\"\"gender\"\":\"\"f\"\",\"\"specify\"\":\"\"\"\"}\",\"\",\"\",\"\",\"\",\"\",\"\",\"\",\"\",\"\",\"\",\"\",\"\",\"\",\"\",\"\"
\"\",\"\",\"approach-retreat\",\"4\",\"294364\",\"0.0-4.0\",\"\",\"\",\"1-1\",\"15915\",\"38\",\"1\",\"Training\",\"Stims/Figures/27-C-30-1.bmp\",\"zasaha\",\"Up\",\"38\",\"1\",\"1\",\"3A\",\"C2\",\"J\",\"1\"
\"\",\"\",\"approach-retreat\",\"5\",\"304143\",\"0.0-5.0\",\"\",\"\",\"1-1\",\"8275\",\"40\",\"1\",\"Training\",\"Stims/Figures/139-C-20-2.bmp\",\"zasaha\",\"Down\",\"40\",\"1\",\"2\",\"3A\",\"C2\",\"J\",\"2\"
\"\",\"\",\"approach-retreat\",\"6\",\"313223\",\"0.0-6.0\",\"\",\"\",\"1-1\",\"7576\",\"39\",\"1\",\"Training\",\"Stims/Figures/118-C-20-2.bmp\",\"zasaha\",\"Right\",\"39\",\"1\",\"3\",\"3A\",\"C2\",\"J\",\"3\"
\"\",\"\",\"approach-retreat\",\"7\",\"320986\",\"0.0-7.0\",\"\",\"\",\"1-1\",\"6260\",\"37\",\"0\",\"Training\",\"Stims/Figures/139-J-0-2.bmp\",\"fa:fasha\",\"Left\",\"39\",\"1\",\"4\",\"3A\",\"C1\",\"J\",\"4\"
\"\",\"\",\"approach-retreat\",\"8\",\"327895\",\"0.0-8.0\",\"\",\"\",\"1-1\",\"5406\",\"38\",\"1\",\"Training\",\"Stims/Figures/87-J-10-4.bmp\",\"fa:fasha\",\"Down\",\"38\",\"1\",\"5\",\"3A\",\"C1\",\"J\",\"5\"
\"\",\"\",\"approach-retreat\",\"9\",\"336260\",\"0.0-9.0\",\"\",\"\",\"1-1\",\"6862\",\"37\",\"1\",\"Training\",\"Stims/Figures/144-J-10-3.bmp\",\"fa:fasha\",\"Right\",\"37\",\"1\",\"6\",\"3A\",\"C1\",\"J\",\"6\"
\"\",\"\",\"approach-retreat\",\"10\",\"343929\",\"0.0-10.0\",\"\",\"\",\"1-1\",\"6165\",\"39\",\"1\",\"Training\",\"Stims/Figures/93-C-30-1.bmp\",\"zasaha\",\"Right\",\"39\",\"1\",\"7\",\"3A\",\"C2\",\"J\",\"7\"
\"\",\"\",\"approach-retreat\",\"11\",\"354407\",\"0.0-11.0\",\"\",\"\",\"1-1\",\"8974\",\"40\",\"1\",\"Training\",\"Stims/Figures/144-C-30-3.bmp\",\"zasaha\",\"Down\",\"40\",\"1\",\"8\",\"3A\",\"C2\",\"J\",\"8\"
\"\",\"\",\"approach-retreat\",\"12\",\"362321\",\"0.0-12.0\",\"\",\"\",\"1-1\",\"6409\",\"39\",\"1\",\"Training\",\"Stims/Figures/44-J-10-3.bmp\",\"fa:fasha\",\"Left\",\"39\",\"1\",\"9\",\"3A\",\"C1\",\"J\",\"9\"
\"\",\"\",\"approach-retreat\",\"13\",\"368598\",\"0.0-13.0\",\"\",\"\",\"1-1\",\"4775\",\"38\",\"1\",\"Training\",\"Stims/Figures/102-C-20-4.bmp\",\"zasaha\",\"Up\",\"38\",\"1\",\"10\",\"3A\",\"C2\",\"J\",\"10\"
\"\",\"\",\"approach-retreat\",\"14\",\"377706\",\"0.0-14.0\",\"\",\"\",\"1-1\",\"7604\",\"40\",\"1\",\"Training\",\"Stims/Figures/118-J-0-2.bmp\",\"fa:fasha\",\"Up\",\"40\",\"1\",\"11\",\"3A\",\"C1\",\"J\",\"11\"
\"\",\"\",\"approach-retreat\",\"15\",\"384305\",\"0.0-15.0\",\"\",\"\",\"1-1\",\"5095\",\"38\",\"1\",\"Training\",\"Stims/Figures/93-J-0-1.bmp\",\"fa:fasha\",\"Down\",\"38\",\"1\",\"12\",\"3A\",\"C1\",\"J\",\"12\"
\"\",\"\",\"approach-retreat\",\"16\",\"390937\",\"0.0-16.0\",\"\",\"\",\"1-1\",\"5129\",\"39\",\"1\",\"Training\",\"Stims/Figures/102-J-10-4.bmp\",\"fa:fasha\",\"Left\",\"39\",\"1\",\"13\",\"3A\",\"C1\",\"J\",\"13\"
\"\",\"\",\"approach-retreat\",\"17\",\"397530\",\"0.0-17.0\",\"\",\"\",\"1-1\",\"5090\",\"39\",\"0\",\"Training\",\"Stims/Figures/87-C-20-4.bmp\",\"zasaha\",\"Left\",\"37\",\"1\",\"14\",\"3A\",\"C2\",\"J\",\"14\"
\"\",\"\",\"approach-retreat\",\"18\",\"410211\",\"0.0-18.0\",\"\",\"\",\"1-1\",\"11178\",\"40\",\"1\",\"Training\",\"Stims/Figures/27-J-0-1.bmp\",\"fa:fasha\",\"Up\",\"40\",\"1\",\"15\",\"3A\",\"C1\",\"J\",\"15\"
\"\",\"\",\"approach-retreat\",\"19\",\"416465\",\"0.0-19.0\",\"\",\"\",\"1-1\",\"4751\",\"39\",\"1\",\"Training\",\"Stims/Figures/44-C-30-3.bmp\",\"zasaha\",\"Right\",\"39\",\"1\",\"16\",\"3A\",\"C2\",\"J\",\"16\"
\"\",\"\",\"approach-retreat\",\"20\",\"422201\",\"0.0-20.0\",\"\",\"\",\"1-1\",\"4233\",\"38\",\"1\",\"Training\",\"Stims/Figures/139-C-20-2.bmp\",\"zasaha\",\"Up\",\"38\",\"2\",\"1\",\"3A\",\"C2\",\"J\",\"17\"
\"\",\"\",\"approach-retreat\",\"21\",\"428386\",\"0.0-21.0\",\"\",\"\",\"1-1\",\"4681\",\"40\",\"1\",\"Training\",\"Stims/Figures/93-C-30-1.bmp\",\"zasaha\",\"Down\",\"40\",\"2\",\"2\",\"3A\",\"C2\",\"J\",\"18\"
\"\",\"\",\"approach-retreat\",\"22\",\"434635\",\"0.0-22.0\",\"\",\"\",\"1-1\",\"4745\",\"40\",\"0\",\"Training\",\"Stims/Figures/93-J-0-1.bmp\",\"fa:fasha\",\"Down\",\"38\",\"2\",\"3\",\"3A\",\"C1\",\"J\",\"19\"
\"\",\"\",\"approach-retreat\",\"23\",\"440968\",\"0.0-23.0\",\"\",\"\",\"1-1\",\"4831\",\"38\",\"1\",\"Training\",\"Stims/Figures/118-J-0-2.bmp\",\"fa:fasha\",\"Down\",\"38\",\"2\",\"4\",\"3A\",\"C1\",\"J\",\"20\"
\"\",\"\",\"approach-retreat\",\"24\",\"447230\",\"0.0-24.0\",\"\",\"\",\"1-1\",\"4758\",\"37\",\"1\",\"Training\",\"Stims/Figures/102-J-10-4.bmp\",\"fa:fasha\",\"Right\",\"37\",\"2\",\"5\",\"3A\",\"C1\",\"J\",\"21\"
\"\",\"\",\"approach-retreat\",\"25\",\"453659\",\"0.0-25.0\",\"\",\"\",\"1-1\",\"4927\",\"40\",\"1\",\"Training\",\"Stims/Figures/44-J-10-3.bmp\",\"fa:fasha\",\"Up\",\"40\",\"2\",\"6\",\"3A\",\"C1\",\"J\",\"22\"
\"\",\"\",\"approach-retreat\",\"26\",\"460331\",\"0.0-26.0\",\"\",\"\",\"1-1\",\"5169\",\"38\",\"1\",\"Training\",\"Stims/Figures/87-C-20-4.bmp\",\"zasaha\",\"Up\",\"38\",\"2\",\"7\",\"3A\",\"C2\",\"J\",\"23\"
\"\",\"\",\"approach-retreat\",\"27\",\"467036\",\"0.0-27.0\",\"\",\"\",\"1-1\",\"5201\",\"40\",\"1\",\"Training\",\"Stims/Figures/144-C-30-3.bmp\",\"zasaha\",\"Down\",\"40\",\"2\",\"8\",\"3A\",\"C2\",\"J\",\"24\"
\"\",\"\",\"approach-retreat\",\"28\",\"472931\",\"0.0-28.0\",\"\",\"\",\"1-1\",\"4390\",\"37\",\"1\",\"Training\",\"Stims/Figures/27-C-30-1.bmp\",\"zasaha\",\"Left\",\"37\",\"2\",\"9\",\"3A\",\"C2\",\"J\",\"25\"
\"\",\"\",\"approach-retreat\",\"29\",\"478840\",\"0.0-29.0\",\"\",\"\",\"1-1\",\"4406\",\"37\",\"1\",\"Training\",\"Stims/Figures/102-C-20-4.bmp\",\"zasaha\",\"Left\",\"37\",\"2\",\"10\",\"3A\",\"C2\",\"J\",\"26\"
\"\",\"\",\"approach-retreat\",\"30\",\"487000\",\"0.0-30.0\",\"\",\"\",\"1-1\",\"6657\",\"37\",\"1\",\"Training\",\"Stims/Figures/139-J-0-2.bmp\",\"fa:fasha\",\"Right\",\"37\",\"2\",\"11\",\"3A\",\"C1\",\"J\",\"27\"
\"\",\"\",\"approach-retreat\",\"31\",\"493345\",\"0.0-31.0\",\"\",\"\",\"1-1\",\"4841\",\"40\",\"1\",\"Training\",\"Stims/Figures/87-J-10-4.bmp\",\"fa:fasha\",\"Up\",\"40\",\"2\",\"12\",\"3A\",\"C1\",\"J\",\"28\"
\"\",\"\",\"approach-retreat\",\"32\",\"500634\",\"0.0-32.0\",\"\",\"\",\"1-1\",\"5786\",\"39\",\"1\",\"Training\",\"Stims/Figures/27-J-0-1.bmp\",\"fa:fasha\",\"Left\",\"39\",\"2\",\"13\",\"3A\",\"C1\",\"J\",\"29\"
\"\",\"\",\"approach-retreat\",\"33\",\"507201\",\"0.0-33.0\",\"\",\"\",\"1-1\",\"5063\",\"39\",\"1\",\"Training\",\"Stims/Figures/44-C-30-3.bmp\",\"zasaha\",\"Right\",\"39\",\"2\",\"14\",\"3A\",\"C2\",\"J\",\"30\"
\"\",\"\",\"approach-retreat\",\"34\",\"514578\",\"0.0-34.0\",\"\",\"\",\"1-1\",\"5873\",\"37\",\"1\",\"Training\",\"Stims/Figures/144-J-10-3.bmp\",\"fa:fasha\",\"Right\",\"37\",\"2\",\"15\",\"3A\",\"C1\",\"J\",\"31\"
\"\",\"\",\"approach-retreat\",\"35\",\"520985\",\"0.0-35.0\",\"\",\"\",\"1-1\",\"4902\",\"37\",\"1\",\"Training\",\"Stims/Figures/118-C-20-2.bmp\",\"zasaha\",\"Left\",\"37\",\"2\",\"16\",\"3A\",\"C2\",\"J\",\"32\"
\"\",\"\",\"approach-retreat\",\"36\",\"529044\",\"0.0-36.0\",\"\",\"\",\"1-1\",\"6557\",\"39\",\"1\",\"Training\",\"Stims/Figures/144-C-30-3.bmp\",\"zasaha\",\"Right\",\"39\",\"3\",\"1\",\"3A\",\"C2\",\"J\",\"33\"
\"\",\"\",\"approach-retreat\",\"37\",\"535996\",\"0.0-37.0\",\"\",\"\",\"1-1\",\"5448\",\"38\",\"1\",\"Training\",\"Stims/Figures/27-C-30-1.bmp\",\"zasaha\",\"Up\",\"38\",\"3\",\"2\",\"3A\",\"C2\",\"J\",\"34\"
\"\",\"\",\"approach-retreat\",\"38\",\"544021\",\"0.0-38.0\",\"\",\"\",\"1-1\",\"6522\",\"38\",\"1\",\"Training\",\"Stims/Figures/93-J-0-1.bmp\",\"fa:fasha\",\"Down\",\"38\",\"3\",\"3\",\"3A\",\"C1\",\"J\",\"35\"
\"\",\"\",\"approach-retreat\",\"39\",\"550748\",\"0.0-39.0\",\"\",\"\",\"1-1\",\"5223\",\"37\",\"1\",\"Training\",\"Stims/Figures/87-C-20-4.bmp\",\"zasaha\",\"Left\",\"37\",\"3\",\"4\",\"3A\",\"C2\",\"J\",\"36\"
\"\",\"\",\"approach-retreat\",\"40\",\"558490\",\"0.0-40.0\",\"\",\"\",\"1-1\",\"6240\",\"39\",\"1\",\"Training\",\"Stims/Figures/139-J-0-2.bmp\",\"fa:fasha\",\"Left\",\"39\",\"3\",\"5\",\"3A\",\"C1\",\"J\",\"37\"
\"\",\"\",\"approach-retreat\",\"41\",\"565974\",\"0.0-41.0\",\"\",\"\",\"1-1\",\"5981\",\"40\",\"1\",\"Training\",\"Stims/Figures/139-C-20-2.bmp\",\"zasaha\",\"Down\",\"40\",\"3\",\"6\",\"3A\",\"C2\",\"J\",\"38\"
\"\",\"\",\"approach-retreat\",\"42\",\"572728\",\"0.0-42.0\",\"\",\"\",\"1-1\",\"5251\",\"38\",\"1\",\"Training\",\"Stims/Figures/102-J-10-4.bmp\",\"fa:fasha\",\"Down\",\"38\",\"3\",\"7\",\"3A\",\"C1\",\"J\",\"39\"
\"\",\"\",\"approach-retreat\",\"43\",\"579607\",\"0.0-43.0\",\"\",\"\",\"1-1\",\"5377\",\"38\",\"1\",\"Training\",\"Stims/Figures/27-J-0-1.bmp\",\"fa:fasha\",\"Down\",\"38\",\"3\",\"8\",\"3A\",\"C1\",\"J\",\"40\"
\"\",\"\",\"approach-retreat\",\"44\",\"586248\",\"0.0-44.0\",\"\",\"\",\"1-1\",\"5137\",\"39\",\"1\",\"Training\",\"Stims/Figures/118-J-0-2.bmp\",\"fa:fasha\",\"Left\",\"39\",\"3\",\"9\",\"3A\",\"C1\",\"J\",\"41\"
\"\",\"\",\"approach-retreat\",\"45\",\"593004\",\"0.0-45.0\",\"\",\"\",\"1-1\",\"5254\",\"40\",\"1\",\"Training\",\"Stims/Figures/144-J-10-3.bmp\",\"fa:fasha\",\"Up\",\"40\",\"3\",\"10\",\"3A\",\"C1\",\"J\",\"42\"
\"\",\"\",\"approach-retreat\",\"46\",\"599581\",\"0.0-46.0\",\"\",\"\",\"1-1\",\"5073\",\"37\",\"1\",\"Training\",\"Stims/Figures/93-C-30-1.bmp\",\"zasaha\",\"Left\",\"37\",\"3\",\"11\",\"3A\",\"C2\",\"J\",\"43\"
\"\",\"\",\"approach-retreat\",\"47\",\"607706\",\"0.0-47.0\",\"\",\"\",\"1-1\",\"6621\",\"40\",\"1\",\"Training\",\"Stims/Figures/87-J-10-4.bmp\",\"fa:fasha\",\"Up\",\"40\",\"3\",\"12\",\"3A\",\"C1\",\"J\",\"44\"
\"\",\"\",\"approach-retreat\",\"48\",\"614572\",\"0.0-48.0\",\"\",\"\",\"1-1\",\"5364\",\"38\",\"1\",\"Training\",\"Stims/Figures/44-C-30-3.bmp\",\"zasaha\",\"Up\",\"38\",\"3\",\"13\",\"3A\",\"C2\",\"J\",\"45\"
\"\",\"\",\"approach-retreat\",\"49\",\"620747\",\"0.0-49.0\",\"\",\"\",\"1-1\",\"4672\",\"39\",\"1\",\"Training\",\"Stims/Figures/118-C-20-2.bmp\",\"zasaha\",\"Right\",\"39\",\"3\",\"14\",\"3A\",\"C2\",\"J\",\"46\"
\"\",\"\",\"approach-retreat\",\"50\",\"628385\",\"0.0-50.0\",\"\",\"\",\"1-1\",\"6135\",\"39\",\"1\",\"Training\",\"Stims/Figures/102-C-20-4.bmp\",\"zasaha\",\"Right\",\"39\",\"3\",\"15\",\"3A\",\"C2\",\"J\",\"47\"
\"\",\"\",\"approach-retreat\",\"51\",\"637118\",\"0.0-51.0\",\"\",\"\",\"1-1\",\"7231\",\"37\",\"1\",\"Training\",\"Stims/Figures/44-J-10-3.bmp\",\"fa:fasha\",\"Right\",\"37\",\"3\",\"16\",\"3A\",\"C1\",\"J\",\"48\"
\"\",\"\",\"approach-retreat\",\"52\",\"644194\",\"0.0-52.0\",\"\",\"\",\"1-1\",\"5572\",\"40\",\"1\",\"Training\",\"Stims/Figures/27-C-30-1.bmp\",\"zasaha\",\"Down\",\"40\",\"4\",\"1\",\"3A\",\"C2\",\"J\",\"49\"
\"\",\"\",\"approach-retreat\",\"53\",\"651359\",\"0.0-53.0\",\"\",\"\",\"1-1\",\"5662\",\"37\",\"1\",\"Training\",\"Stims/Figures/118-J-0-2.bmp\",\"fa:fasha\",\"Right\",\"37\",\"4\",\"2\",\"3A\",\"C1\",\"J\",\"50\"
\"\",\"\",\"approach-retreat\",\"54\",\"657380\",\"0.0-54.0\",\"\",\"\",\"1-1\",\"4518\",\"40\",\"1\",\"Training\",\"Stims/Figures/93-J-0-1.bmp\",\"fa:fasha\",\"Up\",\"40\",\"4\",\"3\",\"3A\",\"C1\",\"J\",\"51\"
\"\",\"\",\"approach-retreat\",\"55\",\"665206\",\"0.0-55.0\",\"\",\"\",\"1-1\",\"6323\",\"39\",\"1\",\"Training\",\"Stims/Figures/102-J-10-4.bmp\",\"fa:fasha\",\"Left\",\"39\",\"4\",\"4\",\"3A\",\"C1\",\"J\",\"52\"
\"\",\"\",\"approach-retreat\",\"56\",\"671390\",\"0.0-56.0\",\"\",\"\",\"1-1\",\"4681\",\"37\",\"1\",\"Training\",\"Stims/Figures/93-C-30-1.bmp\",\"zasaha\",\"Left\",\"37\",\"4\",\"5\",\"3A\",\"C2\",\"J\",\"53\"
\"\",\"\",\"approach-retreat\",\"57\",\"678067\",\"0.0-57.0\",\"\",\"\",\"1-1\",\"5173\",\"37\",\"1\",\"Training\",\"Stims/Figures/27-J-0-1.bmp\",\"fa:fasha\",\"Right\",\"37\",\"4\",\"6\",\"3A\",\"C1\",\"J\",\"54\"
\"\",\"\",\"approach-retreat\",\"58\",\"687687\",\"0.0-58.0\",\"\",\"\",\"1-1\",\"8116\",\"37\",\"1\",\"Training\",\"Stims/Figures/102-C-20-4.bmp\",\"zasaha\",\"Left\",\"37\",\"4\",\"7\",\"3A\",\"C2\",\"J\",\"55\"
\"\",\"\",\"approach-retreat\",\"59\",\"694422\",\"0.0-59.0\",\"\",\"\",\"1-1\",\"5233\",\"39\",\"1\",\"Training\",\"Stims/Figures/139-C-20-2.bmp\",\"zasaha\",\"Right\",\"39\",\"4\",\"8\",\"3A\",\"C2\",\"J\",\"56\"
\"\",\"\",\"approach-retreat\",\"60\",\"701041\",\"0.0-60.0\",\"\",\"\",\"1-1\",\"5116\",\"38\",\"1\",\"Training\",\"Stims/Figures/144-J-10-3.bmp\",\"fa:fasha\",\"Down\",\"38\",\"4\",\"9\",\"3A\",\"C1\",\"J\",\"57\"
\"\",\"\",\"approach-retreat\",\"61\",\"708192\",\"0.0-61.0\",\"\",\"\",\"1-1\",\"5647\",\"40\",\"1\",\"Training\",\"Stims/Figures/44-C-30-3.bmp\",\"zasaha\",\"Down\",\"40\",\"4\",\"10\",\"3A\",\"C2\",\"J\",\"58\"
\"\",\"\",\"approach-retreat\",\"62\",\"714680\",\"0.0-62.0\",\"\",\"\",\"1-1\",\"4986\",\"39\",\"1\",\"Training\",\"Stims/Figures/87-J-10-4.bmp\",\"fa:fasha\",\"Left\",\"39\",\"4\",\"11\",\"3A\",\"C1\",\"J\",\"59\"
\"\",\"\",\"approach-retreat\",\"63\",\"721278\",\"0.0-63.0\",\"\",\"\",\"1-1\",\"5095\",\"40\",\"1\",\"Training\",\"Stims/Figures/139-J-0-2.bmp\",\"fa:fasha\",\"Up\",\"40\",\"4\",\"12\",\"3A\",\"C1\",\"J\",\"60\"
\"\",\"\",\"approach-retreat\",\"64\",\"727713\",\"0.0-64.0\",\"\",\"\",\"1-1\",\"4930\",\"38\",\"1\",\"Training\",\"Stims/Figures/44-J-10-3.bmp\",\"fa:fasha\",\"Down\",\"38\",\"4\",\"13\",\"3A\",\"C1\",\"J\",\"61\"
\"\",\"\",\"approach-retreat\",\"65\",\"736256\",\"0.0-65.0\",\"\",\"\",\"1-1\",\"7039\",\"38\",\"1\",\"Training\",\"Stims/Figures/144-C-30-3.bmp\",\"zasaha\",\"Up\",\"38\",\"4\",\"14\",\"3A\",\"C2\",\"J\",\"62\"
\"\",\"\",\"approach-retreat\",\"66\",\"742349\",\"0.0-66.0\",\"\",\"\",\"1-1\",\"4590\",\"38\",\"1\",\"Training\",\"Stims/Figures/118-C-20-2.bmp\",\"zasaha\",\"Up\",\"38\",\"4\",\"15\",\"3A\",\"C2\",\"J\",\"63\"
\"\",\"\",\"approach-retreat\",\"67\",\"748464\",\"0.0-67.0\",\"\",\"\",\"1-1\",\"4610\",\"39\",\"1\",\"Training\",\"Stims/Figures/87-C-20-4.bmp\",\"zasaha\",\"Right\",\"39\",\"4\",\"16\",\"3A\",\"C2\",\"J\",\"64\"
\"\",\"\",\"approach-retreat\",\"68\",\"754778\",\"0.0-68.0\",\"\",\"\",\"1-1\",\"4812\",\"40\",\"1\",\"Training\",\"Stims/Figures/144-C-30-3.bmp\",\"zasaha\",\"Down\",\"40\",\"5\",\"1\",\"3A\",\"C2\",\"J\",\"65\"
\"\",\"\",\"approach-retreat\",\"69\",\"761683\",\"0.0-69.0\",\"\",\"\",\"1-1\",\"5400\",\"38\",\"1\",\"Training\",\"Stims/Figures/44-J-10-3.bmp\",\"fa:fasha\",\"Down\",\"38\",\"5\",\"2\",\"3A\",\"C1\",\"J\",\"66\"
\"\",\"\",\"approach-retreat\",\"70\",\"768749\",\"0.0-70.0\",\"\",\"\",\"1-1\",\"5561\",\"39\",\"1\",\"Training\",\"Stims/Figures/102-C-20-4.bmp\",\"zasaha\",\"Right\",\"39\",\"5\",\"3\",\"3A\",\"C2\",\"J\",\"67\"
\"\",\"\",\"approach-retreat\",\"71\",\"774714\",\"0.0-71.0\",\"\",\"\",\"1-1\",\"4464\",\"40\",\"1\",\"Training\",\"Stims/Figures/139-J-0-2.bmp\",\"fa:fasha\",\"Up\",\"40\",\"5\",\"4\",\"3A\",\"C1\",\"J\",\"68\"
\"\",\"\",\"approach-retreat\",\"72\",\"781201\",\"0.0-72.0\",\"\",\"\",\"1-1\",\"4983\",\"39\",\"1\",\"Training\",\"Stims/Figures/27-J-0-1.bmp\",\"fa:fasha\",\"Left\",\"39\",\"5\",\"5\",\"3A\",\"C1\",\"J\",\"69\"
\"\",\"\",\"approach-retreat\",\"73\",\"787903\",\"0.0-73.0\",\"\",\"\",\"1-1\",\"5200\",\"37\",\"1\",\"Training\",\"Stims/Figures/27-C-30-1.bmp\",\"zasaha\",\"Left\",\"37\",\"5\",\"6\",\"3A\",\"C2\",\"J\",\"70\"
\"\",\"\",\"approach-retreat\",\"74\",\"797041\",\"0.0-74.0\",\"\",\"\",\"1-1\",\"7634\",\"40\",\"1\",\"Training\",\"Stims/Figures/102-J-10-4.bmp\",\"fa:fasha\",\"Up\",\"40\",\"5\",\"7\",\"3A\",\"C1\",\"J\",\"71\"
\"\",\"\",\"approach-retreat\",\"75\",\"803022\",\"0.0-75.0\",\"\",\"\",\"1-1\",\"4477\",\"40\",\"1\",\"Training\",\"Stims/Figures/118-J-0-2.bmp\",\"fa:fasha\",\"Up\",\"40\",\"5\",\"8\",\"3A\",\"C1\",\"J\",\"72\"
\"\",\"\",\"approach-retreat\",\"76\",\"809362\",\"0.0-76.0\",\"\",\"\",\"1-1\",\"4836\",\"38\",\"1\",\"Training\",\"Stims/Figures/44-C-30-3.bmp\",\"zasaha\",\"Up\",\"38\",\"5\",\"9\",\"3A\",\"C2\",\"J\",\"73\"
\"\",\"\",\"approach-retreat\",\"77\",\"818140\",\"0.0-77.0\",\"\",\"\",\"1-1\",\"7274\",\"40\",\"1\",\"Training\",\"Stims/Figures/93-C-30-1.bmp\",\"zasaha\",\"Down\",\"40\",\"5\",\"10\",\"3A\",\"C2\",\"J\",\"74\"
\"\",\"\",\"approach-retreat\",\"78\",\"824684\",\"0.0-78.0\",\"\",\"\",\"1-1\",\"5042\",\"39\",\"1\",\"Training\",\"Stims/Figures/144-J-10-3.bmp\",\"fa:fasha\",\"Left\",\"39\",\"5\",\"11\",\"3A\",\"C1\",\"J\",\"75\"
\"\",\"\",\"approach-retreat\",\"79\",\"831038\",\"0.0-79.0\",\"\",\"\",\"1-1\",\"4851\",\"37\",\"1\",\"Training\",\"Stims/Figures/118-C-20-2.bmp\",\"zasaha\",\"Left\",\"37\",\"5\",\"12\",\"3A\",\"C2\",\"J\",\"76\"
\"\",\"\",\"approach-retreat\",\"80\",\"838507\",\"0.0-80.0\",\"\",\"\",\"1-1\",\"5964\",\"39\",\"1\",\"Training\",\"Stims/Figures/139-C-20-2.bmp\",\"zasaha\",\"Right\",\"39\",\"5\",\"13\",\"3A\",\"C2\",\"J\",\"77\"
\"\",\"\",\"approach-retreat\",\"81\",\"844564\",\"0.0-81.0\",\"\",\"\",\"1-1\",\"4553\",\"37\",\"1\",\"Training\",\"Stims/Figures/87-J-10-4.bmp\",\"fa:fasha\",\"Right\",\"37\",\"5\",\"14\",\"3A\",\"C1\",\"J\",\"78\"
\"\",\"\",\"approach-retreat\",\"82\",\"850700\",\"0.0-82.0\",\"\",\"\",\"1-1\",\"4632\",\"37\",\"1\",\"Training\",\"Stims/Figures/93-J-0-1.bmp\",\"fa:fasha\",\"Right\",\"37\",\"5\",\"15\",\"3A\",\"C1\",\"J\",\"79\"
\"\",\"\",\"approach-retreat\",\"83\",\"857894\",\"0.0-83.0\",\"\",\"\",\"1-1\",\"5691\",\"40\",\"1\",\"Training\",\"Stims/Figures/87-C-20-4.bmp\",\"zasaha\",\"Down\",\"40\",\"5\",\"16\",\"3A\",\"C2\",\"J\",\"80\"
\"\",\"\",\"approach-retreat\",\"84\",\"864258\",\"0.0-84.0\",\"\",\"\",\"1-1\",\"4861\",\"40\",\"1\",\"Training\",\"Stims/Figures/93-C-30-1.bmp\",\"zasaha\",\"Down\",\"40\",\"6\",\"1\",\"3A\",\"C2\",\"J\",\"81\"
\"\",\"\",\"approach-retreat\",\"85\",\"869970\",\"0.0-85.0\",\"\",\"\",\"1-1\",\"4208\",\"37\",\"1\",\"Training\",\"Stims/Figures/102-J-10-4.bmp\",\"fa:fasha\",\"Right\",\"37\",\"6\",\"2\",\"3A\",\"C1\",\"J\",\"82\"
\"\",\"\",\"approach-retreat\",\"86\",\"875720\",\"0.0-86.0\",\"\",\"\",\"1-1\",\"4247\",\"40\",\"1\",\"Training\",\"Stims/Figures/144-J-10-3.bmp\",\"fa:fasha\",\"Up\",\"40\",\"6\",\"3\",\"3A\",\"C1\",\"J\",\"83\"
\"\",\"\",\"approach-retreat\",\"87\",\"882202\",\"0.0-87.0\",\"\",\"\",\"1-1\",\"4979\",\"38\",\"1\",\"Training\",\"Stims/Figures/102-C-20-4.bmp\",\"zasaha\",\"Up\",\"38\",\"6\",\"4\",\"3A\",\"C2\",\"J\",\"84\"
\"\",\"\",\"approach-retreat\",\"88\",\"889352\",\"0.0-88.0\",\"\",\"\",\"1-1\",\"5648\",\"40\",\"1\",\"Training\",\"Stims/Figures/27-C-30-1.bmp\",\"zasaha\",\"Down\",\"40\",\"6\",\"5\",\"3A\",\"C2\",\"J\",\"85\"
\"\",\"\",\"approach-retreat\",\"89\",\"896222\",\"0.0-89.0\",\"\",\"\",\"1-1\",\"5366\",\"40\",\"1\",\"Training\",\"Stims/Figures/87-J-10-4.bmp\",\"fa:fasha\",\"Up\",\"40\",\"6\",\"6\",\"3A\",\"C1\",\"J\",\"86\"
\"\",\"\",\"approach-retreat\",\"90\",\"902417\",\"0.0-90.0\",\"\",\"\",\"1-1\",\"4693\",\"37\",\"1\",\"Training\",\"Stims/Figures/44-J-10-3.bmp\",\"fa:fasha\",\"Right\",\"37\",\"6\",\"7\",\"3A\",\"C1\",\"J\",\"87\"
\"\",\"\",\"approach-retreat\",\"91\",\"908591\",\"0.0-91.0\",\"\",\"\",\"1-1\",\"4669\",\"39\",\"1\",\"Training\",\"Stims/Figures/27-J-0-1.bmp\",\"fa:fasha\",\"Left\",\"39\",\"6\",\"8\",\"3A\",\"C1\",\"J\",\"88\"
\"\",\"\",\"approach-retreat\",\"92\",\"914882\",\"0.0-92.0\",\"\",\"\",\"1-1\",\"4788\",\"37\",\"1\",\"Training\",\"Stims/Figures/44-C-30-3.bmp\",\"zasaha\",\"Left\",\"37\",\"6\",\"9\",\"3A\",\"C2\",\"J\",\"89\"
\"\",\"\",\"approach-retreat\",\"93\",\"921390\",\"0.0-93.0\",\"\",\"\",\"1-1\",\"5004\",\"39\",\"1\",\"Training\",\"Stims/Figures/118-J-0-2.bmp\",\"fa:fasha\",\"Left\",\"39\",\"6\",\"10\",\"3A\",\"C1\",\"J\",\"90\"
\"\",\"\",\"approach-retreat\",\"94\",\"927639\",\"0.0-94.0\",\"\",\"\",\"1-1\",\"4746\",\"40\",\"1\",\"Training\",\"Stims/Figures/93-J-0-1.bmp\",\"fa:fasha\",\"Up\",\"40\",\"6\",\"11\",\"3A\",\"C1\",\"J\",\"91\"
\"\",\"\",\"approach-retreat\",\"95\",\"934338\",\"0.0-95.0\",\"\",\"\",\"1-1\",\"5196\",\"39\",\"1\",\"Training\",\"Stims/Figures/87-C-20-4.bmp\",\"zasaha\",\"Right\",\"39\",\"6\",\"12\",\"3A\",\"C2\",\"J\",\"92\"
\"\",\"\",\"approach-retreat\",\"96\",\"940548\",\"0.0-96.0\",\"\",\"\",\"1-1\",\"4705\",\"39\",\"1\",\"Training\",\"Stims/Figures/118-C-20-2.bmp\",\"zasaha\",\"Right\",\"39\",\"6\",\"13\",\"3A\",\"C2\",\"J\",\"93\"
\"\",\"\",\"approach-retreat\",\"97\",\"947116\",\"0.0-97.0\",\"\",\"\",\"1-1\",\"5065\",\"38\",\"1\",\"Training\",\"Stims/Figures/139-J-0-2.bmp\",\"fa:fasha\",\"Down\",\"38\",\"6\",\"14\",\"3A\",\"C1\",\"J\",\"94\"
\"\",\"\",\"approach-retreat\",\"98\",\"953982\",\"0.0-98.0\",\"\",\"\",\"1-1\",\"5363\",\"37\",\"1\",\"Training\",\"Stims/Figures/139-C-20-2.bmp\",\"zasaha\",\"Left\",\"37\",\"6\",\"15\",\"3A\",\"C2\",\"J\",\"95\"
\"\",\"\",\"approach-retreat\",\"99\",\"960297\",\"0.0-99.0\",\"\",\"\",\"1-1\",\"4813\",\"40\",\"1\",\"Training\",\"Stims/Figures/144-C-30-3.bmp\",\"zasaha\",\"Down\",\"40\",\"6\",\"16\",\"3A\",\"C2\",\"J\",\"96\"
\"\",\"\",\"approach-retreat\",\"100\",\"966354\",\"0.0-100.0\",\"\",\"\",\"1-1\",\"4554\",\"38\",\"1\",\"Training\",\"Stims/Figures/93-J-0-1.bmp\",\"fa:fasha\",\"Down\",\"38\",\"7\",\"1\",\"3A\",\"C1\",\"J\",\"97\"
\"\",\"\",\"approach-retreat\",\"101\",\"973160\",\"0.0-101.0\",\"\",\"\",\"1-1\",\"5302\",\"37\",\"1\",\"Training\",\"Stims/Figures/144-C-30-3.bmp\",\"zasaha\",\"Left\",\"37\",\"7\",\"2\",\"3A\",\"C2\",\"J\",\"98\"
\"\",\"\",\"approach-retreat\",\"102\",\"979519\",\"0.0-102.0\",\"\",\"\",\"1-1\",\"4856\",\"40\",\"1\",\"Training\",\"Stims/Figures/144-J-10-3.bmp\",\"fa:fasha\",\"Up\",\"40\",\"7\",\"3\",\"3A\",\"C1\",\"J\",\"99\"
\"\",\"\",\"approach-retreat\",\"103\",\"985546\",\"0.0-103.0\",\"\",\"\",\"1-1\",\"4524\",\"39\",\"1\",\"Training\",\"Stims/Figures/87-C-20-4.bmp\",\"zasaha\",\"Right\",\"39\",\"7\",\"4\",\"3A\",\"C2\",\"J\",\"100\"
\"\",\"\",\"approach-retreat\",\"104\",\"991576\",\"0.0-104.0\",\"\",\"\",\"1-1\",\"4527\",\"37\",\"1\",\"Training\",\"Stims/Figures/118-J-0-2.bmp\",\"fa:fasha\",\"Right\",\"37\",\"7\",\"5\",\"3A\",\"C1\",\"J\",\"101\"
\"\",\"\",\"approach-retreat\",\"105\",\"997572\",\"0.0-105.0\",\"\",\"\",\"1-1\",\"4492\",\"39\",\"1\",\"Training\",\"Stims/Figures/102-C-20-4.bmp\",\"zasaha\",\"Right\",\"39\",\"7\",\"6\",\"3A\",\"C2\",\"J\",\"102\"
\"\",\"\",\"approach-retreat\",\"106\",\"1004053\",\"0.0-106.0\",\"\",\"\",\"1-1\",\"4979\",\"40\",\"1\",\"Training\",\"Stims/Figures/93-C-30-1.bmp\",\"zasaha\",\"Down\",\"40\",\"7\",\"7\",\"3A\",\"C2\",\"J\",\"103\"
\"\",\"\",\"approach-retreat\",\"107\",\"1011057\",\"0.0-107.0\",\"\",\"\",\"1-1\",\"5500\",\"37\",\"1\",\"Training\",\"Stims/Figures/139-J-0-2.bmp\",\"fa:fasha\",\"Right\",\"37\",\"7\",\"8\",\"3A\",\"C1\",\"J\",\"104\"
\"\",\"\",\"approach-retreat\",\"108\",\"1017306\",\"0.0-108.0\",\"\",\"\",\"1-1\",\"4746\",\"39\",\"1\",\"Training\",\"Stims/Figures/27-J-0-1.bmp\",\"fa:fasha\",\"Left\",\"39\",\"7\",\"9\",\"3A\",\"C1\",\"J\",\"105\"
\"\",\"\",\"approach-retreat\",\"109\",\"1023324\",\"0.0-109.0\",\"\",\"\",\"1-1\",\"4513\",\"40\",\"0\",\"Training\",\"Stims/Figures/44-C-30-3.bmp\",\"zasaha\",\"Up\",\"38\",\"7\",\"10\",\"3A\",\"C2\",\"J\",\"106\"
\"\",\"\",\"approach-retreat\",\"110\",\"1029207\",\"0.0-110.0\",\"\",\"\",\"1-1\",\"4379\",\"38\",\"1\",\"Training\",\"Stims/Figures/44-J-10-3.bmp\",\"fa:fasha\",\"Down\",\"38\",\"7\",\"11\",\"3A\",\"C1\",\"J\",\"107\"
\"\",\"\",\"approach-retreat\",\"111\",\"1035492\",\"0.0-111.0\",\"\",\"\",\"1-1\",\"4781\",\"40\",\"1\",\"Training\",\"Stims/Figures/102-J-10-4.bmp\",\"fa:fasha\",\"Up\",\"40\",\"7\",\"12\",\"3A\",\"C1\",\"J\",\"108\"
\"\",\"\",\"approach-retreat\",\"112\",\"1041822\",\"0.0-112.0\",\"\",\"\",\"1-1\",\"4828\",\"37\",\"1\",\"Training\",\"Stims/Figures/118-C-20-2.bmp\",\"zasaha\",\"Left\",\"37\",\"7\",\"13\",\"3A\",\"C2\",\"J\",\"109\"
\"\",\"\",\"approach-retreat\",\"113\",\"1048150\",\"0.0-113.0\",\"\",\"\",\"1-1\",\"4823\",\"38\",\"1\",\"Training\",\"Stims/Figures/87-J-10-4.bmp\",\"fa:fasha\",\"Down\",\"38\",\"7\",\"14\",\"3A\",\"C1\",\"J\",\"110\"
\"\",\"\",\"approach-retreat\",\"114\",\"1054441\",\"0.0-114.0\",\"\",\"\",\"1-1\",\"4788\",\"38\",\"1\",\"Training\",\"Stims/Figures/139-C-20-2.bmp\",\"zasaha\",\"Up\",\"38\",\"7\",\"15\",\"3A\",\"C2\",\"J\",\"111\"
\"\",\"\",\"approach-retreat\",\"115\",\"1061025\",\"0.0-115.0\",\"\",\"\",\"1-1\",\"5080\",\"37\",\"1\",\"Training\",\"Stims/Figures/27-C-30-1.bmp\",\"zasaha\",\"Left\",\"37\",\"7\",\"16\",\"3A\",\"C2\",\"J\",\"112\"
\"\",\"\",\"approach-retreat\",\"116\",\"1068607\",\"0.0-116.0\",\"\",\"\",\"1-1\",\"6080\",\"39\",\"1\",\"Training\",\"Stims/Figures/102-C-20-4.bmp\",\"zasaha\",\"Right\",\"39\",\"8\",\"1\",\"3A\",\"C2\",\"J\",\"113\"
\"\",\"\",\"approach-retreat\",\"117\",\"1075147\",\"0.0-117.0\",\"\",\"\",\"1-1\",\"5035\",\"38\",\"1\",\"Training\",\"Stims/Figures/44-C-30-3.bmp\",\"zasaha\",\"Up\",\"38\",\"8\",\"2\",\"3A\",\"C2\",\"J\",\"114\"
\"\",\"\",\"approach-retreat\",\"118\",\"1082646\",\"0.0-118.0\",\"\",\"\",\"1-1\",\"5996\",\"38\",\"1\",\"Training\",\"Stims/Figures/144-J-10-3.bmp\",\"fa:fasha\",\"Down\",\"38\",\"8\",\"3\",\"3A\",\"C1\",\"J\",\"115\"
\"\",\"\",\"approach-retreat\",\"119\",\"1089359\",\"0.0-119.0\",\"\",\"\",\"1-1\",\"5210\",\"38\",\"1\",\"Training\",\"Stims/Figures/87-J-10-4.bmp\",\"fa:fasha\",\"Down\",\"38\",\"8\",\"4\",\"3A\",\"C1\",\"J\",\"116\"
\"\",\"\",\"approach-retreat\",\"120\",\"1097622\",\"0.0-120.0\",\"\",\"\",\"1-1\",\"6759\",\"38\",\"1\",\"Training\",\"Stims/Figures/27-C-30-1.bmp\",\"zasaha\",\"Up\",\"38\",\"8\",\"5\",\"3A\",\"C2\",\"J\",\"117\"
\"\",\"\",\"approach-retreat\",\"121\",\"1105524\",\"0.0-121.0\",\"\",\"\",\"1-1\",\"6398\",\"38\",\"1\",\"Training\",\"Stims/Figures/44-J-10-3.bmp\",\"fa:fasha\",\"Down\",\"38\",\"8\",\"6\",\"3A\",\"C1\",\"J\",\"118\"
\"\",\"\",\"approach-retreat\",\"122\",\"1114121\",\"0.0-122.0\",\"\",\"\",\"1-1\",\"7094\",\"39\",\"1\",\"Training\",\"Stims/Figures/87-C-20-4.bmp\",\"zasaha\",\"Right\",\"39\",\"8\",\"7\",\"3A\",\"C2\",\"J\",\"119\"
\"\",\"\",\"approach-retreat\",\"123\",\"1122546\",\"0.0-123.0\",\"\",\"\",\"1-1\",\"6922\",\"39\",\"1\",\"Training\",\"Stims/Figures/144-C-30-3.bmp\",\"zasaha\",\"Right\",\"39\",\"8\",\"8\",\"3A\",\"C2\",\"J\",\"120\"
\"\",\"\",\"approach-retreat\",\"124\",\"1129080\",\"0.0-124.0\",\"\",\"\",\"1-1\",\"5031\",\"37\",\"0\",\"Training\",\"Stims/Figures/27-J-0-1.bmp\",\"fa:fasha\",\"Left\",\"39\",\"8\",\"9\",\"3A\",\"C1\",\"J\",\"121\"
\"\",\"\",\"approach-retreat\",\"125\",\"1135468\",\"0.0-125.0\",\"\",\"\",\"1-1\",\"4885\",\"40\",\"1\",\"Training\",\"Stims/Figures/118-J-0-2.bmp\",\"fa:fasha\",\"Up\",\"40\",\"8\",\"10\",\"3A\",\"C1\",\"J\",\"122\"
\"\",\"\",\"approach-retreat\",\"126\",\"1141585\",\"0.0-126.0\",\"\",\"\",\"1-1\",\"4614\",\"39\",\"1\",\"Training\",\"Stims/Figures/102-J-10-4.bmp\",\"fa:fasha\",\"Left\",\"39\",\"8\",\"11\",\"3A\",\"C1\",\"J\",\"123\"
\"\",\"\",\"approach-retreat\",\"127\",\"1147609\",\"0.0-127.0\",\"\",\"\",\"1-1\",\"4521\",\"37\",\"1\",\"Training\",\"Stims/Figures/139-J-0-2.bmp\",\"fa:fasha\",\"Right\",\"37\",\"8\",\"12\",\"3A\",\"C1\",\"J\",\"124\"
\"\",\"\",\"approach-retreat\",\"128\",\"1155486\",\"0.0-128.0\",\"\",\"\",\"1-1\",\"6375\",\"37\",\"1\",\"Training\",\"Stims/Figures/118-C-20-2.bmp\",\"zasaha\",\"Left\",\"37\",\"8\",\"13\",\"3A\",\"C2\",\"J\",\"125\"
\"\",\"\",\"approach-retreat\",\"129\",\"1164738\",\"0.0-129.0\",\"\",\"\",\"1-1\",\"7749\",\"38\",\"1\",\"Training\",\"Stims/Figures/93-J-0-1.bmp\",\"fa:fasha\",\"Down\",\"38\",\"8\",\"14\",\"3A\",\"C1\",\"J\",\"126\"
\"\",\"\",\"approach-retreat\",\"130\",\"1172056\",\"0.0-130.0\",\"\",\"\",\"1-1\",\"5814\",\"38\",\"1\",\"Training\",\"Stims/Figures/93-C-30-1.bmp\",\"zasaha\",\"Up\",\"38\",\"8\",\"15\",\"3A\",\"C2\",\"J\",\"127\"
\"\",\"\",\"approach-retreat\",\"131\",\"1178753\",\"0.0-131.0\",\"\",\"\",\"1-1\",\"5194\",\"37\",\"1\",\"Training\",\"Stims/Figures/139-C-20-2.bmp\",\"zasaha\",\"Left\",\"37\",\"8\",\"16\",\"3A\",\"C2\",\"J\",\"128\"
\"\",\"\",\"approach-retreat\",\"132\",\"1185439\",\"0.0-132.0\",\"\",\"\",\"1-1\",\"5182\",\"39\",\"1\",\"Training\",\"Stims/Figures/144-J-10-3.bmp\",\"fa:fasha\",\"Left\",\"39\",\"9\",\"1\",\"3A\",\"C1\",\"J\",\"129\"
\"\",\"\",\"approach-retreat\",\"133\",\"1191355\",\"0.0-133.0\",\"\",\"\",\"1-1\",\"4413\",\"38\",\"1\",\"Training\",\"Stims/Figures/93-J-0-1.bmp\",\"fa:fasha\",\"Down\",\"38\",\"9\",\"2\",\"3A\",\"C1\",\"J\",\"130\"
\"\",\"\",\"approach-retreat\",\"134\",\"1197240\",\"0.0-134.0\",\"\",\"\",\"1-1\",\"4383\",\"40\",\"0\",\"Training\",\"Stims/Figures/44-C-30-3.bmp\",\"zasaha\",\"Up\",\"38\",\"9\",\"3\",\"3A\",\"C2\",\"J\",\"131\"
\"\",\"\",\"approach-retreat\",\"135\",\"1203719\",\"0.0-135.0\",\"\",\"\",\"1-1\",\"4976\",\"40\",\"1\",\"Training\",\"Stims/Figures/87-C-20-4.bmp\",\"zasaha\",\"Down\",\"40\",\"9\",\"4\",\"3A\",\"C2\",\"J\",\"132\"
\"\",\"\",\"approach-retreat\",\"136\",\"1209450\",\"0.0-136.0\",\"\",\"\",\"1-1\",\"4227\",\"39\",\"1\",\"Training\",\"Stims/Figures/144-C-30-3.bmp\",\"zasaha\",\"Right\",\"39\",\"9\",\"5\",\"3A\",\"C2\",\"J\",\"133\"
\"\",\"\",\"approach-retreat\",\"137\",\"1215375\",\"0.0-137.0\",\"\",\"\",\"1-1\",\"4422\",\"37\",\"1\",\"Training\",\"Stims/Figures/139-C-20-2.bmp\",\"zasaha\",\"Left\",\"37\",\"9\",\"6\",\"3A\",\"C2\",\"J\",\"134\"
\"\",\"\",\"approach-retreat\",\"138\",\"1223162\",\"0.0-138.0\",\"\",\"\",\"1-1\",\"6284\",\"40\",\"1\",\"Training\",\"Stims/Figures/139-J-0-2.bmp\",\"fa:fasha\",\"Up\",\"40\",\"9\",\"7\",\"3A\",\"C1\",\"J\",\"135\"
\"\",\"\",\"approach-retreat\",\"139\",\"1229335\",\"0.0-139.0\",\"\",\"\",\"1-1\",\"4669\",\"37\",\"1\",\"Training\",\"Stims/Figures/118-C-20-2.bmp\",\"zasaha\",\"Left\",\"37\",\"9\",\"8\",\"3A\",\"C2\",\"J\",\"136\"
\"\",\"\",\"approach-retreat\",\"140\",\"1236506\",\"0.0-140.0\",\"\",\"\",\"1-1\",\"5669\",\"38\",\"1\",\"Training\",\"Stims/Figures/27-C-30-1.bmp\",\"zasaha\",\"Up\",\"38\",\"9\",\"9\",\"3A\",\"C2\",\"J\",\"137\"
\"\",\"\",\"approach-retreat\",\"141\",\"1243392\",\"0.0-141.0\",\"\",\"\",\"1-1\",\"5382\",\"37\",\"1\",\"Training\",\"Stims/Figures/102-J-10-4.bmp\",\"fa:fasha\",\"Right\",\"37\",\"9\",\"10\",\"3A\",\"C1\",\"J\",\"138\"
\"\",\"\",\"approach-retreat\",\"142\",\"1250342\",\"0.0-142.0\",\"\",\"\",\"1-1\",\"5446\",\"40\",\"1\",\"Training\",\"Stims/Figures/93-C-30-1.bmp\",\"zasaha\",\"Down\",\"40\",\"9\",\"11\",\"3A\",\"C2\",\"J\",\"139\"
\"\",\"\",\"approach-retreat\",\"143\",\"1257192\",\"0.0-143.0\",\"\",\"\",\"1-1\",\"5346\",\"40\",\"1\",\"Training\",\"Stims/Figures/118-J-0-2.bmp\",\"fa:fasha\",\"Up\",\"40\",\"9\",\"12\",\"3A\",\"C1\",\"J\",\"140\"
\"\",\"\",\"approach-retreat\",\"144\",\"1265069\",\"0.0-144.0\",\"\",\"\",\"1-1\",\"6374\",\"40\",\"1\",\"Training\",\"Stims/Figures/102-C-20-4.bmp\",\"zasaha\",\"Down\",\"40\",\"9\",\"13\",\"3A\",\"C2\",\"J\",\"141\"
\"\",\"\",\"approach-retreat\",\"145\",\"1272890\",\"0.0-145.0\",\"\",\"\",\"1-1\",\"6318\",\"39\",\"1\",\"Training\",\"Stims/Figures/27-J-0-1.bmp\",\"fa:fasha\",\"Left\",\"39\",\"9\",\"14\",\"3A\",\"C1\",\"J\",\"142\"
\"\",\"\",\"approach-retreat\",\"146\",\"1280264\",\"0.0-146.0\",\"\",\"\",\"1-1\",\"5870\",\"37\",\"1\",\"Training\",\"Stims/Figures/44-J-10-3.bmp\",\"fa:fasha\",\"Right\",\"37\",\"9\",\"15\",\"3A\",\"C1\",\"J\",\"143\"
\"\",\"\",\"approach-retreat\",\"147\",\"1286630\",\"0.0-147.0\",\"\",\"\",\"1-1\",\"4864\",\"37\",\"1\",\"Training\",\"Stims/Figures/87-J-10-4.bmp\",\"fa:fasha\",\"Right\",\"37\",\"9\",\"16\",\"3A\",\"C1\",\"J\",\"144\"
\"18207\",\"\",\"instructions\",\"148\",\"1304837\",\"0.0-148.0\",\"[{\"\"page_index\"\":0,\"\"viewing_time\"\":18207}]\",\"\",\"\",\"\",\"\",\"\",\"\",\"\",\"\",\"\",\"\",\"\",\"\",\"\",\"\",\"\",\"\"
\"\",\"\",\"approach-retreat\",\"149\",\"1311516\",\"0.0-149.0\",\"\",\"\",\"1-1\",\"5176\",\"37\",\"1\",\"Testing\",\"Stims/Figures/93-C-30-1.bmp\",\"zasaha\",\"Left\",\"37\",\"1\",\"1\",\"3A\",\"C2\",\"J\",\"1\"
\"\",\"\",\"approach-retreat\",\"150\",\"1318549\",\"0.0-150.0\",\"\",\"\",\"1-1\",\"5528\",\"37\",\"1\",\"Testing\",\"Stims/Figures/93-J-0-1.bmp\",\"fa:fasha\",\"Right\",\"37\",\"1\",\"2\",\"3A\",\"C1\",\"J\",\"2\"
\"\",\"\",\"approach-retreat\",\"151\",\"1325671\",\"0.0-151.0\",\"\",\"\",\"1-1\",\"5619\",\"40\",\"1\",\"Testing\",\"Stims/Figures/44-J-10-3.bmp\",\"fa:fasha\",\"Up\",\"40\",\"1\",\"3\",\"3A\",\"C1\",\"J\",\"3\"
\"\",\"\",\"approach-retreat\",\"152\",\"1331552\",\"0.0-152.0\",\"\",\"\",\"1-1\",\"4380\",\"37\",\"1\",\"Testing\",\"Stims/Figures/94-J-0-2.bmp\",\"fa:fasha\",\"Right\",\"37\",\"1\",\"4\",\"3A\",\"C1\",\"J\",\"4\"
\"\",\"\",\"approach-retreat\",\"153\",\"1337982\",\"0.0-153.0\",\"\",\"\",\"1-1\",\"4926\",\"39\",\"1\",\"Testing\",\"Stims/Figures/27-J-0-1.bmp\",\"fa:fasha\",\"Left\",\"39\",\"1\",\"5\",\"3A\",\"C1\",\"J\",\"5\"
\"\",\"\",\"approach-retreat\",\"154\",\"1344121\",\"0.0-154.0\",\"\",\"\",\"1-1\",\"4636\",\"39\",\"1\",\"Testing\",\"Stims/Figures/102-C-20-4.bmp\",\"zasaha\",\"Right\",\"39\",\"1\",\"6\",\"3A\",\"C2\",\"J\",\"6\"
\"\",\"\",\"approach-retreat\",\"155\",\"1351015\",\"0.0-155.0\",\"\",\"\",\"1-1\",\"5392\",\"40\",\"1\",\"Testing\",\"Stims/Figures/19-J-10-4.bmp\",\"fa:fasha\",\"Up\",\"40\",\"1\",\"7\",\"3A\",\"C1\",\"J\",\"7\"
\"\",\"\",\"approach-retreat\",\"156\",\"1357328\",\"0.0-156.0\",\"\",\"\",\"1-1\",\"4811\",\"39\",\"1\",\"Testing\",\"Stims/Figures/144-C-30-3.bmp\",\"zasaha\",\"Right\",\"39\",\"1\",\"8\",\"3A\",\"C2\",\"J\",\"8\"
\"\",\"\",\"approach-retreat\",\"157\",\"1364018\",\"0.0-157.0\",\"\",\"\",\"1-1\",\"5189\",\"38\",\"1\",\"Testing\",\"Stims/Figures/118-C-20-2.bmp\",\"zasaha\",\"Up\",\"38\",\"1\",\"9\",\"3A\",\"C2\",\"J\",\"9\"
\"\",\"\",\"approach-retreat\",\"158\",\"1370058\",\"0.0-158.0\",\"\",\"\",\"1-1\",\"4537\",\"37\",\"1\",\"Testing\",\"Stims/Figures/44-C-30-3.bmp\",\"zasaha\",\"Left\",\"37\",\"1\",\"10\",\"3A\",\"C2\",\"J\",\"10\"
\"\",\"\",\"approach-retreat\",\"159\",\"1376332\",\"0.0-159.0\",\"\",\"\",\"1-1\",\"4770\",\"39\",\"1\",\"Testing\",\"Stims/Figures/144-J-10-3.bmp\",\"fa:fasha\",\"Left\",\"39\",\"1\",\"11\",\"3A\",\"C1\",\"J\",\"11\"
\"\",\"\",\"approach-retreat\",\"160\",\"1384821\",\"0.0-160.0\",\"\",\"\",\"1-1\",\"6987\",\"40\",\"1\",\"Testing\",\"Stims/Figures/87-C-20-4.bmp\",\"zasaha\",\"Down\",\"40\",\"1\",\"12\",\"3A\",\"C2\",\"J\",\"12\"
\"\",\"\",\"approach-retreat\",\"161\",\"1390653\",\"0.0-161.0\",\"\",\"\",\"1-1\",\"4329\",\"39\",\"1\",\"Testing\",\"Stims/Figures/111-C-30-3.bmp\",\"zasaha\",\"Right\",\"39\",\"1\",\"13\",\"3A\",\"C2\",\"J\",\"13\"
\"\",\"\",\"approach-retreat\",\"162\",\"1402791\",\"0.0-162.0\",\"\",\"\",\"1-1\",\"10635\",\"37\",\"1\",\"Testing\",\"Stims/Figures/19-C-20-4.bmp\",\"zasaha\",\"Left\",\"37\",\"1\",\"14\",\"3A\",\"C2\",\"J\",\"14\"
\"\",\"\",\"approach-retreat\",\"163\",\"1409086\",\"0.0-163.0\",\"\",\"\",\"1-1\",\"4793\",\"37\",\"1\",\"Testing\",\"Stims/Figures/111-J-10-3.bmp\",\"fa:fasha\",\"Right\",\"37\",\"1\",\"15\",\"3A\",\"C1\",\"J\",\"15\"
\"\",\"\",\"approach-retreat\",\"164\",\"1415206\",\"0.0-164.0\",\"\",\"\",\"1-1\",\"4616\",\"38\",\"1\",\"Testing\",\"Stims/Figures/102-J-10-4.bmp\",\"fa:fasha\",\"Down\",\"38\",\"1\",\"16\",\"3A\",\"C1\",\"J\",\"16\"
\"\",\"\",\"approach-retreat\",\"165\",\"1421175\",\"0.0-165.0\",\"\",\"\",\"1-1\",\"4466\",\"39\",\"1\",\"Testing\",\"Stims/Figures/87-J-10-4.bmp\",\"fa:fasha\",\"Left\",\"39\",\"1\",\"17\",\"3A\",\"C1\",\"J\",\"17\"
\"\",\"\",\"approach-retreat\",\"166\",\"1427528\",\"0.0-166.0\",\"\",\"\",\"1-1\",\"4850\",\"40\",\"1\",\"Testing\",\"Stims/Figures/94-C-20-2.bmp\",\"zasaha\",\"Down\",\"40\",\"1\",\"18\",\"3A\",\"C2\",\"J\",\"18\"
\"\",\"\",\"approach-retreat\",\"167\",\"1433916\",\"0.0-167.0\",\"\",\"\",\"1-1\",\"4881\",\"38\",\"1\",\"Testing\",\"Stims/Figures/139-J-0-2.bmp\",\"fa:fasha\",\"Down\",\"38\",\"1\",\"19\",\"3A\",\"C1\",\"J\",\"19\"
\"\",\"\",\"approach-retreat\",\"168\",\"1440372\",\"0.0-168.0\",\"\",\"\",\"1-1\",\"4953\",\"38\",\"1\",\"Testing\",\"Stims/Figures/139-C-20-2.bmp\",\"zasaha\",\"Up\",\"38\",\"1\",\"20\",\"3A\",\"C2\",\"J\",\"20\"
\"\",\"\",\"approach-retreat\",\"169\",\"1446357\",\"0.0-169.0\",\"\",\"\",\"1-1\",\"4483\",\"38\",\"1\",\"Testing\",\"Stims/Figures/27-C-30-1.bmp\",\"zasaha\",\"Up\",\"38\",\"1\",\"21\",\"3A\",\"C2\",\"J\",\"21\"
\"\",\"\",\"approach-retreat\",\"170\",\"1452431\",\"0.0-170.0\",\"\",\"\",\"1-1\",\"4572\",\"38\",\"1\",\"Testing\",\"Stims/Figures/57-J-0-1.bmp\",\"fa:fasha\",\"Down\",\"38\",\"1\",\"22\",\"3A\",\"C1\",\"J\",\"22\"
\"\",\"\",\"approach-retreat\",\"171\",\"1458911\",\"0.0-171.0\",\"\",\"\",\"1-1\",\"4977\",\"40\",\"1\",\"Testing\",\"Stims/Figures/57-C-30-1.bmp\",\"zasaha\",\"Down\",\"40\",\"1\",\"23\",\"3A\",\"C2\",\"J\",\"23\"
\"\",\"\",\"approach-retreat\",\"172\",\"1465937\",\"0.0-172.0\",\"\",\"\",\"1-1\",\"5524\",\"40\",\"1\",\"Testing\",\"Stims/Figures/118-J-0-2.bmp\",\"fa:fasha\",\"Up\",\"40\",\"1\",\"24\",\"3A\",\"C1\",\"J\",\"24\"
\"\",\"\",\"approach-retreat\",\"173\",\"1471918\",\"0.0-173.0\",\"\",\"\",\"1-1\",\"4478\",\"37\",\"1\",\"Testing\",\"Stims/Figures/94-J-0-2.bmp\",\"fa:fasha\",\"Right\",\"37\",\"2\",\"1\",\"3A\",\"C1\",\"J\",\"25\"
\"\",\"\",\"approach-retreat\",\"174\",\"1480438\",\"0.0-174.0\",\"\",\"\",\"1-1\",\"7016\",\"37\",\"1\",\"Testing\",\"Stims/Figures/102-C-20-4.bmp\",\"zasaha\",\"Left\",\"37\",\"2\",\"2\",\"3A\",\"C2\",\"J\",\"26\"
\"\",\"\",\"approach-retreat\",\"175\",\"1486578\",\"0.0-175.0\",\"\",\"\",\"1-1\",\"4636\",\"40\",\"1\",\"Testing\",\"Stims/Figures/44-J-10-3.bmp\",\"fa:fasha\",\"Up\",\"40\",\"2\",\"3\",\"3A\",\"C1\",\"J\",\"27\"
\"\",\"\",\"approach-retreat\",\"176\",\"1492593\",\"0.0-176.0\",\"\",\"\",\"1-1\",\"4514\",\"38\",\"1\",\"Testing\",\"Stims/Figures/19-J-10-4.bmp\",\"fa:fasha\",\"Down\",\"38\",\"2\",\"4\",\"3A\",\"C1\",\"J\",\"28\"
\"\",\"\",\"approach-retreat\",\"177\",\"1498478\",\"0.0-177.0\",\"\",\"\",\"1-1\",\"4383\",\"38\",\"1\",\"Testing\",\"Stims/Figures/118-C-20-2.bmp\",\"zasaha\",\"Up\",\"38\",\"2\",\"5\",\"3A\",\"C2\",\"J\",\"29\"
\"\",\"\",\"approach-retreat\",\"178\",\"1505043\",\"0.0-178.0\",\"\",\"\",\"1-1\",\"5062\",\"38\",\"1\",\"Testing\",\"Stims/Figures/57-J-0-1.bmp\",\"fa:fasha\",\"Down\",\"38\",\"2\",\"6\",\"3A\",\"C1\",\"J\",\"30\"
\"\",\"\",\"approach-retreat\",\"179\",\"1511080\",\"0.0-179.0\",\"\",\"\",\"1-1\",\"4535\",\"39\",\"1\",\"Testing\",\"Stims/Figures/44-C-30-3.bmp\",\"zasaha\",\"Right\",\"39\",\"2\",\"7\",\"3A\",\"C2\",\"J\",\"31\"
\"\",\"\",\"approach-retreat\",\"180\",\"1517205\",\"0.0-180.0\",\"\",\"\",\"1-1\",\"4623\",\"40\",\"1\",\"Testing\",\"Stims/Figures/27-J-0-1.bmp\",\"fa:fasha\",\"Up\",\"40\",\"2\",\"8\",\"3A\",\"C1\",\"J\",\"32\"
\"\",\"\",\"approach-retreat\",\"181\",\"1523068\",\"0.0-181.0\",\"\",\"\",\"1-1\",\"4360\",\"40\",\"1\",\"Testing\",\"Stims/Figures/118-J-0-2.bmp\",\"fa:fasha\",\"Up\",\"40\",\"2\",\"9\",\"3A\",\"C1\",\"J\",\"33\"
\"\",\"\",\"approach-retreat\",\"182\",\"1531425\",\"0.0-182.0\",\"\",\"\",\"1-1\",\"6855\",\"40\",\"1\",\"Testing\",\"Stims/Figures/57-C-30-1.bmp\",\"zasaha\",\"Down\",\"40\",\"2\",\"10\",\"3A\",\"C2\",\"J\",\"34\"
\"\",\"\",\"approach-retreat\",\"183\",\"1537285\",\"0.0-183.0\",\"\",\"\",\"1-1\",\"4357\",\"38\",\"1\",\"Testing\",\"Stims/Figures/144-J-10-3.bmp\",\"fa:fasha\",\"Down\",\"38\",\"2\",\"11\",\"3A\",\"C1\",\"J\",\"35\"
\"\",\"\",\"approach-retreat\",\"184\",\"1543261\",\"0.0-184.0\",\"\",\"\",\"1-1\",\"4473\",\"39\",\"1\",\"Testing\",\"Stims/Figures/111-C-30-3.bmp\",\"zasaha\",\"Right\",\"39\",\"2\",\"12\",\"3A\",\"C2\",\"J\",\"36\"
\"\",\"\",\"approach-retreat\",\"185\",\"1549600\",\"0.0-185.0\",\"\",\"\",\"1-1\",\"4836\",\"37\",\"1\",\"Testing\",\"Stims/Figures/139-C-20-2.bmp\",\"zasaha\",\"Left\",\"37\",\"2\",\"13\",\"3A\",\"C2\",\"J\",\"37\"
\"\",\"\",\"approach-retreat\",\"186\",\"1555519\",\"0.0-186.0\",\"\",\"\",\"1-1\",\"4416\",\"40\",\"1\",\"Testing\",\"Stims/Figures/139-J-0-2.bmp\",\"fa:fasha\",\"Up\",\"40\",\"2\",\"14\",\"3A\",\"C1\",\"J\",\"38\"
\"\",\"\",\"approach-retreat\",\"187\",\"1561372\",\"0.0-187.0\",\"\",\"\",\"1-1\",\"4351\",\"37\",\"1\",\"Testing\",\"Stims/Figures/111-J-10-3.bmp\",\"fa:fasha\",\"Right\",\"37\",\"2\",\"15\",\"3A\",\"C1\",\"J\",\"39\"
\"\",\"\",\"approach-retreat\",\"188\",\"1568227\",\"0.0-188.0\",\"\",\"\",\"1-1\",\"5353\",\"40\",\"1\",\"Testing\",\"Stims/Figures/19-C-20-4.bmp\",\"zasaha\",\"Down\",\"40\",\"2\",\"16\",\"3A\",\"C2\",\"J\",\"40\"
\"\",\"\",\"approach-retreat\",\"189\",\"1574339\",\"0.0-189.0\",\"\",\"\",\"1-1\",\"4609\",\"37\",\"1\",\"Testing\",\"Stims/Figures/144-C-30-3.bmp\",\"zasaha\",\"Left\",\"37\",\"2\",\"17\",\"3A\",\"C2\",\"J\",\"41\"
\"\",\"\",\"approach-retreat\",\"190\",\"1580475\",\"0.0-190.0\",\"\",\"\",\"1-1\",\"4633\",\"38\",\"1\",\"Testing\",\"Stims/Figures/27-C-30-1.bmp\",\"zasaha\",\"Up\",\"38\",\"2\",\"18\",\"3A\",\"C2\",\"J\",\"42\"
\"\",\"\",\"approach-retreat\",\"191\",\"1587755\",\"0.0-191.0\",\"\",\"\",\"1-1\",\"5777\",\"38\",\"1\",\"Testing\",\"Stims/Figures/93-J-0-1.bmp\",\"fa:fasha\",\"Down\",\"38\",\"2\",\"19\",\"3A\",\"C1\",\"J\",\"43\"
\"\",\"\",\"approach-retreat\",\"192\",\"1594897\",\"0.0-192.0\",\"\",\"\",\"1-1\",\"5640\",\"39\",\"1\",\"Testing\",\"Stims/Figures/102-J-10-4.bmp\",\"fa:fasha\",\"Left\",\"39\",\"2\",\"20\",\"3A\",\"C1\",\"J\",\"44\"
\"\",\"\",\"approach-retreat\",\"193\",\"1603309\",\"0.0-193.0\",\"\",\"\",\"1-1\",\"6910\",\"37\",\"1\",\"Testing\",\"Stims/Figures/87-J-10-4.bmp\",\"fa:fasha\",\"Right\",\"37\",\"2\",\"21\",\"3A\",\"C1\",\"J\",\"45\"
\"\",\"\",\"approach-retreat\",\"194\",\"1609764\",\"0.0-194.0\",\"\",\"\",\"1-1\",\"4952\",\"37\",\"1\",\"Testing\",\"Stims/Figures/87-C-20-4.bmp\",\"zasaha\",\"Left\",\"37\",\"2\",\"22\",\"3A\",\"C2\",\"J\",\"46\"
\"\",\"\",\"approach-retreat\",\"195\",\"1616238\",\"0.0-195.0\",\"\",\"\",\"1-1\",\"4972\",\"39\",\"1\",\"Testing\",\"Stims/Figures/94-C-20-2.bmp\",\"zasaha\",\"Right\",\"39\",\"2\",\"23\",\"3A\",\"C2\",\"J\",\"47\"
\"\",\"\",\"approach-retreat\",\"196\",\"1623177\",\"0.0-196.0\",\"\",\"\",\"1-1\",\"5436\",\"37\",\"1\",\"Testing\",\"Stims/Figures/93-C-30-1.bmp\",\"zasaha\",\"Left\",\"37\",\"2\",\"24\",\"3A\",\"C2\",\"J\",\"48\"
\"\",\"\",\"approach-retreat\",\"197\",\"1630649\",\"0.0-197.0\",\"\",\"\",\"1-1\",\"5969\",\"40\",\"1\",\"Testing\",\"Stims/Figures/94-C-20-2.bmp\",\"zasaha\",\"Down\",\"40\",\"3\",\"1\",\"3A\",\"C2\",\"J\",\"49\"
\"\",\"\",\"approach-retreat\",\"198\",\"1636478\",\"0.0-198.0\",\"\",\"\",\"1-1\",\"4327\",\"39\",\"1\",\"Testing\",\"Stims/Figures/93-J-0-1.bmp\",\"fa:fasha\",\"Left\",\"39\",\"3\",\"2\",\"3A\",\"C1\",\"J\",\"50\"
\"\",\"\",\"approach-retreat\",\"199\",\"1644371\",\"0.0-199.0\",\"\",\"\",\"1-1\",\"6391\",\"39\",\"0\",\"Testing\",\"Stims/Figures/19-C-20-4.bmp\",\"zasaha\",\"Left\",\"37\",\"3\",\"3\",\"3A\",\"C2\",\"J\",\"51\"
\"\",\"\",\"approach-retreat\",\"200\",\"1651446\",\"0.0-200.0\",\"\",\"\",\"1-1\",\"5572\",\"40\",\"1\",\"Testing\",\"Stims/Figures/102-C-20-4.bmp\",\"zasaha\",\"Down\",\"40\",\"3\",\"4\",\"3A\",\"C2\",\"J\",\"52\"
\"\",\"\",\"approach-retreat\",\"201\",\"1657459\",\"0.0-201.0\",\"\",\"\",\"1-1\",\"4510\",\"38\",\"1\",\"Testing\",\"Stims/Figures/44-J-10-3.bmp\",\"fa:fasha\",\"Down\",\"38\",\"3\",\"5\",\"3A\",\"C1\",\"J\",\"53\"
\"\",\"\",\"approach-retreat\",\"202\",\"1664331\",\"0.0-202.0\",\"\",\"\",\"1-1\",\"5368\",\"38\",\"1\",\"Testing\",\"Stims/Figures/118-C-20-2.bmp\",\"zasaha\",\"Up\",\"38\",\"3\",\"6\",\"3A\",\"C2\",\"J\",\"54\"
\"\",\"\",\"approach-retreat\",\"203\",\"1671071\",\"0.0-203.0\",\"\",\"\",\"1-1\",\"5240\",\"37\",\"1\",\"Testing\",\"Stims/Figures/57-J-0-1.bmp\",\"fa:fasha\",\"Right\",\"37\",\"3\",\"7\",\"3A\",\"C1\",\"J\",\"55\"
\"\",\"\",\"approach-retreat\",\"204\",\"1677699\",\"0.0-204.0\",\"\",\"\",\"1-1\",\"5126\",\"40\",\"1\",\"Testing\",\"Stims/Figures/19-J-10-4.bmp\",\"fa:fasha\",\"Up\",\"40\",\"3\",\"8\",\"3A\",\"C1\",\"J\",\"56\"
\"\",\"\",\"approach-retreat\",\"205\",\"1684416\",\"0.0-205.0\",\"\",\"\",\"1-1\",\"5214\",\"40\",\"1\",\"Testing\",\"Stims/Figures/94-J-0-2.bmp\",\"fa:fasha\",\"Up\",\"40\",\"3\",\"9\",\"3A\",\"C1\",\"J\",\"57\"
\"\",\"\",\"approach-retreat\",\"206\",\"1690366\",\"0.0-206.0\",\"\",\"\",\"1-1\",\"4447\",\"37\",\"1\",\"Testing\",\"Stims/Figures/139-J-0-2.bmp\",\"fa:fasha\",\"Right\",\"37\",\"3\",\"10\",\"3A\",\"C1\",\"J\",\"58\"
\"\",\"\",\"approach-retreat\",\"207\",\"1697102\",\"0.0-207.0\",\"\",\"\",\"1-1\",\"5234\",\"40\",\"1\",\"Testing\",\"Stims/Figures/139-C-20-2.bmp\",\"zasaha\",\"Down\",\"40\",\"3\",\"11\",\"3A\",\"C2\",\"J\",\"59\"
\"\",\"\",\"approach-retreat\",\"208\",\"1702778\",\"0.0-208.0\",\"\",\"\",\"1-1\",\"4174\",\"37\",\"1\",\"Testing\",\"Stims/Figures/44-C-30-3.bmp\",\"zasaha\",\"Left\",\"37\",\"3\",\"12\",\"3A\",\"C2\",\"J\",\"60\"
\"\",\"\",\"approach-retreat\",\"209\",\"1709090\",\"0.0-209.0\",\"\",\"\",\"1-1\",\"4809\",\"39\",\"1\",\"Testing\",\"Stims/Figures/87-J-10-4.bmp\",\"fa:fasha\",\"Left\",\"39\",\"3\",\"13\",\"3A\",\"C1\",\"J\",\"61\"
\"\",\"\",\"approach-retreat\",\"210\",\"1715353\",\"0.0-210.0\",\"\",\"\",\"1-1\",\"4760\",\"38\",\"1\",\"Testing\",\"Stims/Figures/27-C-30-1.bmp\",\"zasaha\",\"Up\",\"38\",\"3\",\"14\",\"3A\",\"C2\",\"J\",\"62\"
\"\",\"\",\"approach-retreat\",\"211\",\"1720982\",\"0.0-211.0\",\"\",\"\",\"1-1\",\"4126\",\"39\",\"1\",\"Testing\",\"Stims/Figures/87-C-20-4.bmp\",\"zasaha\",\"Right\",\"39\",\"3\",\"15\",\"3A\",\"C2\",\"J\",\"63\"
\"\",\"\",\"approach-retreat\",\"212\",\"1728097\",\"0.0-212.0\",\"\",\"\",\"1-1\",\"5612\",\"37\",\"1\",\"Testing\",\"Stims/Figures/102-J-10-4.bmp\",\"fa:fasha\",\"Right\",\"37\",\"3\",\"16\",\"3A\",\"C1\",\"J\",\"64\"
\"\",\"\",\"approach-retreat\",\"213\",\"1734445\",\"0.0-213.0\",\"\",\"\",\"1-1\",\"4844\",\"37\",\"1\",\"Testing\",\"Stims/Figures/144-J-10-3.bmp\",\"fa:fasha\",\"Right\",\"37\",\"3\",\"17\",\"3A\",\"C1\",\"J\",\"65\"
\"\",\"\",\"approach-retreat\",\"214\",\"1740591\",\"0.0-214.0\",\"\",\"\",\"1-1\",\"4644\",\"40\",\"1\",\"Testing\",\"Stims/Figures/111-C-30-3.bmp\",\"zasaha\",\"Down\",\"40\",\"3\",\"18\",\"3A\",\"C2\",\"J\",\"66\"
\"\",\"\",\"approach-retreat\",\"215\",\"1746518\",\"0.0-215.0\",\"\",\"\",\"1-1\",\"4424\",\"38\",\"1\",\"Testing\",\"Stims/Figures/27-J-0-1.bmp\",\"fa:fasha\",\"Down\",\"38\",\"3\",\"19\",\"3A\",\"C1\",\"J\",\"67\"
\"\",\"\",\"approach-retreat\",\"216\",\"1753892\",\"0.0-216.0\",\"\",\"\",\"1-1\",\"5870\",\"39\",\"1\",\"Testing\",\"Stims/Figures/111-J-10-3.bmp\",\"fa:fasha\",\"Left\",\"39\",\"3\",\"20\",\"3A\",\"C1\",\"J\",\"68\"
\"\",\"\",\"approach-retreat\",\"217\",\"1761044\",\"0.0-217.0\",\"\",\"\",\"1-1\",\"5649\",\"39\",\"1\",\"Testing\",\"Stims/Figures/57-C-30-1.bmp\",\"zasaha\",\"Right\",\"39\",\"3\",\"21\",\"3A\",\"C2\",\"J\",\"69\"
\"\",\"\",\"approach-retreat\",\"218\",\"1766984\",\"0.0-218.0\",\"\",\"\",\"1-1\",\"4438\",\"37\",\"1\",\"Testing\",\"Stims/Figures/93-C-30-1.bmp\",\"zasaha\",\"Left\",\"37\",\"3\",\"22\",\"3A\",\"C2\",\"J\",\"70\"
\"\",\"\",\"approach-retreat\",\"219\",\"1774568\",\"0.0-219.0\",\"\",\"\",\"1-1\",\"6081\",\"38\",\"1\",\"Testing\",\"Stims/Figures/144-C-30-3.bmp\",\"zasaha\",\"Up\",\"38\",\"3\",\"23\",\"3A\",\"C2\",\"J\",\"71\"
\"\",\"\",\"approach-retreat\",\"220\",\"1780825\",\"0.0-220.0\",\"\",\"\",\"1-1\",\"4754\",\"40\",\"1\",\"Testing\",\"Stims/Figures/118-J-0-2.bmp\",\"fa:fasha\",\"Up\",\"40\",\"3\",\"24\",\"3A\",\"C1\",\"J\",\"72\"
\"\",\"\",\"approach-retreat\",\"221\",\"1789809\",\"0.0-221.0\",\"\",\"\",\"1-1\",\"7481\",\"39\",\"1\",\"Testing\",\"Stims/Figures/87-C-20-4.bmp\",\"zasaha\",\"Right\",\"39\",\"4\",\"1\",\"3A\",\"C2\",\"J\",\"73\"
\"\",\"\",\"approach-retreat\",\"222\",\"1795661\",\"0.0-222.0\",\"\",\"\",\"1-1\",\"4351\",\"39\",\"1\",\"Testing\",\"Stims/Figures/27-C-30-1.bmp\",\"zasaha\",\"Right\",\"39\",\"4\",\"2\",\"3A\",\"C2\",\"J\",\"74\"
\"\",\"\",\"approach-retreat\",\"223\",\"1801633\",\"0.0-223.0\",\"\",\"\",\"1-1\",\"4469\",\"38\",\"1\",\"Testing\",\"Stims/Figures/111-J-10-3.bmp\",\"fa:fasha\",\"Down\",\"38\",\"4\",\"3\",\"3A\",\"C1\",\"J\",\"75\"
\"\",\"\",\"approach-retreat\",\"224\",\"1809075\",\"0.0-224.0\",\"\",\"\",\"1-1\",\"5939\",\"39\",\"1\",\"Testing\",\"Stims/Figures/139-J-0-2.bmp\",\"fa:fasha\",\"Left\",\"39\",\"4\",\"4\",\"3A\",\"C1\",\"J\",\"76\"
\"\",\"\",\"approach-retreat\",\"225\",\"1815450\",\"0.0-225.0\",\"\",\"\",\"1-1\",\"4873\",\"39\",\"1\",\"Testing\",\"Stims/Figures/118-J-0-2.bmp\",\"fa:fasha\",\"Left\",\"39\",\"4\",\"5\",\"3A\",\"C1\",\"J\",\"77\"
\"\",\"\",\"approach-retreat\",\"226\",\"1821541\",\"0.0-226.0\",\"\",\"\",\"1-1\",\"4587\",\"37\",\"1\",\"Testing\",\"Stims/Figures/93-C-30-1.bmp\",\"zasaha\",\"Left\",\"37\",\"4\",\"6\",\"3A\",\"C2\",\"J\",\"78\"
\"\",\"\",\"approach-retreat\",\"227\",\"1827556\",\"0.0-227.0\",\"\",\"\",\"1-1\",\"4511\",\"39\",\"1\",\"Testing\",\"Stims/Figures/93-J-0-1.bmp\",\"fa:fasha\",\"Left\",\"39\",\"4\",\"7\",\"3A\",\"C1\",\"J\",\"79\"
\"\",\"\",\"approach-retreat\",\"228\",\"1833913\",\"0.0-228.0\",\"\",\"\",\"1-1\",\"4854\",\"38\",\"1\",\"Testing\",\"Stims/Figures/111-C-30-3.bmp\",\"zasaha\",\"Up\",\"38\",\"4\",\"8\",\"3A\",\"C2\",\"J\",\"80\"
\"\",\"\",\"approach-retreat\",\"229\",\"1845758\",\"0.0-229.0\",\"\",\"\",\"1-1\",\"10343\",\"37\",\"0\",\"Testing\",\"Stims/Figures/144-C-30-3.bmp\",\"zasaha\",\"Right\",\"39\",\"4\",\"9\",\"3A\",\"C2\",\"J\",\"81\"
\"\",\"\",\"approach-retreat\",\"230\",\"1851889\",\"0.0-230.0\",\"\",\"\",\"1-1\",\"4629\",\"40\",\"1\",\"Testing\",\"Stims/Figures/87-J-10-4.bmp\",\"fa:fasha\",\"Up\",\"40\",\"4\",\"10\",\"3A\",\"C1\",\"J\",\"82\"
\"\",\"\",\"approach-retreat\",\"231\",\"1858178\",\"0.0-231.0\",\"\",\"\",\"1-1\",\"4785\",\"40\",\"1\",\"Testing\",\"Stims/Figures/57-J-0-1.bmp\",\"fa:fasha\",\"Up\",\"40\",\"4\",\"11\",\"3A\",\"C1\",\"J\",\"83\"
\"\",\"\",\"approach-retreat\",\"232\",\"1864201\",\"0.0-232.0\",\"\",\"\",\"1-1\",\"4520\",\"40\",\"1\",\"Testing\",\"Stims/Figures/27-J-0-1.bmp\",\"fa:fasha\",\"Up\",\"40\",\"4\",\"12\",\"3A\",\"C1\",\"J\",\"84\"
\"\",\"\",\"approach-retreat\",\"233\",\"1871741\",\"0.0-233.0\",\"\",\"\",\"1-1\",\"6039\",\"38\",\"1\",\"Testing\",\"Stims/Figures/94-J-0-2.bmp\",\"fa:fasha\",\"Down\",\"38\",\"4\",\"13\",\"3A\",\"C1\",\"J\",\"85\"
\"\",\"\",\"approach-retreat\",\"234\",\"1880759\",\"0.0-234.0\",\"\",\"\",\"1-1\",\"7515\",\"37\",\"1\",\"Testing\",\"Stims/Figures/57-C-30-1.bmp\",\"zasaha\",\"Left\",\"37\",\"4\",\"14\",\"3A\",\"C2\",\"J\",\"86\"
\"\",\"\",\"approach-retreat\",\"235\",\"1886836\",\"0.0-235.0\",\"\",\"\",\"1-1\",\"4575\",\"39\",\"1\",\"Testing\",\"Stims/Figures/139-C-20-2.bmp\",\"zasaha\",\"Right\",\"39\",\"4\",\"15\",\"3A\",\"C2\",\"J\",\"87\"
\"\",\"\",\"approach-retreat\",\"236\",\"1893006\",\"0.0-236.0\",\"\",\"\",\"1-1\",\"4666\",\"38\",\"0\",\"Testing\",\"Stims/Figures/19-C-20-4.bmp\",\"zasaha\",\"Down\",\"40\",\"4\",\"16\",\"3A\",\"C2\",\"J\",\"88\"
\"\",\"\",\"approach-retreat\",\"237\",\"1898863\",\"0.0-237.0\",\"\",\"\",\"1-1\",\"4354\",\"37\",\"1\",\"Testing\",\"Stims/Figures/102-J-10-4.bmp\",\"fa:fasha\",\"Right\",\"37\",\"4\",\"17\",\"3A\",\"C1\",\"J\",\"89\"
\"\",\"\",\"approach-retreat\",\"238\",\"1905264\",\"0.0-238.0\",\"\",\"\",\"1-1\",\"4899\",\"40\",\"1\",\"Testing\",\"Stims/Figures/144-J-10-3.bmp\",\"fa:fasha\",\"Up\",\"40\",\"4\",\"18\",\"3A\",\"C1\",\"J\",\"90\"
\"\",\"\",\"approach-retreat\",\"239\",\"1912371\",\"0.0-239.0\",\"\",\"\",\"1-1\",\"5604\",\"38\",\"1\",\"Testing\",\"Stims/Figures/94-C-20-2.bmp\",\"zasaha\",\"Up\",\"38\",\"4\",\"19\",\"3A\",\"C2\",\"J\",\"91\"
\"\",\"\",\"approach-retreat\",\"240\",\"1919409\",\"0.0-240.0\",\"\",\"\",\"1-1\",\"5534\",\"37\",\"1\",\"Testing\",\"Stims/Figures/44-C-30-3.bmp\",\"zasaha\",\"Left\",\"37\",\"4\",\"20\",\"3A\",\"C2\",\"J\",\"92\"
\"\",\"\",\"approach-retreat\",\"241\",\"1925382\",\"0.0-241.0\",\"\",\"\",\"1-1\",\"4470\",\"37\",\"1\",\"Testing\",\"Stims/Figures/44-J-10-3.bmp\",\"fa:fasha\",\"Right\",\"37\",\"4\",\"21\",\"3A\",\"C1\",\"J\",\"93\"
\"\",\"\",\"approach-retreat\",\"242\",\"1932582\",\"0.0-242.0\",\"\",\"\",\"1-1\",\"5697\",\"38\",\"0\",\"Testing\",\"Stims/Figures/118-C-20-2.bmp\",\"zasaha\",\"Down\",\"40\",\"4\",\"22\",\"3A\",\"C2\",\"J\",\"94\"
\"\",\"\",\"approach-retreat\",\"243\",\"1947410\",\"0.0-243.0\",\"\",\"\",\"1-1\",\"13324\",\"38\",\"0\",\"Testing\",\"Stims/Figures/102-C-20-4.bmp\",\"zasaha\",\"Down\",\"40\",\"4\",\"23\",\"3A\",\"C2\",\"J\",\"95\"
\"\",\"\",\"approach-retreat\",\"244\",\"1953206\",\"0.0-244.0\",\"\",\"\",\"1-1\",\"4295\",\"38\",\"1\",\"Testing\",\"Stims/Figures/19-J-10-4.bmp\",\"fa:fasha\",\"Down\",\"38\",\"4\",\"24\",\"3A\",\"C1\",\"J\",\"96\"
\"120928\",\"\",\"survey-text\",\"245\",\"2074137\",\"0.0-245.0\",\"\",\"{\"\"Q0\"\":\"\"1237/17\"\"}\",\"\",\"\",\"\",\"\",\"\",\"\",\"\",\"\",\"\",\"\",\"\",\"\",\"\",\"\",\"\"
