\"rt\",\"key_press\",\"trial_type\",\"trial_index\",\"time_elapsed\",\"internal_node_id\",\"view_history\",\"responses\",\"Id\",\"Rt\",\"ResKeyCode\",\"ResCorr\",\"TrialType2\",\"Image\",\"Label\",\"Location\",\"CorrectResponse\",\"Block\",\"BlockTrial\",\"Condition\",\"LabelType\",\"Subcondition\",\"trialNum\"
\"84038\",\"32\",\"text\",\"0\",\"84042\",\"0.0-0.0-0.0\",\"\",\"\",\"\",\"\",\"\",\"\",\"\",\"\",\"\",\"\",\"\",\"\",\"\",\"\",\"\",\"\",\"\"
\"74718\",\"\",\"instructions\",\"1\",\"158764\",\"0.0-1.0\",\"[{\"\"page_index\"\":0,\"\"viewing_time\"\":74715}]\",\"\",\"\",\"\",\"\",\"\",\"\",\"\",\"\",\"\",\"\",\"\",\"\",\"\",\"\",\"\",\"\"
\"19518\",\"\",\"survey-multi-choice\",\"2\",\"178324\",\"0.0-2.0\",\"\",\"{\"\"Q0\"\":\"\"Da\"\",\"\"Q1\"\":\"\"Da\"\",\"\"Q2\"\":\"\"Da\"\",\"\"Q3\"\":\"\"Da\"\",\"\"Q4\"\":\"\"Da\"\",\"\"Q5\"\":\"\"Da\"\"}\",\"\",\"\",\"\",\"\",\"\",\"\",\"\",\"\",\"\",\"\",\"\",\"\",\"\",\"\",\"\"
\"\",\"\",\"bio\",\"3\",\"186872\",\"0.0-3.0\",\"\",\"{\"\"age\"\":\"\"20\"\",\"\"gender\"\":\"\"m\"\",\"\"specify\"\":\"\"\"\"}\",\"\",\"\",\"\",\"\",\"\",\"\",\"\",\"\",\"\",\"\",\"\",\"\",\"\",\"\",\"\"
\"\",\"\",\"approach-retreat\",\"4\",\"194418\",\"0.0-4.0\",\"\",\"\",\"3-2\",\"6022\",\"37\",\"0\",\"Training\",\"Stims/Figures/74-J-10-4.bmp\",\"zasaza\",\"Right\",\"39\",\"1\",\"1\",\"6B\",\"C2\",\"C\",\"1\"
\"\",\"\",\"approach-retreat\",\"5\",\"204773\",\"0.0-5.0\",\"\",\"\",\"3-2\",\"8821\",\"38\",\"0\",\"Training\",\"Stims/Figures/128-J-10-3.bmp\",\"za:saza\",\"Down\",\"40\",\"1\",\"2\",\"6B\",\"C2\",\"C\",\"2\"
\"\",\"\",\"approach-retreat\",\"6\",\"211054\",\"0.0-6.0\",\"\",\"\",\"3-2\",\"4762\",\"37\",\"1\",\"Training\",\"Stims/Figures/102-J-10-4.bmp\",\"zaha:za\",\"Left\",\"37\",\"1\",\"3\",\"6B\",\"C2\",\"C\",\"3\"
\"\",\"\",\"approach-retreat\",\"7\",\"218775\",\"0.0-7.0\",\"\",\"\",\"3-2\",\"6188\",\"39\",\"1\",\"Training\",\"Stims/Figures/100-C-30-3.bmp\",\"fa:fa:sha\",\"Left\",\"39\",\"1\",\"4\",\"6B\",\"C1\",\"C\",\"4\"
\"\",\"\",\"approach-retreat\",\"8\",\"224983\",\"0.0-8.0\",\"\",\"\",\"3-2\",\"4683\",\"40\",\"1\",\"Training\",\"Stims/Figures/74-C-20-4.bmp\",\"va:fasha\",\"Up\",\"40\",\"1\",\"5\",\"6B\",\"C1\",\"C\",\"5\"
\"\",\"\",\"approach-retreat\",\"9\",\"232160\",\"0.0-9.0\",\"\",\"\",\"3-2\",\"5651\",\"40\",\"0\",\"Training\",\"Stims/Figures/71-C-30-1.bmp\",\"va:fava\",\"Down\",\"38\",\"1\",\"6\",\"6B\",\"C1\",\"C\",\"6\"
\"\",\"\",\"approach-retreat\",\"10\",\"238073\",\"0.0-10.0\",\"\",\"\",\"3-2\",\"4396\",\"39\",\"1\",\"Training\",\"Stims/Figures/102-C-20-4.bmp\",\"fafasha\",\"Left\",\"39\",\"1\",\"7\",\"6B\",\"C1\",\"C\",\"7\"
\"\",\"\",\"approach-retreat\",\"11\",\"245358\",\"0.0-11.0\",\"\",\"\",\"3-2\",\"5763\",\"39\",\"1\",\"Training\",\"Stims/Figures/71-J-0-1.bmp\",\"sa:haza\",\"Right\",\"39\",\"1\",\"8\",\"6B\",\"C2\",\"C\",\"8\"
\"\",\"\",\"approach-retreat\",\"12\",\"251318\",\"0.0-12.0\",\"\",\"\",\"3-2\",\"4447\",\"38\",\"1\",\"Training\",\"Stims/Figures/86-C-30-1.bmp\",\"vasha:sha\",\"Down\",\"38\",\"1\",\"9\",\"6B\",\"C1\",\"C\",\"9\"
\"\",\"\",\"approach-retreat\",\"13\",\"258313\",\"0.0-13.0\",\"\",\"\",\"3-2\",\"5474\",\"38\",\"1\",\"Training\",\"Stims/Figures/84-J-0-2.bmp\",\"sa:ha:ha\",\"Up\",\"38\",\"1\",\"10\",\"6B\",\"C2\",\"C\",\"10\"
\"\",\"\",\"approach-retreat\",\"14\",\"265231\",\"0.0-14.0\",\"\",\"\",\"3-2\",\"5397\",\"40\",\"1\",\"Training\",\"Stims/Figures/128-C-30-3.bmp\",\"fa:fava\",\"Up\",\"40\",\"1\",\"11\",\"6B\",\"C1\",\"C\",\"11\"
\"\",\"\",\"approach-retreat\",\"15\",\"271625\",\"0.0-15.0\",\"\",\"\",\"3-2\",\"4867\",\"38\",\"1\",\"Training\",\"Stims/Figures/94-J-0-2.bmp\",\"zahaza\",\"Up\",\"38\",\"1\",\"12\",\"6B\",\"C2\",\"C\",\"12\"
\"\",\"\",\"approach-retreat\",\"16\",\"277576\",\"0.0-16.0\",\"\",\"\",\"3-2\",\"4441\",\"40\",\"1\",\"Training\",\"Stims/Figures/86-J-0-1.bmp\",\"sa:sa:ha\",\"Down\",\"40\",\"1\",\"13\",\"6B\",\"C2\",\"C\",\"13\"
\"\",\"\",\"approach-retreat\",\"17\",\"283691\",\"0.0-17.0\",\"\",\"\",\"3-2\",\"4592\",\"39\",\"1\",\"Training\",\"Stims/Figures/84-C-20-2.bmp\",\"vafa:va\",\"Left\",\"39\",\"1\",\"14\",\"6B\",\"C1\",\"C\",\"14\"
\"\",\"\",\"approach-retreat\",\"18\",\"289768\",\"0.0-18.0\",\"\",\"\",\"3-2\",\"4558\",\"39\",\"0\",\"Training\",\"Stims/Figures/94-C-20-2.bmp\",\"va:sha:sha\",\"Right\",\"37\",\"1\",\"15\",\"6B\",\"C1\",\"C\",\"15\"
\"\",\"\",\"approach-retreat\",\"19\",\"296122\",\"0.0-19.0\",\"\",\"\",\"3-2\",\"4842\",\"39\",\"1\",\"Training\",\"Stims/Figures/100-J-10-3.bmp\",\"za:ha:ha\",\"Right\",\"39\",\"1\",\"16\",\"6B\",\"C2\",\"C\",\"16\"
\"\",\"\",\"approach-retreat\",\"20\",\"303315\",\"0.0-20.0\",\"\",\"\",\"3-2\",\"5661\",\"38\",\"0\",\"Training\",\"Stims/Figures/94-C-20-2.bmp\",\"va:sha:sha\",\"Up\",\"40\",\"2\",\"1\",\"6B\",\"C1\",\"C\",\"17\"
\"\",\"\",\"approach-retreat\",\"21\",\"309628\",\"0.0-21.0\",\"\",\"\",\"3-2\",\"4781\",\"39\",\"0\",\"Training\",\"Stims/Figures/100-J-10-3.bmp\",\"za:ha:ha\",\"Left\",\"37\",\"2\",\"2\",\"6B\",\"C2\",\"C\",\"18\"
\"\",\"\",\"approach-retreat\",\"22\",\"315823\",\"0.0-22.0\",\"\",\"\",\"3-2\",\"4682\",\"38\",\"1\",\"Training\",\"Stims/Figures/74-C-20-4.bmp\",\"va:fasha\",\"Down\",\"38\",\"2\",\"3\",\"6B\",\"C1\",\"C\",\"19\"
\"\",\"\",\"approach-retreat\",\"23\",\"322201\",\"0.0-23.0\",\"\",\"\",\"3-2\",\"4872\",\"37\",\"1\",\"Training\",\"Stims/Figures/71-C-30-1.bmp\",\"va:fava\",\"Right\",\"37\",\"2\",\"4\",\"6B\",\"C1\",\"C\",\"20\"
\"\",\"\",\"approach-retreat\",\"24\",\"328810\",\"0.0-24.0\",\"\",\"\",\"3-2\",\"5082\",\"39\",\"1\",\"Training\",\"Stims/Figures/94-J-0-2.bmp\",\"zahaza\",\"Right\",\"39\",\"2\",\"5\",\"6B\",\"C2\",\"C\",\"21\"
\"\",\"\",\"approach-retreat\",\"25\",\"335190\",\"0.0-25.0\",\"\",\"\",\"3-2\",\"4859\",\"38\",\"1\",\"Training\",\"Stims/Figures/128-J-10-3.bmp\",\"za:saza\",\"Up\",\"38\",\"2\",\"6\",\"6B\",\"C2\",\"C\",\"22\"
\"\",\"\",\"approach-retreat\",\"26\",\"342947\",\"0.0-26.0\",\"\",\"\",\"3-2\",\"6240\",\"37\",\"0\",\"Training\",\"Stims/Figures/102-C-20-4.bmp\",\"fafasha\",\"Left\",\"39\",\"2\",\"7\",\"6B\",\"C1\",\"C\",\"23\"
\"\",\"\",\"approach-retreat\",\"27\",\"348971\",\"0.0-27.0\",\"\",\"\",\"3-2\",\"4495\",\"38\",\"1\",\"Training\",\"Stims/Figures/74-J-10-4.bmp\",\"zasaza\",\"Up\",\"38\",\"2\",\"8\",\"6B\",\"C2\",\"C\",\"24\"
\"\",\"\",\"approach-retreat\",\"28\",\"355789\",\"0.0-28.0\",\"\",\"\",\"3-2\",\"5303\",\"38\",\"1\",\"Training\",\"Stims/Figures/84-C-20-2.bmp\",\"vafa:va\",\"Down\",\"38\",\"2\",\"9\",\"6B\",\"C1\",\"C\",\"25\"
\"\",\"\",\"approach-retreat\",\"29\",\"362404\",\"0.0-29.0\",\"\",\"\",\"3-2\",\"5094\",\"40\",\"1\",\"Training\",\"Stims/Figures/100-C-30-3.bmp\",\"fa:fa:sha\",\"Up\",\"40\",\"2\",\"10\",\"6B\",\"C1\",\"C\",\"26\"
\"\",\"\",\"approach-retreat\",\"30\",\"372159\",\"0.0-30.0\",\"\",\"\",\"3-2\",\"8243\",\"39\",\"0\",\"Training\",\"Stims/Figures/128-C-30-3.bmp\",\"fa:fava\",\"Right\",\"37\",\"2\",\"11\",\"6B\",\"C1\",\"C\",\"27\"
\"\",\"\",\"approach-retreat\",\"31\",\"378737\",\"0.0-31.0\",\"\",\"\",\"3-2\",\"5053\",\"39\",\"1\",\"Training\",\"Stims/Figures/102-J-10-4.bmp\",\"zaha:za\",\"Right\",\"39\",\"2\",\"12\",\"6B\",\"C2\",\"C\",\"28\"
\"\",\"\",\"approach-retreat\",\"32\",\"386094\",\"0.0-32.0\",\"\",\"\",\"3-2\",\"5833\",\"37\",\"1\",\"Training\",\"Stims/Figures/86-J-0-1.bmp\",\"sa:sa:ha\",\"Left\",\"37\",\"2\",\"13\",\"6B\",\"C2\",\"C\",\"29\"
\"\",\"\",\"approach-retreat\",\"33\",\"392436\",\"0.0-33.0\",\"\",\"\",\"3-2\",\"4831\",\"38\",\"1\",\"Training\",\"Stims/Figures/86-C-30-1.bmp\",\"vasha:sha\",\"Down\",\"38\",\"2\",\"14\",\"6B\",\"C1\",\"C\",\"30\"
\"\",\"\",\"approach-retreat\",\"34\",\"398043\",\"0.0-34.0\",\"\",\"\",\"3-2\",\"4092\",\"38\",\"0\",\"Training\",\"Stims/Figures/84-J-0-2.bmp\",\"sa:ha:ha\",\"Down\",\"40\",\"2\",\"15\",\"6B\",\"C2\",\"C\",\"31\"
\"\",\"\",\"approach-retreat\",\"35\",\"404199\",\"0.0-35.0\",\"\",\"\",\"3-2\",\"4646\",\"37\",\"1\",\"Training\",\"Stims/Figures/71-J-0-1.bmp\",\"sa:haza\",\"Left\",\"37\",\"2\",\"16\",\"6B\",\"C2\",\"C\",\"32\"
\"\",\"\",\"approach-retreat\",\"36\",\"410301\",\"0.0-36.0\",\"\",\"\",\"3-2\",\"4577\",\"37\",\"1\",\"Training\",\"Stims/Figures/86-C-30-1.bmp\",\"vasha:sha\",\"Right\",\"37\",\"3\",\"1\",\"6B\",\"C1\",\"C\",\"33\"
\"\",\"\",\"approach-retreat\",\"37\",\"419176\",\"0.0-37.0\",\"\",\"\",\"3-2\",\"7361\",\"37\",\"1\",\"Training\",\"Stims/Figures/71-J-0-1.bmp\",\"sa:haza\",\"Left\",\"37\",\"3\",\"2\",\"6B\",\"C2\",\"C\",\"34\"
\"\",\"\",\"approach-retreat\",\"38\",\"426220\",\"0.0-38.0\",\"\",\"\",\"3-2\",\"5523\",\"37\",\"1\",\"Training\",\"Stims/Figures/102-J-10-4.bmp\",\"zaha:za\",\"Left\",\"37\",\"3\",\"3\",\"6B\",\"C2\",\"C\",\"35\"
\"\",\"\",\"approach-retreat\",\"39\",\"435388\",\"0.0-39.0\",\"\",\"\",\"3-2\",\"7641\",\"38\",\"1\",\"Training\",\"Stims/Figures/100-J-10-3.bmp\",\"za:ha:ha\",\"Up\",\"38\",\"3\",\"4\",\"6B\",\"C2\",\"C\",\"36\"
\"\",\"\",\"approach-retreat\",\"40\",\"441432\",\"0.0-40.0\",\"\",\"\",\"3-2\",\"4523\",\"37\",\"1\",\"Training\",\"Stims/Figures/74-C-20-4.bmp\",\"va:fasha\",\"Right\",\"37\",\"3\",\"5\",\"6B\",\"C1\",\"C\",\"37\"
\"\",\"\",\"approach-retreat\",\"41\",\"447417\",\"0.0-41.0\",\"\",\"\",\"3-2\",\"4455\",\"39\",\"1\",\"Training\",\"Stims/Figures/71-C-30-1.bmp\",\"va:fava\",\"Left\",\"39\",\"3\",\"6\",\"6B\",\"C1\",\"C\",\"38\"
\"\",\"\",\"approach-retreat\",\"42\",\"456003\",\"0.0-42.0\",\"\",\"\",\"3-2\",\"7076\",\"38\",\"1\",\"Training\",\"Stims/Figures/84-C-20-2.bmp\",\"vafa:va\",\"Down\",\"38\",\"3\",\"7\",\"6B\",\"C1\",\"C\",\"39\"
\"\",\"\",\"approach-retreat\",\"43\",\"461684\",\"0.0-43.0\",\"\",\"\",\"3-2\",\"4172\",\"39\",\"1\",\"Training\",\"Stims/Figures/128-C-30-3.bmp\",\"fa:fava\",\"Left\",\"39\",\"3\",\"8\",\"6B\",\"C1\",\"C\",\"40\"
\"\",\"\",\"approach-retreat\",\"44\",\"469232\",\"0.0-44.0\",\"\",\"\",\"3-2\",\"6032\",\"38\",\"1\",\"Training\",\"Stims/Figures/102-C-20-4.bmp\",\"fafasha\",\"Down\",\"38\",\"3\",\"9\",\"6B\",\"C1\",\"C\",\"41\"
\"\",\"\",\"approach-retreat\",\"45\",\"476387\",\"0.0-45.0\",\"\",\"\",\"3-2\",\"5629\",\"38\",\"1\",\"Training\",\"Stims/Figures/84-J-0-2.bmp\",\"sa:ha:ha\",\"Up\",\"38\",\"3\",\"10\",\"6B\",\"C2\",\"C\",\"42\"
\"\",\"\",\"approach-retreat\",\"46\",\"482571\",\"0.0-46.0\",\"\",\"\",\"3-2\",\"4666\",\"38\",\"1\",\"Training\",\"Stims/Figures/74-J-10-4.bmp\",\"zasaza\",\"Up\",\"38\",\"3\",\"11\",\"6B\",\"C2\",\"C\",\"43\"
\"\",\"\",\"approach-retreat\",\"47\",\"491192\",\"0.0-47.0\",\"\",\"\",\"3-2\",\"7101\",\"38\",\"0\",\"Training\",\"Stims/Figures/94-C-20-2.bmp\",\"va:sha:sha\",\"Up\",\"40\",\"3\",\"12\",\"6B\",\"C1\",\"C\",\"44\"
\"\",\"\",\"approach-retreat\",\"48\",\"497650\",\"0.0-48.0\",\"\",\"\",\"3-2\",\"4927\",\"40\",\"1\",\"Training\",\"Stims/Figures/94-J-0-2.bmp\",\"zahaza\",\"Down\",\"40\",\"3\",\"13\",\"6B\",\"C2\",\"C\",\"45\"
\"\",\"\",\"approach-retreat\",\"49\",\"503581\",\"0.0-49.0\",\"\",\"\",\"3-2\",\"4418\",\"40\",\"1\",\"Training\",\"Stims/Figures/128-J-10-3.bmp\",\"za:saza\",\"Down\",\"40\",\"3\",\"14\",\"6B\",\"C2\",\"C\",\"46\"
\"\",\"\",\"approach-retreat\",\"50\",\"509834\",\"0.0-50.0\",\"\",\"\",\"3-2\",\"4738\",\"37\",\"0\",\"Training\",\"Stims/Figures/86-J-0-1.bmp\",\"sa:sa:ha\",\"Right\",\"39\",\"3\",\"15\",\"6B\",\"C2\",\"C\",\"47\"
\"\",\"\",\"approach-retreat\",\"51\",\"516075\",\"0.0-51.0\",\"\",\"\",\"3-2\",\"4727\",\"37\",\"1\",\"Training\",\"Stims/Figures/100-C-30-3.bmp\",\"fa:fa:sha\",\"Right\",\"37\",\"3\",\"16\",\"6B\",\"C1\",\"C\",\"48\"
\"\",\"\",\"approach-retreat\",\"52\",\"522231\",\"0.0-52.0\",\"\",\"\",\"3-2\",\"4647\",\"39\",\"1\",\"Training\",\"Stims/Figures/100-J-10-3.bmp\",\"za:ha:ha\",\"Right\",\"39\",\"4\",\"1\",\"6B\",\"C2\",\"C\",\"49\"
\"\",\"\",\"approach-retreat\",\"53\",\"528629\",\"0.0-53.0\",\"\",\"\",\"3-2\",\"4881\",\"40\",\"1\",\"Training\",\"Stims/Figures/74-J-10-4.bmp\",\"zasaza\",\"Down\",\"40\",\"4\",\"2\",\"6B\",\"C2\",\"C\",\"50\"
\"\",\"\",\"approach-retreat\",\"54\",\"534214\",\"0.0-54.0\",\"\",\"\",\"3-2\",\"4066\",\"40\",\"0\",\"Training\",\"Stims/Figures/86-C-30-1.bmp\",\"vasha:sha\",\"Down\",\"38\",\"4\",\"3\",\"6B\",\"C1\",\"C\",\"51\"
\"\",\"\",\"approach-retreat\",\"55\",\"539870\",\"0.0-55.0\",\"\",\"\",\"3-2\",\"4140\",\"38\",\"1\",\"Training\",\"Stims/Figures/71-J-0-1.bmp\",\"sa:haza\",\"Up\",\"38\",\"4\",\"4\",\"6B\",\"C2\",\"C\",\"52\"
\"\",\"\",\"approach-retreat\",\"56\",\"546084\",\"0.0-56.0\",\"\",\"\",\"3-2\",\"4699\",\"40\",\"0\",\"Training\",\"Stims/Figures/94-C-20-2.bmp\",\"va:sha:sha\",\"Down\",\"38\",\"4\",\"5\",\"6B\",\"C1\",\"C\",\"53\"
\"\",\"\",\"approach-retreat\",\"57\",\"552464\",\"0.0-57.0\",\"\",\"\",\"3-2\",\"4866\",\"39\",\"1\",\"Training\",\"Stims/Figures/94-J-0-2.bmp\",\"zahaza\",\"Right\",\"39\",\"4\",\"6\",\"6B\",\"C2\",\"C\",\"54\"
\"\",\"\",\"approach-retreat\",\"58\",\"558906\",\"0.0-58.0\",\"\",\"\",\"3-2\",\"4919\",\"39\",\"1\",\"Training\",\"Stims/Figures/84-C-20-2.bmp\",\"vafa:va\",\"Left\",\"39\",\"4\",\"7\",\"6B\",\"C1\",\"C\",\"55\"
\"\",\"\",\"approach-retreat\",\"59\",\"565261\",\"0.0-59.0\",\"\",\"\",\"3-2\",\"4830\",\"39\",\"1\",\"Training\",\"Stims/Figures/128-J-10-3.bmp\",\"za:saza\",\"Right\",\"39\",\"4\",\"8\",\"6B\",\"C2\",\"C\",\"56\"
\"\",\"\",\"approach-retreat\",\"60\",\"571477\",\"0.0-60.0\",\"\",\"\",\"3-2\",\"4700\",\"38\",\"0\",\"Training\",\"Stims/Figures/100-C-30-3.bmp\",\"fa:fa:sha\",\"Up\",\"40\",\"4\",\"9\",\"6B\",\"C1\",\"C\",\"57\"
\"\",\"\",\"approach-retreat\",\"61\",\"577875\",\"0.0-61.0\",\"\",\"\",\"3-2\",\"4886\",\"37\",\"1\",\"Training\",\"Stims/Figures/86-J-0-1.bmp\",\"sa:sa:ha\",\"Left\",\"37\",\"4\",\"10\",\"6B\",\"C2\",\"C\",\"58\"
\"\",\"\",\"approach-retreat\",\"62\",\"583730\",\"0.0-62.0\",\"\",\"\",\"3-2\",\"4347\",\"38\",\"1\",\"Training\",\"Stims/Figures/84-J-0-2.bmp\",\"sa:ha:ha\",\"Up\",\"38\",\"4\",\"11\",\"6B\",\"C2\",\"C\",\"59\"
\"\",\"\",\"approach-retreat\",\"63\",\"589627\",\"0.0-63.0\",\"\",\"\",\"3-2\",\"4384\",\"39\",\"1\",\"Training\",\"Stims/Figures/102-J-10-4.bmp\",\"zaha:za\",\"Right\",\"39\",\"4\",\"12\",\"6B\",\"C2\",\"C\",\"60\"
\"\",\"\",\"approach-retreat\",\"64\",\"597760\",\"0.0-64.0\",\"\",\"\",\"3-2\",\"6613\",\"39\",\"1\",\"Training\",\"Stims/Figures/74-C-20-4.bmp\",\"va:fasha\",\"Left\",\"39\",\"4\",\"13\",\"6B\",\"C1\",\"C\",\"61\"
\"\",\"\",\"approach-retreat\",\"65\",\"604196\",\"0.0-65.0\",\"\",\"\",\"3-2\",\"4919\",\"39\",\"1\",\"Training\",\"Stims/Figures/71-C-30-1.bmp\",\"va:fava\",\"Left\",\"39\",\"4\",\"14\",\"6B\",\"C1\",\"C\",\"62\"
\"\",\"\",\"approach-retreat\",\"66\",\"610144\",\"0.0-66.0\",\"\",\"\",\"3-2\",\"4430\",\"40\",\"1\",\"Training\",\"Stims/Figures/128-C-30-3.bmp\",\"fa:fava\",\"Up\",\"40\",\"4\",\"15\",\"6B\",\"C1\",\"C\",\"63\"
\"\",\"\",\"approach-retreat\",\"67\",\"616051\",\"0.0-67.0\",\"\",\"\",\"3-2\",\"4391\",\"38\",\"1\",\"Training\",\"Stims/Figures/102-C-20-4.bmp\",\"fafasha\",\"Down\",\"38\",\"4\",\"16\",\"6B\",\"C1\",\"C\",\"64\"
\"\",\"\",\"approach-retreat\",\"68\",\"622253\",\"0.0-68.0\",\"\",\"\",\"3-2\",\"4679\",\"39\",\"1\",\"Training\",\"Stims/Figures/94-J-0-2.bmp\",\"zahaza\",\"Right\",\"39\",\"5\",\"1\",\"6B\",\"C2\",\"C\",\"65\"
\"\",\"\",\"approach-retreat\",\"69\",\"628076\",\"0.0-69.0\",\"\",\"\",\"3-2\",\"4296\",\"37\",\"0\",\"Training\",\"Stims/Figures/128-C-30-3.bmp\",\"fa:fava\",\"Left\",\"39\",\"5\",\"2\",\"6B\",\"C1\",\"C\",\"66\"
\"\",\"\",\"approach-retreat\",\"70\",\"635297\",\"0.0-70.0\",\"\",\"\",\"3-2\",\"5710\",\"37\",\"1\",\"Training\",\"Stims/Figures/84-J-0-2.bmp\",\"sa:ha:ha\",\"Left\",\"37\",\"5\",\"3\",\"6B\",\"C2\",\"C\",\"67\"
\"\",\"\",\"approach-retreat\",\"71\",\"641444\",\"0.0-71.0\",\"\",\"\",\"3-2\",\"4638\",\"40\",\"1\",\"Training\",\"Stims/Figures/102-J-10-4.bmp\",\"zaha:za\",\"Down\",\"40\",\"5\",\"4\",\"6B\",\"C2\",\"C\",\"68\"
\"\",\"\",\"approach-retreat\",\"72\",\"647443\",\"0.0-72.0\",\"\",\"\",\"3-2\",\"4471\",\"39\",\"1\",\"Training\",\"Stims/Figures/74-J-10-4.bmp\",\"zasaza\",\"Right\",\"39\",\"5\",\"5\",\"6B\",\"C2\",\"C\",\"69\"
\"\",\"\",\"approach-retreat\",\"73\",\"662724\",\"0.0-73.0\",\"\",\"\",\"3-2\",\"13747\",\"40\",\"1\",\"Training\",\"Stims/Figures/94-C-20-2.bmp\",\"va:sha:sha\",\"Up\",\"40\",\"5\",\"6\",\"6B\",\"C1\",\"C\",\"70\"
\"\",\"\",\"approach-retreat\",\"74\",\"669185\",\"0.0-74.0\",\"\",\"\",\"3-2\",\"4952\",\"40\",\"1\",\"Training\",\"Stims/Figures/102-C-20-4.bmp\",\"fafasha\",\"Up\",\"40\",\"5\",\"7\",\"6B\",\"C1\",\"C\",\"71\"
\"\",\"\",\"approach-retreat\",\"75\",\"675693\",\"0.0-75.0\",\"\",\"\",\"3-2\",\"4984\",\"40\",\"1\",\"Training\",\"Stims/Figures/100-J-10-3.bmp\",\"za:ha:ha\",\"Down\",\"40\",\"5\",\"8\",\"6B\",\"C2\",\"C\",\"72\"
\"\",\"\",\"approach-retreat\",\"76\",\"681398\",\"0.0-76.0\",\"\",\"\",\"3-2\",\"4187\",\"39\",\"1\",\"Training\",\"Stims/Figures/100-C-30-3.bmp\",\"fa:fa:sha\",\"Left\",\"39\",\"5\",\"9\",\"6B\",\"C1\",\"C\",\"73\"
\"\",\"\",\"approach-retreat\",\"77\",\"687060\",\"0.0-77.0\",\"\",\"\",\"3-2\",\"4145\",\"40\",\"0\",\"Training\",\"Stims/Figures/74-C-20-4.bmp\",\"va:fasha\",\"Down\",\"38\",\"5\",\"10\",\"6B\",\"C1\",\"C\",\"74\"
\"\",\"\",\"approach-retreat\",\"78\",\"693607\",\"0.0-78.0\",\"\",\"\",\"3-2\",\"5035\",\"37\",\"1\",\"Training\",\"Stims/Figures/86-J-0-1.bmp\",\"sa:sa:ha\",\"Left\",\"37\",\"5\",\"11\",\"6B\",\"C2\",\"C\",\"75\"
\"\",\"\",\"approach-retreat\",\"79\",\"699591\",\"0.0-79.0\",\"\",\"\",\"3-2\",\"4463\",\"37\",\"1\",\"Training\",\"Stims/Figures/84-C-20-2.bmp\",\"vafa:va\",\"Right\",\"37\",\"5\",\"12\",\"6B\",\"C1\",\"C\",\"76\"
\"\",\"\",\"approach-retreat\",\"80\",\"705658\",\"0.0-80.0\",\"\",\"\",\"3-2\",\"4544\",\"40\",\"1\",\"Training\",\"Stims/Figures/71-J-0-1.bmp\",\"sa:haza\",\"Down\",\"40\",\"5\",\"13\",\"6B\",\"C2\",\"C\",\"77\"
\"\",\"\",\"approach-retreat\",\"81\",\"711439\",\"0.0-81.0\",\"\",\"\",\"3-2\",\"4269\",\"37\",\"1\",\"Training\",\"Stims/Figures/71-C-30-1.bmp\",\"va:fava\",\"Right\",\"37\",\"5\",\"14\",\"6B\",\"C1\",\"C\",\"78\"
\"\",\"\",\"approach-retreat\",\"82\",\"719554\",\"0.0-82.0\",\"\",\"\",\"3-2\",\"6585\",\"38\",\"1\",\"Training\",\"Stims/Figures/128-J-10-3.bmp\",\"za:saza\",\"Up\",\"38\",\"5\",\"15\",\"6B\",\"C2\",\"C\",\"79\"
\"\",\"\",\"approach-retreat\",\"83\",\"725373\",\"0.0-83.0\",\"\",\"\",\"3-2\",\"4300\",\"40\",\"1\",\"Training\",\"Stims/Figures/86-C-30-1.bmp\",\"vasha:sha\",\"Up\",\"40\",\"5\",\"16\",\"6B\",\"C1\",\"C\",\"80\"
\"\",\"\",\"approach-retreat\",\"84\",\"731341\",\"0.0-84.0\",\"\",\"\",\"3-2\",\"4447\",\"38\",\"1\",\"Training\",\"Stims/Figures/102-J-10-4.bmp\",\"zaha:za\",\"Up\",\"38\",\"6\",\"1\",\"6B\",\"C2\",\"C\",\"81\"
\"\",\"\",\"approach-retreat\",\"85\",\"737926\",\"0.0-85.0\",\"\",\"\",\"3-2\",\"5062\",\"39\",\"1\",\"Training\",\"Stims/Figures/84-J-0-2.bmp\",\"sa:ha:ha\",\"Right\",\"39\",\"6\",\"2\",\"6B\",\"C2\",\"C\",\"82\"
\"\",\"\",\"approach-retreat\",\"86\",\"743955\",\"0.0-86.0\",\"\",\"\",\"3-2\",\"4513\",\"38\",\"1\",\"Training\",\"Stims/Figures/102-C-20-4.bmp\",\"fafasha\",\"Down\",\"38\",\"6\",\"3\",\"6B\",\"C1\",\"C\",\"83\"
\"\",\"\",\"approach-retreat\",\"87\",\"750028\",\"0.0-87.0\",\"\",\"\",\"3-2\",\"4561\",\"40\",\"1\",\"Training\",\"Stims/Figures/74-C-20-4.bmp\",\"va:fasha\",\"Up\",\"40\",\"6\",\"4\",\"6B\",\"C1\",\"C\",\"84\"
\"\",\"\",\"approach-retreat\",\"88\",\"756062\",\"0.0-88.0\",\"\",\"\",\"3-2\",\"4521\",\"38\",\"1\",\"Training\",\"Stims/Figures/128-J-10-3.bmp\",\"za:saza\",\"Up\",\"38\",\"6\",\"5\",\"6B\",\"C2\",\"C\",\"85\"
\"\",\"\",\"approach-retreat\",\"89\",\"762090\",\"0.0-89.0\",\"\",\"\",\"3-2\",\"4518\",\"38\",\"1\",\"Training\",\"Stims/Figures/94-C-20-2.bmp\",\"va:sha:sha\",\"Down\",\"38\",\"6\",\"6\",\"6B\",\"C1\",\"C\",\"86\"
\"\",\"\",\"approach-retreat\",\"90\",\"768956\",\"0.0-90.0\",\"\",\"\",\"3-2\",\"5344\",\"37\",\"1\",\"Training\",\"Stims/Figures/128-C-30-3.bmp\",\"fa:fava\",\"Right\",\"37\",\"6\",\"7\",\"6B\",\"C1\",\"C\",\"87\"
\"\",\"\",\"approach-retreat\",\"91\",\"774935\",\"0.0-91.0\",\"\",\"\",\"3-2\",\"4454\",\"37\",\"1\",\"Training\",\"Stims/Figures/100-J-10-3.bmp\",\"za:ha:ha\",\"Left\",\"37\",\"6\",\"8\",\"6B\",\"C2\",\"C\",\"88\"
\"\",\"\",\"approach-retreat\",\"92\",\"781487\",\"0.0-92.0\",\"\",\"\",\"3-2\",\"5033\",\"39\",\"1\",\"Training\",\"Stims/Figures/84-C-20-2.bmp\",\"vafa:va\",\"Left\",\"39\",\"6\",\"9\",\"6B\",\"C1\",\"C\",\"89\"
\"\",\"\",\"approach-retreat\",\"93\",\"787212\",\"0.0-93.0\",\"\",\"\",\"3-2\",\"4204\",\"37\",\"1\",\"Training\",\"Stims/Figures/86-J-0-1.bmp\",\"sa:sa:ha\",\"Left\",\"37\",\"6\",\"10\",\"6B\",\"C2\",\"C\",\"90\"
\"\",\"\",\"approach-retreat\",\"94\",\"792951\",\"0.0-94.0\",\"\",\"\",\"3-2\",\"4213\",\"38\",\"1\",\"Training\",\"Stims/Figures/86-C-30-1.bmp\",\"vasha:sha\",\"Down\",\"38\",\"6\",\"11\",\"6B\",\"C1\",\"C\",\"91\"
\"\",\"\",\"approach-retreat\",\"95\",\"799028\",\"0.0-95.0\",\"\",\"\",\"3-2\",\"4559\",\"37\",\"1\",\"Training\",\"Stims/Figures/71-C-30-1.bmp\",\"va:fava\",\"Right\",\"37\",\"6\",\"12\",\"6B\",\"C1\",\"C\",\"92\"
\"\",\"\",\"approach-retreat\",\"96\",\"804820\",\"0.0-96.0\",\"\",\"\",\"3-2\",\"4268\",\"40\",\"1\",\"Training\",\"Stims/Figures/100-C-30-3.bmp\",\"fa:fa:sha\",\"Up\",\"40\",\"6\",\"13\",\"6B\",\"C1\",\"C\",\"93\"
\"\",\"\",\"approach-retreat\",\"97\",\"811082\",\"0.0-97.0\",\"\",\"\",\"3-2\",\"4732\",\"37\",\"1\",\"Training\",\"Stims/Figures/94-J-0-2.bmp\",\"zahaza\",\"Left\",\"37\",\"6\",\"14\",\"6B\",\"C2\",\"C\",\"94\"
\"\",\"\",\"approach-retreat\",\"98\",\"816785\",\"0.0-98.0\",\"\",\"\",\"3-2\",\"4174\",\"40\",\"1\",\"Training\",\"Stims/Figures/74-J-10-4.bmp\",\"zasaza\",\"Down\",\"40\",\"6\",\"15\",\"6B\",\"C2\",\"C\",\"95\"
\"\",\"\",\"approach-retreat\",\"99\",\"822565\",\"0.0-99.0\",\"\",\"\",\"3-2\",\"4257\",\"37\",\"0\",\"Training\",\"Stims/Figures/71-J-0-1.bmp\",\"sa:haza\",\"Right\",\"39\",\"6\",\"16\",\"6B\",\"C2\",\"C\",\"96\"
\"\",\"\",\"approach-retreat\",\"100\",\"828569\",\"0.0-100.0\",\"\",\"\",\"3-2\",\"4484\",\"39\",\"1\",\"Training\",\"Stims/Figures/71-C-30-1.bmp\",\"va:fava\",\"Left\",\"39\",\"7\",\"1\",\"6B\",\"C1\",\"C\",\"97\"
\"\",\"\",\"approach-retreat\",\"101\",\"835069\",\"0.0-101.0\",\"\",\"\",\"3-2\",\"4988\",\"39\",\"1\",\"Training\",\"Stims/Figures/84-J-0-2.bmp\",\"sa:ha:ha\",\"Right\",\"39\",\"7\",\"2\",\"6B\",\"C2\",\"C\",\"98\"
\"\",\"\",\"approach-retreat\",\"102\",\"841081\",\"0.0-102.0\",\"\",\"\",\"3-2\",\"4491\",\"40\",\"1\",\"Training\",\"Stims/Figures/74-J-10-4.bmp\",\"zasaza\",\"Down\",\"40\",\"7\",\"3\",\"6B\",\"C2\",\"C\",\"99\"
\"\",\"\",\"approach-retreat\",\"103\",\"847383\",\"0.0-103.0\",\"\",\"\",\"3-2\",\"4773\",\"39\",\"1\",\"Training\",\"Stims/Figures/100-C-30-3.bmp\",\"fa:fa:sha\",\"Left\",\"39\",\"7\",\"4\",\"6B\",\"C1\",\"C\",\"100\"
\"\",\"\",\"approach-retreat\",\"104\",\"853233\",\"0.0-104.0\",\"\",\"\",\"3-2\",\"4334\",\"37\",\"1\",\"Training\",\"Stims/Figures/94-J-0-2.bmp\",\"zahaza\",\"Left\",\"37\",\"7\",\"5\",\"6B\",\"C2\",\"C\",\"101\"
\"\",\"\",\"approach-retreat\",\"105\",\"859385\",\"0.0-105.0\",\"\",\"\",\"3-2\",\"4629\",\"38\",\"1\",\"Training\",\"Stims/Figures/86-J-0-1.bmp\",\"sa:sa:ha\",\"Up\",\"38\",\"7\",\"6\",\"6B\",\"C2\",\"C\",\"102\"
\"\",\"\",\"approach-retreat\",\"106\",\"865208\",\"0.0-106.0\",\"\",\"\",\"3-2\",\"4294\",\"40\",\"1\",\"Training\",\"Stims/Figures/102-J-10-4.bmp\",\"zaha:za\",\"Down\",\"40\",\"7\",\"7\",\"6B\",\"C2\",\"C\",\"103\"
\"\",\"\",\"approach-retreat\",\"107\",\"870949\",\"0.0-107.0\",\"\",\"\",\"3-2\",\"4224\",\"39\",\"1\",\"Training\",\"Stims/Figures/100-J-10-3.bmp\",\"za:ha:ha\",\"Right\",\"39\",\"7\",\"8\",\"6B\",\"C2\",\"C\",\"104\"
\"\",\"\",\"approach-retreat\",\"108\",\"876535\",\"0.0-108.0\",\"\",\"\",\"3-2\",\"4060\",\"39\",\"1\",\"Training\",\"Stims/Figures/71-J-0-1.bmp\",\"sa:haza\",\"Right\",\"39\",\"7\",\"9\",\"6B\",\"C2\",\"C\",\"105\"
\"\",\"\",\"approach-retreat\",\"109\",\"882834\",\"0.0-109.0\",\"\",\"\",\"3-2\",\"4775\",\"39\",\"1\",\"Training\",\"Stims/Figures/84-C-20-2.bmp\",\"vafa:va\",\"Left\",\"39\",\"7\",\"10\",\"6B\",\"C1\",\"C\",\"106\"
\"\",\"\",\"approach-retreat\",\"110\",\"889081\",\"0.0-110.0\",\"\",\"\",\"3-2\",\"4722\",\"40\",\"1\",\"Training\",\"Stims/Figures/86-C-30-1.bmp\",\"vasha:sha\",\"Up\",\"40\",\"7\",\"11\",\"6B\",\"C1\",\"C\",\"107\"
\"\",\"\",\"approach-retreat\",\"111\",\"895400\",\"0.0-111.0\",\"\",\"\",\"3-2\",\"4796\",\"40\",\"1\",\"Training\",\"Stims/Figures/128-J-10-3.bmp\",\"za:saza\",\"Down\",\"40\",\"7\",\"12\",\"6B\",\"C2\",\"C\",\"108\"
\"\",\"\",\"approach-retreat\",\"112\",\"901500\",\"0.0-112.0\",\"\",\"\",\"3-2\",\"4580\",\"38\",\"1\",\"Training\",\"Stims/Figures/102-C-20-4.bmp\",\"fafasha\",\"Down\",\"38\",\"7\",\"13\",\"6B\",\"C1\",\"C\",\"109\"
\"\",\"\",\"approach-retreat\",\"113\",\"910091\",\"0.0-113.0\",\"\",\"\",\"3-2\",\"7084\",\"40\",\"1\",\"Training\",\"Stims/Figures/128-C-30-3.bmp\",\"fa:fava\",\"Up\",\"40\",\"7\",\"14\",\"6B\",\"C1\",\"C\",\"110\"
\"\",\"\",\"approach-retreat\",\"114\",\"916495\",\"0.0-114.0\",\"\",\"\",\"3-2\",\"4883\",\"37\",\"1\",\"Training\",\"Stims/Figures/94-C-20-2.bmp\",\"va:sha:sha\",\"Right\",\"37\",\"7\",\"15\",\"6B\",\"C1\",\"C\",\"111\"
\"\",\"\",\"approach-retreat\",\"115\",\"922964\",\"0.0-115.0\",\"\",\"\",\"3-2\",\"4941\",\"40\",\"1\",\"Training\",\"Stims/Figures/74-C-20-4.bmp\",\"va:fasha\",\"Up\",\"40\",\"7\",\"16\",\"6B\",\"C1\",\"C\",\"112\"
\"\",\"\",\"approach-retreat\",\"116\",\"928866\",\"0.0-116.0\",\"\",\"\",\"3-2\",\"4372\",\"39\",\"1\",\"Training\",\"Stims/Figures/94-C-20-2.bmp\",\"va:sha:sha\",\"Left\",\"39\",\"8\",\"1\",\"6B\",\"C1\",\"C\",\"113\"
\"\",\"\",\"approach-retreat\",\"117\",\"935158\",\"0.0-117.0\",\"\",\"\",\"3-2\",\"4771\",\"40\",\"1\",\"Training\",\"Stims/Figures/128-J-10-3.bmp\",\"za:saza\",\"Down\",\"40\",\"8\",\"2\",\"6B\",\"C2\",\"C\",\"114\"
\"\",\"\",\"approach-retreat\",\"118\",\"941327\",\"0.0-118.0\",\"\",\"\",\"3-2\",\"4646\",\"40\",\"1\",\"Training\",\"Stims/Figures/94-J-0-2.bmp\",\"zahaza\",\"Down\",\"40\",\"8\",\"3\",\"6B\",\"C2\",\"C\",\"115\"
\"\",\"\",\"approach-retreat\",\"119\",\"947141\",\"0.0-119.0\",\"\",\"\",\"3-2\",\"4290\",\"38\",\"1\",\"Training\",\"Stims/Figures/100-C-30-3.bmp\",\"fa:fa:sha\",\"Down\",\"38\",\"8\",\"4\",\"6B\",\"C1\",\"C\",\"116\"
\"\",\"\",\"approach-retreat\",\"120\",\"953353\",\"0.0-120.0\",\"\",\"\",\"3-2\",\"4687\",\"39\",\"1\",\"Training\",\"Stims/Figures/71-C-30-1.bmp\",\"va:fava\",\"Left\",\"39\",\"8\",\"5\",\"6B\",\"C1\",\"C\",\"117\"
\"\",\"\",\"approach-retreat\",\"121\",\"959603\",\"0.0-121.0\",\"\",\"\",\"3-2\",\"4725\",\"38\",\"1\",\"Training\",\"Stims/Figures/100-J-10-3.bmp\",\"za:ha:ha\",\"Up\",\"38\",\"8\",\"6\",\"6B\",\"C2\",\"C\",\"118\"
\"\",\"\",\"approach-retreat\",\"122\",\"966413\",\"0.0-122.0\",\"\",\"\",\"3-2\",\"5288\",\"37\",\"1\",\"Training\",\"Stims/Figures/102-C-20-4.bmp\",\"fafasha\",\"Right\",\"37\",\"8\",\"7\",\"6B\",\"C1\",\"C\",\"119\"
\"\",\"\",\"approach-retreat\",\"123\",\"972334\",\"0.0-123.0\",\"\",\"\",\"3-2\",\"4401\",\"40\",\"1\",\"Training\",\"Stims/Figures/74-J-10-4.bmp\",\"zasaza\",\"Down\",\"40\",\"8\",\"8\",\"6B\",\"C2\",\"C\",\"120\"
\"\",\"\",\"approach-retreat\",\"124\",\"978829\",\"0.0-124.0\",\"\",\"\",\"3-2\",\"4964\",\"37\",\"1\",\"Training\",\"Stims/Figures/86-C-30-1.bmp\",\"vasha:sha\",\"Right\",\"37\",\"8\",\"9\",\"6B\",\"C1\",\"C\",\"121\"
\"\",\"\",\"approach-retreat\",\"125\",\"984844\",\"0.0-125.0\",\"\",\"\",\"3-2\",\"4493\",\"37\",\"1\",\"Training\",\"Stims/Figures/128-C-30-3.bmp\",\"fa:fava\",\"Right\",\"37\",\"8\",\"10\",\"6B\",\"C1\",\"C\",\"122\"
\"\",\"\",\"approach-retreat\",\"126\",\"990951\",\"0.0-126.0\",\"\",\"\",\"3-2\",\"4594\",\"38\",\"1\",\"Training\",\"Stims/Figures/84-J-0-2.bmp\",\"sa:ha:ha\",\"Up\",\"38\",\"8\",\"11\",\"6B\",\"C2\",\"C\",\"123\"
\"\",\"\",\"approach-retreat\",\"127\",\"997314\",\"0.0-127.0\",\"\",\"\",\"3-2\",\"4846\",\"38\",\"1\",\"Training\",\"Stims/Figures/71-J-0-1.bmp\",\"sa:haza\",\"Up\",\"38\",\"8\",\"12\",\"6B\",\"C2\",\"C\",\"124\"
\"\",\"\",\"approach-retreat\",\"128\",\"1002995\",\"0.0-128.0\",\"\",\"\",\"3-2\",\"4152\",\"40\",\"1\",\"Training\",\"Stims/Figures/84-C-20-2.bmp\",\"vafa:va\",\"Up\",\"40\",\"8\",\"13\",\"6B\",\"C1\",\"C\",\"125\"
\"\",\"\",\"approach-retreat\",\"129\",\"1009093\",\"0.0-129.0\",\"\",\"\",\"3-2\",\"4574\",\"39\",\"1\",\"Training\",\"Stims/Figures/74-C-20-4.bmp\",\"va:fasha\",\"Left\",\"39\",\"8\",\"14\",\"6B\",\"C1\",\"C\",\"126\"
\"\",\"\",\"approach-retreat\",\"130\",\"1014950\",\"0.0-130.0\",\"\",\"\",\"3-2\",\"4339\",\"39\",\"1\",\"Training\",\"Stims/Figures/102-J-10-4.bmp\",\"zaha:za\",\"Right\",\"39\",\"8\",\"15\",\"6B\",\"C2\",\"C\",\"127\"
\"\",\"\",\"approach-retreat\",\"131\",\"1020861\",\"0.0-131.0\",\"\",\"\",\"3-2\",\"4381\",\"37\",\"1\",\"Training\",\"Stims/Figures/86-J-0-1.bmp\",\"sa:sa:ha\",\"Left\",\"37\",\"8\",\"16\",\"6B\",\"C2\",\"C\",\"128\"
\"\",\"\",\"approach-retreat\",\"132\",\"1027999\",\"0.0-132.0\",\"\",\"\",\"3-2\",\"5618\",\"39\",\"1\",\"Training\",\"Stims/Figures/86-J-0-1.bmp\",\"sa:sa:ha\",\"Right\",\"39\",\"9\",\"1\",\"6B\",\"C2\",\"C\",\"129\"
\"\",\"\",\"approach-retreat\",\"133\",\"1034817\",\"0.0-133.0\",\"\",\"\",\"3-2\",\"5305\",\"37\",\"1\",\"Training\",\"Stims/Figures/100-C-30-3.bmp\",\"fa:fa:sha\",\"Right\",\"37\",\"9\",\"2\",\"6B\",\"C1\",\"C\",\"130\"
\"\",\"\",\"approach-retreat\",\"134\",\"1041037\",\"0.0-134.0\",\"\",\"\",\"3-2\",\"4695\",\"38\",\"1\",\"Training\",\"Stims/Figures/84-C-20-2.bmp\",\"vafa:va\",\"Down\",\"38\",\"9\",\"3\",\"6B\",\"C1\",\"C\",\"131\"
\"\",\"\",\"approach-retreat\",\"135\",\"1046729\",\"0.0-135.0\",\"\",\"\",\"3-2\",\"4168\",\"39\",\"1\",\"Training\",\"Stims/Figures/84-J-0-2.bmp\",\"sa:ha:ha\",\"Right\",\"39\",\"9\",\"4\",\"6B\",\"C2\",\"C\",\"132\"
\"\",\"\",\"approach-retreat\",\"136\",\"1052758\",\"0.0-136.0\",\"\",\"\",\"3-2\",\"4510\",\"39\",\"0\",\"Training\",\"Stims/Figures/74-J-10-4.bmp\",\"zasaza\",\"Left\",\"37\",\"9\",\"5\",\"6B\",\"C2\",\"C\",\"133\"
\"\",\"\",\"approach-retreat\",\"137\",\"1059159\",\"0.0-137.0\",\"\",\"\",\"3-2\",\"4873\",\"40\",\"1\",\"Training\",\"Stims/Figures/128-J-10-3.bmp\",\"za:saza\",\"Down\",\"40\",\"9\",\"6\",\"6B\",\"C2\",\"C\",\"134\"
\"\",\"\",\"approach-retreat\",\"138\",\"1064694\",\"0.0-138.0\",\"\",\"\",\"3-2\",\"4017\",\"39\",\"1\",\"Training\",\"Stims/Figures/102-C-20-4.bmp\",\"fafasha\",\"Left\",\"39\",\"9\",\"7\",\"6B\",\"C1\",\"C\",\"135\"
\"\",\"\",\"approach-retreat\",\"139\",\"1070977\",\"0.0-139.0\",\"\",\"\",\"3-2\",\"4762\",\"40\",\"1\",\"Training\",\"Stims/Figures/86-C-30-1.bmp\",\"vasha:sha\",\"Up\",\"40\",\"9\",\"8\",\"6B\",\"C1\",\"C\",\"136\"
\"\",\"\",\"approach-retreat\",\"140\",\"1076810\",\"0.0-140.0\",\"\",\"\",\"3-2\",\"4310\",\"39\",\"1\",\"Training\",\"Stims/Figures/94-C-20-2.bmp\",\"va:sha:sha\",\"Left\",\"39\",\"9\",\"9\",\"6B\",\"C1\",\"C\",\"137\"
\"\",\"\",\"approach-retreat\",\"141\",\"1082519\",\"0.0-141.0\",\"\",\"\",\"3-2\",\"4194\",\"40\",\"1\",\"Training\",\"Stims/Figures/71-J-0-1.bmp\",\"sa:haza\",\"Down\",\"40\",\"9\",\"10\",\"6B\",\"C2\",\"C\",\"138\"
\"\",\"\",\"approach-retreat\",\"142\",\"1088697\",\"0.0-142.0\",\"\",\"\",\"3-2\",\"4652\",\"37\",\"1\",\"Training\",\"Stims/Figures/100-J-10-3.bmp\",\"za:ha:ha\",\"Left\",\"37\",\"9\",\"11\",\"6B\",\"C2\",\"C\",\"139\"
\"\",\"\",\"approach-retreat\",\"143\",\"1094507\",\"0.0-143.0\",\"\",\"\",\"3-2\",\"4283\",\"39\",\"1\",\"Training\",\"Stims/Figures/94-J-0-2.bmp\",\"zahaza\",\"Right\",\"39\",\"9\",\"12\",\"6B\",\"C2\",\"C\",\"140\"
\"\",\"\",\"approach-retreat\",\"144\",\"1100440\",\"0.0-144.0\",\"\",\"\",\"3-2\",\"4411\",\"40\",\"1\",\"Training\",\"Stims/Figures/74-C-20-4.bmp\",\"va:fasha\",\"Up\",\"40\",\"9\",\"13\",\"6B\",\"C1\",\"C\",\"141\"
\"\",\"\",\"approach-retreat\",\"145\",\"1106794\",\"0.0-145.0\",\"\",\"\",\"3-2\",\"4833\",\"40\",\"1\",\"Training\",\"Stims/Figures/71-C-30-1.bmp\",\"va:fava\",\"Up\",\"40\",\"9\",\"14\",\"6B\",\"C1\",\"C\",\"142\"
\"\",\"\",\"approach-retreat\",\"146\",\"1112975\",\"0.0-146.0\",\"\",\"\",\"3-2\",\"4667\",\"40\",\"1\",\"Training\",\"Stims/Figures/102-J-10-4.bmp\",\"zaha:za\",\"Down\",\"40\",\"9\",\"15\",\"6B\",\"C2\",\"C\",\"143\"
\"\",\"\",\"approach-retreat\",\"147\",\"1118894\",\"0.0-147.0\",\"\",\"\",\"3-2\",\"4395\",\"40\",\"1\",\"Training\",\"Stims/Figures/128-C-30-3.bmp\",\"fa:fava\",\"Up\",\"40\",\"9\",\"16\",\"6B\",\"C1\",\"C\",\"144\"
\"14476\",\"\",\"instructions\",\"148\",\"1133371\",\"0.0-148.0\",\"[{\"\"page_index\"\":0,\"\"viewing_time\"\":14474}]\",\"\",\"\",\"\",\"\",\"\",\"\",\"\",\"\",\"\",\"\",\"\",\"\",\"\",\"\",\"\",\"\"
\"\",\"\",\"approach-retreat\",\"149\",\"1140940\",\"0.0-149.0\",\"\",\"\",\"3-2\",\"6052\",\"39\",\"0\",\"Testing\",\"Stims/Figures/100-C-30-3.bmp\",\"fa:fa:sha\",\"Right\",\"37\",\"1\",\"1\",\"6B\",\"C1\",\"C\",\"1\"
\"\",\"\",\"approach-retreat\",\"150\",\"1148139\",\"0.0-150.0\",\"\",\"\",\"3-2\",\"5685\",\"38\",\"0\",\"Testing\",\"Stims/Figures/71-C-30-1.bmp\",\"va:fava\",\"Up\",\"40\",\"1\",\"2\",\"6B\",\"C1\",\"C\",\"2\"
\"\",\"\",\"approach-retreat\",\"151\",\"1154496\",\"0.0-151.0\",\"\",\"\",\"3-2\",\"4841\",\"38\",\"1\",\"Testing\",\"Stims/Figures/128-C-30-3.bmp\",\"fa:fava\",\"Down\",\"38\",\"1\",\"3\",\"6B\",\"C1\",\"C\",\"3\"
\"\",\"\",\"approach-retreat\",\"152\",\"1161352\",\"0.0-152.0\",\"\",\"\",\"3-2\",\"5330\",\"37\",\"1\",\"Testing\",\"Stims/Figures/27-J-0-1.bmp\",\"sasaza\",\"Left\",\"37\",\"1\",\"4\",\"6B\",\"C2\",\"C\",\"4\"
\"\",\"\",\"approach-retreat\",\"153\",\"1167439\",\"0.0-153.0\",\"\",\"\",\"3-2\",\"4566\",\"37\",\"0\",\"Testing\",\"Stims/Figures/84-C-20-2.bmp\",\"vafa:va\",\"Left\",\"39\",\"1\",\"5\",\"6B\",\"C1\",\"C\",\"5\"
\"\",\"\",\"approach-retreat\",\"154\",\"1176266\",\"0.0-154.0\",\"\",\"\",\"3-2\",\"7302\",\"37\",\"1\",\"Testing\",\"Stims/Figures/100-J-10-3.bmp\",\"za:ha:ha\",\"Left\",\"37\",\"1\",\"6\",\"6B\",\"C2\",\"C\",\"6\"
\"\",\"\",\"approach-retreat\",\"155\",\"1182692\",\"0.0-155.0\",\"\",\"\",\"3-2\",\"4909\",\"37\",\"1\",\"Testing\",\"Stims/Figures/74-C-20-4.bmp\",\"va:fasha\",\"Right\",\"37\",\"1\",\"7\",\"6B\",\"C1\",\"C\",\"7\"
\"\",\"\",\"approach-retreat\",\"156\",\"1189565\",\"0.0-156.0\",\"\",\"\",\"3-2\",\"5343\",\"40\",\"0\",\"Testing\",\"Stims/Figures/74-J-10-4.bmp\",\"zasaza\",\"Up\",\"38\",\"1\",\"8\",\"6B\",\"C2\",\"C\",\"8\"
\"\",\"\",\"approach-retreat\",\"157\",\"1195794\",\"0.0-157.0\",\"\",\"\",\"3-2\",\"4721\",\"38\",\"1\",\"Testing\",\"Stims/Figures/144-C-30-3.bmp\",\"va:shasha\",\"Down\",\"38\",\"1\",\"9\",\"6B\",\"C1\",\"C\",\"9\"
\"\",\"\",\"approach-retreat\",\"158\",\"1202710\",\"0.0-158.0\",\"\",\"\",\"3-2\",\"5398\",\"39\",\"0\",\"Testing\",\"Stims/Figures/94-C-20-2.bmp\",\"va:sha:sha\",\"Right\",\"37\",\"1\",\"10\",\"6B\",\"C1\",\"C\",\"10\"
\"\",\"\",\"approach-retreat\",\"159\",\"1208813\",\"0.0-159.0\",\"\",\"\",\"3-2\",\"4582\",\"38\",\"1\",\"Testing\",\"Stims/Figures/86-J-0-1.bmp\",\"sa:sa:ha\",\"Up\",\"38\",\"1\",\"11\",\"6B\",\"C2\",\"C\",\"11\"
\"\",\"\",\"approach-retreat\",\"160\",\"1216475\",\"0.0-160.0\",\"\",\"\",\"3-2\",\"6150\",\"37\",\"0\",\"Testing\",\"Stims/Figures/102-J-10-4.bmp\",\"zaha:za\",\"Right\",\"39\",\"1\",\"12\",\"6B\",\"C2\",\"C\",\"12\"
\"\",\"\",\"approach-retreat\",\"161\",\"1222378\",\"0.0-161.0\",\"\",\"\",\"3-2\",\"4378\",\"37\",\"1\",\"Testing\",\"Stims/Figures/139-C-20-2.bmp\",\"vafava\",\"Right\",\"37\",\"1\",\"13\",\"6B\",\"C1\",\"C\",\"13\"
\"\",\"\",\"approach-retreat\",\"162\",\"1229200\",\"0.0-162.0\",\"\",\"\",\"3-2\",\"5304\",\"40\",\"0\",\"Testing\",\"Stims/Figures/19-J-10-4.bmp\",\"za:haha\",\"Up\",\"38\",\"1\",\"14\",\"6B\",\"C2\",\"C\",\"14\"
\"\",\"\",\"approach-retreat\",\"163\",\"1235002\",\"0.0-163.0\",\"\",\"\",\"3-2\",\"4288\",\"37\",\"1\",\"Testing\",\"Stims/Figures/94-J-0-2.bmp\",\"zahaza\",\"Left\",\"37\",\"1\",\"15\",\"6B\",\"C2\",\"C\",\"15\"
\"\",\"\",\"approach-retreat\",\"164\",\"1241119\",\"0.0-164.0\",\"\",\"\",\"3-2\",\"4597\",\"38\",\"0\",\"Testing\",\"Stims/Figures/128-J-10-3.bmp\",\"za:saza\",\"Down\",\"40\",\"1\",\"16\",\"6B\",\"C2\",\"C\",\"16\"
\"\",\"\",\"approach-retreat\",\"165\",\"1247030\",\"0.0-165.0\",\"\",\"\",\"3-2\",\"4372\",\"40\",\"1\",\"Testing\",\"Stims/Figures/84-J-0-2.bmp\",\"sa:ha:ha\",\"Down\",\"40\",\"1\",\"17\",\"6B\",\"C2\",\"C\",\"17\"
\"\",\"\",\"approach-retreat\",\"166\",\"1252616\",\"0.0-166.0\",\"\",\"\",\"3-2\",\"4072\",\"39\",\"1\",\"Testing\",\"Stims/Figures/19-C-20-4.bmp\",\"fasha:va\",\"Left\",\"39\",\"1\",\"18\",\"6B\",\"C1\",\"C\",\"18\"
\"\",\"\",\"approach-retreat\",\"167\",\"1260301\",\"0.0-167.0\",\"\",\"\",\"3-2\",\"6157\",\"37\",\"0\",\"Testing\",\"Stims/Figures/139-J-0-2.bmp\",\"za:haza\",\"Right\",\"39\",\"1\",\"19\",\"6B\",\"C2\",\"C\",\"19\"
\"\",\"\",\"approach-retreat\",\"168\",\"1267495\",\"0.0-168.0\",\"\",\"\",\"3-2\",\"5667\",\"39\",\"0\",\"Testing\",\"Stims/Figures/144-J-10-3.bmp\",\"sahaha\",\"Left\",\"37\",\"1\",\"20\",\"6B\",\"C2\",\"C\",\"20\"
\"\",\"\",\"approach-retreat\",\"169\",\"1273463\",\"0.0-169.0\",\"\",\"\",\"3-2\",\"4448\",\"38\",\"1\",\"Testing\",\"Stims/Figures/71-J-0-1.bmp\",\"sa:haza\",\"Up\",\"38\",\"1\",\"21\",\"6B\",\"C2\",\"C\",\"21\"
\"\",\"\",\"approach-retreat\",\"170\",\"1284334\",\"0.0-170.0\",\"\",\"\",\"3-2\",\"9354\",\"38\",\"0\",\"Testing\",\"Stims/Figures/102-C-20-4.bmp\",\"fafasha\",\"Up\",\"40\",\"1\",\"22\",\"6B\",\"C1\",\"C\",\"22\"
\"\",\"\",\"approach-retreat\",\"171\",\"1291741\",\"0.0-171.0\",\"\",\"\",\"3-2\",\"5880\",\"38\",\"1\",\"Testing\",\"Stims/Figures/86-C-30-1.bmp\",\"vasha:sha\",\"Down\",\"38\",\"1\",\"23\",\"6B\",\"C1\",\"C\",\"23\"
\"\",\"\",\"approach-retreat\",\"172\",\"1297432\",\"0.0-172.0\",\"\",\"\",\"3-2\",\"4178\",\"38\",\"1\",\"Testing\",\"Stims/Figures/27-C-30-1.bmp\",\"fa:fa:va\",\"Down\",\"38\",\"1\",\"24\",\"6B\",\"C1\",\"C\",\"24\"
\"\",\"\",\"approach-retreat\",\"173\",\"1304480\",\"0.0-173.0\",\"\",\"\",\"3-2\",\"5521\",\"37\",\"0\",\"Testing\",\"Stims/Figures/139-J-0-2.bmp\",\"za:haza\",\"Right\",\"39\",\"2\",\"1\",\"6B\",\"C2\",\"C\",\"25\"
\"\",\"\",\"approach-retreat\",\"174\",\"1310433\",\"0.0-174.0\",\"\",\"\",\"3-2\",\"4432\",\"38\",\"1\",\"Testing\",\"Stims/Figures/74-C-20-4.bmp\",\"va:fasha\",\"Down\",\"38\",\"2\",\"2\",\"6B\",\"C1\",\"C\",\"26\"
\"\",\"\",\"approach-retreat\",\"175\",\"1316233\",\"0.0-175.0\",\"\",\"\",\"3-2\",\"4287\",\"40\",\"0\",\"Testing\",\"Stims/Figures/19-J-10-4.bmp\",\"za:haha\",\"Up\",\"38\",\"2\",\"3\",\"6B\",\"C2\",\"C\",\"27\"
\"\",\"\",\"approach-retreat\",\"176\",\"1322114\",\"0.0-176.0\",\"\",\"\",\"3-2\",\"4354\",\"37\",\"1\",\"Testing\",\"Stims/Figures/102-J-10-4.bmp\",\"zaha:za\",\"Left\",\"37\",\"2\",\"4\",\"6B\",\"C2\",\"C\",\"28\"
\"\",\"\",\"approach-retreat\",\"177\",\"1332042\",\"0.0-177.0\",\"\",\"\",\"3-2\",\"8417\",\"37\",\"1\",\"Testing\",\"Stims/Figures/86-J-0-1.bmp\",\"sa:sa:ha\",\"Left\",\"37\",\"2\",\"5\",\"6B\",\"C2\",\"C\",\"29\"
\"\",\"\",\"approach-retreat\",\"178\",\"1337755\",\"0.0-178.0\",\"\",\"\",\"3-2\",\"4196\",\"37\",\"1\",\"Testing\",\"Stims/Figures/128-C-30-3.bmp\",\"fa:fava\",\"Right\",\"37\",\"2\",\"6\",\"6B\",\"C1\",\"C\",\"30\"
\"\",\"\",\"approach-retreat\",\"179\",\"1344039\",\"0.0-179.0\",\"\",\"\",\"3-2\",\"4778\",\"40\",\"1\",\"Testing\",\"Stims/Figures/94-J-0-2.bmp\",\"zahaza\",\"Down\",\"40\",\"2\",\"7\",\"6B\",\"C2\",\"C\",\"31\"
\"\",\"\",\"approach-retreat\",\"180\",\"1350044\",\"0.0-180.0\",\"\",\"\",\"3-2\",\"4494\",\"40\",\"0\",\"Testing\",\"Stims/Figures/144-J-10-3.bmp\",\"sahaha\",\"Up\",\"38\",\"2\",\"8\",\"6B\",\"C2\",\"C\",\"32\"
\"\",\"\",\"approach-retreat\",\"181\",\"1357028\",\"0.0-181.0\",\"\",\"\",\"3-2\",\"5465\",\"39\",\"0\",\"Testing\",\"Stims/Figures/71-C-30-1.bmp\",\"va:fava\",\"Right\",\"37\",\"2\",\"9\",\"6B\",\"C1\",\"C\",\"33\"
\"\",\"\",\"approach-retreat\",\"182\",\"1362730\",\"0.0-182.0\",\"\",\"\",\"3-2\",\"4187\",\"40\",\"0\",\"Testing\",\"Stims/Figures/94-C-20-2.bmp\",\"va:sha:sha\",\"Down\",\"38\",\"2\",\"10\",\"6B\",\"C1\",\"C\",\"34\"
\"\",\"\",\"approach-retreat\",\"183\",\"1369006\",\"0.0-183.0\",\"\",\"\",\"3-2\",\"4759\",\"40\",\"0\",\"Testing\",\"Stims/Figures/84-C-20-2.bmp\",\"vafa:va\",\"Down\",\"38\",\"2\",\"11\",\"6B\",\"C1\",\"C\",\"35\"
\"\",\"\",\"approach-retreat\",\"184\",\"1376531\",\"0.0-184.0\",\"\",\"\",\"3-2\",\"6005\",\"40\",\"1\",\"Testing\",\"Stims/Figures/144-C-30-3.bmp\",\"va:shasha\",\"Up\",\"40\",\"2\",\"12\",\"6B\",\"C1\",\"C\",\"36\"
\"\",\"\",\"approach-retreat\",\"185\",\"1382726\",\"0.0-185.0\",\"\",\"\",\"3-2\",\"4669\",\"37\",\"1\",\"Testing\",\"Stims/Figures/100-J-10-3.bmp\",\"za:ha:ha\",\"Left\",\"37\",\"2\",\"13\",\"6B\",\"C2\",\"C\",\"37\"
\"\",\"\",\"approach-retreat\",\"186\",\"1388612\",\"0.0-186.0\",\"\",\"\",\"3-2\",\"4366\",\"37\",\"1\",\"Testing\",\"Stims/Figures/84-J-0-2.bmp\",\"sa:ha:ha\",\"Left\",\"37\",\"2\",\"14\",\"6B\",\"C2\",\"C\",\"38\"
\"\",\"\",\"approach-retreat\",\"187\",\"1394338\",\"0.0-187.0\",\"\",\"\",\"3-2\",\"4213\",\"39\",\"0\",\"Testing\",\"Stims/Figures/102-C-20-4.bmp\",\"fafasha\",\"Right\",\"37\",\"2\",\"15\",\"6B\",\"C1\",\"C\",\"39\"
\"\",\"\",\"approach-retreat\",\"188\",\"1400521\",\"0.0-188.0\",\"\",\"\",\"3-2\",\"4662\",\"37\",\"1\",\"Testing\",\"Stims/Figures/71-J-0-1.bmp\",\"sa:haza\",\"Left\",\"37\",\"2\",\"16\",\"6B\",\"C2\",\"C\",\"40\"
\"\",\"\",\"approach-retreat\",\"189\",\"1406369\",\"0.0-189.0\",\"\",\"\",\"3-2\",\"4326\",\"40\",\"1\",\"Testing\",\"Stims/Figures/27-J-0-1.bmp\",\"sasaza\",\"Down\",\"40\",\"2\",\"17\",\"6B\",\"C2\",\"C\",\"41\"
\"\",\"\",\"approach-retreat\",\"190\",\"1412400\",\"0.0-190.0\",\"\",\"\",\"3-2\",\"4516\",\"37\",\"1\",\"Testing\",\"Stims/Figures/27-C-30-1.bmp\",\"fa:fa:va\",\"Right\",\"37\",\"2\",\"18\",\"6B\",\"C1\",\"C\",\"42\"
\"\",\"\",\"approach-retreat\",\"191\",\"1418307\",\"0.0-191.0\",\"\",\"\",\"3-2\",\"4380\",\"40\",\"0\",\"Testing\",\"Stims/Figures/74-J-10-4.bmp\",\"zasaza\",\"Up\",\"38\",\"2\",\"19\",\"6B\",\"C2\",\"C\",\"43\"
\"\",\"\",\"approach-retreat\",\"192\",\"1424597\",\"0.0-192.0\",\"\",\"\",\"3-2\",\"4772\",\"37\",\"0\",\"Testing\",\"Stims/Figures/100-C-30-3.bmp\",\"fa:fa:sha\",\"Left\",\"39\",\"2\",\"20\",\"6B\",\"C1\",\"C\",\"44\"
\"\",\"\",\"approach-retreat\",\"193\",\"1430367\",\"0.0-193.0\",\"\",\"\",\"3-2\",\"4259\",\"38\",\"1\",\"Testing\",\"Stims/Figures/19-C-20-4.bmp\",\"fasha:va\",\"Down\",\"38\",\"2\",\"21\",\"6B\",\"C1\",\"C\",\"45\"
\"\",\"\",\"approach-retreat\",\"194\",\"1436788\",\"0.0-194.0\",\"\",\"\",\"3-2\",\"4907\",\"40\",\"1\",\"Testing\",\"Stims/Figures/86-C-30-1.bmp\",\"vasha:sha\",\"Up\",\"40\",\"2\",\"22\",\"6B\",\"C1\",\"C\",\"46\"
\"\",\"\",\"approach-retreat\",\"195\",\"1443075\",\"0.0-195.0\",\"\",\"\",\"3-2\",\"4768\",\"37\",\"0\",\"Testing\",\"Stims/Figures/128-J-10-3.bmp\",\"za:saza\",\"Right\",\"39\",\"2\",\"23\",\"6B\",\"C2\",\"C\",\"47\"
\"\",\"\",\"approach-retreat\",\"196\",\"1449252\",\"0.0-196.0\",\"\",\"\",\"3-2\",\"4662\",\"40\",\"1\",\"Testing\",\"Stims/Figures/139-C-20-2.bmp\",\"vafava\",\"Up\",\"40\",\"2\",\"24\",\"6B\",\"C1\",\"C\",\"48\"
\"\",\"\",\"approach-retreat\",\"197\",\"1457238\",\"0.0-197.0\",\"\",\"\",\"3-2\",\"6460\",\"38\",\"1\",\"Testing\",\"Stims/Figures/102-J-10-4.bmp\",\"zaha:za\",\"Up\",\"38\",\"3\",\"1\",\"6B\",\"C2\",\"C\",\"49\"
\"\",\"\",\"approach-retreat\",\"198\",\"1463668\",\"0.0-198.0\",\"\",\"\",\"3-2\",\"4911\",\"40\",\"0\",\"Testing\",\"Stims/Figures/71-C-30-1.bmp\",\"va:fava\",\"Down\",\"38\",\"3\",\"2\",\"6B\",\"C1\",\"C\",\"50\"
\"\",\"\",\"approach-retreat\",\"199\",\"1469474\",\"0.0-199.0\",\"\",\"\",\"3-2\",\"4294\",\"37\",\"0\",\"Testing\",\"Stims/Figures/84-C-20-2.bmp\",\"vafa:va\",\"Left\",\"39\",\"3\",\"3\",\"6B\",\"C1\",\"C\",\"51\"
\"\",\"\",\"approach-retreat\",\"200\",\"1475965\",\"0.0-200.0\",\"\",\"\",\"3-2\",\"4975\",\"40\",\"1\",\"Testing\",\"Stims/Figures/139-C-20-2.bmp\",\"vafava\",\"Up\",\"40\",\"3\",\"4\",\"6B\",\"C1\",\"C\",\"52\"
\"\",\"\",\"approach-retreat\",\"201\",\"1481733\",\"0.0-201.0\",\"\",\"\",\"3-2\",\"4260\",\"37\",\"0\",\"Testing\",\"Stims/Figures/128-J-10-3.bmp\",\"za:saza\",\"Right\",\"39\",\"3\",\"5\",\"6B\",\"C2\",\"C\",\"53\"
\"\",\"\",\"approach-retreat\",\"202\",\"1487733\",\"0.0-202.0\",\"\",\"\",\"3-2\",\"4492\",\"40\",\"0\",\"Testing\",\"Stims/Figures/94-C-20-2.bmp\",\"va:sha:sha\",\"Down\",\"38\",\"3\",\"6\",\"6B\",\"C1\",\"C\",\"54\"
\"\",\"\",\"approach-retreat\",\"203\",\"1493600\",\"0.0-203.0\",\"\",\"\",\"3-2\",\"4359\",\"37\",\"1\",\"Testing\",\"Stims/Figures/100-J-10-3.bmp\",\"za:ha:ha\",\"Left\",\"37\",\"3\",\"7\",\"6B\",\"C2\",\"C\",\"55\"
\"\",\"\",\"approach-retreat\",\"204\",\"1499474\",\"0.0-204.0\",\"\",\"\",\"3-2\",\"4356\",\"39\",\"1\",\"Testing\",\"Stims/Figures/128-C-30-3.bmp\",\"fa:fava\",\"Left\",\"39\",\"3\",\"8\",\"6B\",\"C1\",\"C\",\"56\"
\"\",\"\",\"approach-retreat\",\"205\",\"1505137\",\"0.0-205.0\",\"\",\"\",\"3-2\",\"4134\",\"40\",\"1\",\"Testing\",\"Stims/Figures/71-J-0-1.bmp\",\"sa:haza\",\"Down\",\"40\",\"3\",\"9\",\"6B\",\"C2\",\"C\",\"57\"
\"\",\"\",\"approach-retreat\",\"206\",\"1510873\",\"0.0-206.0\",\"\",\"\",\"3-2\",\"4217\",\"37\",\"0\",\"Testing\",\"Stims/Figures/144-J-10-3.bmp\",\"sahaha\",\"Right\",\"39\",\"3\",\"10\",\"6B\",\"C2\",\"C\",\"58\"
\"\",\"\",\"approach-retreat\",\"207\",\"1516448\",\"0.0-207.0\",\"\",\"\",\"3-2\",\"4051\",\"37\",\"1\",\"Testing\",\"Stims/Figures/144-C-30-3.bmp\",\"va:shasha\",\"Right\",\"37\",\"3\",\"11\",\"6B\",\"C1\",\"C\",\"59\"
\"\",\"\",\"approach-retreat\",\"208\",\"1524179\",\"0.0-208.0\",\"\",\"\",\"3-2\",\"6215\",\"39\",\"1\",\"Testing\",\"Stims/Figures/27-C-30-1.bmp\",\"fa:fa:va\",\"Left\",\"39\",\"3\",\"12\",\"6B\",\"C1\",\"C\",\"60\"
\"\",\"\",\"approach-retreat\",\"209\",\"1529936\",\"0.0-209.0\",\"\",\"\",\"3-2\",\"4242\",\"40\",\"1\",\"Testing\",\"Stims/Figures/84-J-0-2.bmp\",\"sa:ha:ha\",\"Down\",\"40\",\"3\",\"13\",\"6B\",\"C2\",\"C\",\"61\"
\"\",\"\",\"approach-retreat\",\"210\",\"1535758\",\"0.0-210.0\",\"\",\"\",\"3-2\",\"4308\",\"40\",\"0\",\"Testing\",\"Stims/Figures/74-J-10-4.bmp\",\"zasaza\",\"Up\",\"38\",\"3\",\"14\",\"6B\",\"C2\",\"C\",\"62\"
\"\",\"\",\"approach-retreat\",\"211\",\"1541501\",\"0.0-211.0\",\"\",\"\",\"3-2\",\"4229\",\"38\",\"0\",\"Testing\",\"Stims/Figures/19-J-10-4.bmp\",\"za:haha\",\"Down\",\"40\",\"3\",\"15\",\"6B\",\"C2\",\"C\",\"63\"
\"\",\"\",\"approach-retreat\",\"212\",\"1547479\",\"0.0-212.0\",\"\",\"\",\"3-2\",\"4453\",\"39\",\"1\",\"Testing\",\"Stims/Figures/19-C-20-4.bmp\",\"fasha:va\",\"Left\",\"39\",\"3\",\"16\",\"6B\",\"C1\",\"C\",\"64\"
\"\",\"\",\"approach-retreat\",\"213\",\"1553397\",\"0.0-213.0\",\"\",\"\",\"3-2\",\"4401\",\"39\",\"0\",\"Testing\",\"Stims/Figures/102-C-20-4.bmp\",\"fafasha\",\"Right\",\"37\",\"3\",\"17\",\"6B\",\"C1\",\"C\",\"65\"
\"\",\"\",\"approach-retreat\",\"214\",\"1559211\",\"0.0-214.0\",\"\",\"\",\"3-2\",\"4291\",\"40\",\"1\",\"Testing\",\"Stims/Figures/86-C-30-1.bmp\",\"vasha:sha\",\"Up\",\"40\",\"3\",\"18\",\"6B\",\"C1\",\"C\",\"66\"
\"\",\"\",\"approach-retreat\",\"215\",\"1564996\",\"0.0-215.0\",\"\",\"\",\"3-2\",\"4261\",\"39\",\"1\",\"Testing\",\"Stims/Figures/74-C-20-4.bmp\",\"va:fasha\",\"Left\",\"39\",\"3\",\"19\",\"6B\",\"C1\",\"C\",\"67\"
\"\",\"\",\"approach-retreat\",\"216\",\"1570980\",\"0.0-216.0\",\"\",\"\",\"3-2\",\"4462\",\"38\",\"1\",\"Testing\",\"Stims/Figures/86-J-0-1.bmp\",\"sa:sa:ha\",\"Up\",\"38\",\"3\",\"20\",\"6B\",\"C2\",\"C\",\"68\"
\"\",\"\",\"approach-retreat\",\"217\",\"1578222\",\"0.0-217.0\",\"\",\"\",\"3-2\",\"5723\",\"38\",\"1\",\"Testing\",\"Stims/Figures/100-C-30-3.bmp\",\"fa:fa:sha\",\"Down\",\"38\",\"3\",\"21\",\"6B\",\"C1\",\"C\",\"69\"
\"\",\"\",\"approach-retreat\",\"218\",\"1584100\",\"0.0-218.0\",\"\",\"\",\"3-2\",\"4363\",\"39\",\"1\",\"Testing\",\"Stims/Figures/27-J-0-1.bmp\",\"sasaza\",\"Right\",\"39\",\"3\",\"22\",\"6B\",\"C2\",\"C\",\"70\"
\"\",\"\",\"approach-retreat\",\"219\",\"1590000\",\"0.0-219.0\",\"\",\"\",\"3-2\",\"4383\",\"38\",\"1\",\"Testing\",\"Stims/Figures/139-J-0-2.bmp\",\"za:haza\",\"Up\",\"38\",\"3\",\"23\",\"6B\",\"C2\",\"C\",\"71\"
\"\",\"\",\"approach-retreat\",\"220\",\"1595710\",\"0.0-220.0\",\"\",\"\",\"3-2\",\"4203\",\"39\",\"1\",\"Testing\",\"Stims/Figures/94-J-0-2.bmp\",\"zahaza\",\"Right\",\"39\",\"3\",\"24\",\"6B\",\"C2\",\"C\",\"72\"
\"\",\"\",\"approach-retreat\",\"221\",\"1601864\",\"0.0-221.0\",\"\",\"\",\"3-2\",\"4647\",\"38\",\"0\",\"Testing\",\"Stims/Figures/102-J-10-4.bmp\",\"zaha:za\",\"Down\",\"40\",\"4\",\"1\",\"6B\",\"C2\",\"C\",\"73\"
\"\",\"\",\"approach-retreat\",\"222\",\"1607516\",\"0.0-222.0\",\"\",\"\",\"3-2\",\"4130\",\"37\",\"0\",\"Testing\",\"Stims/Figures/74-J-10-4.bmp\",\"zasaza\",\"Right\",\"39\",\"4\",\"2\",\"6B\",\"C2\",\"C\",\"74\"
\"\",\"\",\"approach-retreat\",\"223\",\"1613192\",\"0.0-223.0\",\"\",\"\",\"3-2\",\"4149\",\"39\",\"1\",\"Testing\",\"Stims/Figures/128-C-30-3.bmp\",\"fa:fava\",\"Left\",\"39\",\"4\",\"3\",\"6B\",\"C1\",\"C\",\"75\"
\"\",\"\",\"approach-retreat\",\"224\",\"1619296\",\"0.0-224.0\",\"\",\"\",\"3-2\",\"4589\",\"37\",\"1\",\"Testing\",\"Stims/Figures/71-J-0-1.bmp\",\"sa:haza\",\"Left\",\"37\",\"4\",\"4\",\"6B\",\"C2\",\"C\",\"76\"
\"\",\"\",\"approach-retreat\",\"225\",\"1624886\",\"0.0-225.0\",\"\",\"\",\"3-2\",\"4067\",\"39\",\"1\",\"Testing\",\"Stims/Figures/100-C-30-3.bmp\",\"fa:fa:sha\",\"Left\",\"39\",\"4\",\"5\",\"6B\",\"C1\",\"C\",\"77\"
\"\",\"\",\"approach-retreat\",\"226\",\"1631280\",\"0.0-226.0\",\"\",\"\",\"3-2\",\"4875\",\"39\",\"1\",\"Testing\",\"Stims/Figures/100-J-10-3.bmp\",\"za:ha:ha\",\"Right\",\"39\",\"4\",\"6\",\"6B\",\"C2\",\"C\",\"78\"
\"\",\"\",\"approach-retreat\",\"227\",\"1637192\",\"0.0-227.0\",\"\",\"\",\"3-2\",\"4383\",\"38\",\"0\",\"Testing\",\"Stims/Figures/84-C-20-2.bmp\",\"vafa:va\",\"Up\",\"40\",\"4\",\"7\",\"6B\",\"C1\",\"C\",\"79\"
\"\",\"\",\"approach-retreat\",\"228\",\"1644030\",\"0.0-228.0\",\"\",\"\",\"3-2\",\"5317\",\"37\",\"1\",\"Testing\",\"Stims/Figures/27-J-0-1.bmp\",\"sasaza\",\"Left\",\"37\",\"4\",\"8\",\"6B\",\"C2\",\"C\",\"80\"
\"\",\"\",\"approach-retreat\",\"229\",\"1649862\",\"0.0-229.0\",\"\",\"\",\"3-2\",\"4324\",\"40\",\"1\",\"Testing\",\"Stims/Figures/84-J-0-2.bmp\",\"sa:ha:ha\",\"Down\",\"40\",\"4\",\"9\",\"6B\",\"C2\",\"C\",\"81\"
\"\",\"\",\"approach-retreat\",\"230\",\"1655532\",\"0.0-230.0\",\"\",\"\",\"3-2\",\"4160\",\"38\",\"1\",\"Testing\",\"Stims/Figures/102-C-20-4.bmp\",\"fafasha\",\"Down\",\"38\",\"4\",\"10\",\"6B\",\"C1\",\"C\",\"82\"
\"\",\"\",\"approach-retreat\",\"231\",\"1661275\",\"0.0-231.0\",\"\",\"\",\"3-2\",\"4215\",\"39\",\"1\",\"Testing\",\"Stims/Figures/139-J-0-2.bmp\",\"za:haza\",\"Right\",\"39\",\"4\",\"11\",\"6B\",\"C2\",\"C\",\"83\"
\"\",\"\",\"approach-retreat\",\"232\",\"1667000\",\"0.0-232.0\",\"\",\"\",\"3-2\",\"4192\",\"38\",\"1\",\"Testing\",\"Stims/Figures/139-C-20-2.bmp\",\"vafava\",\"Down\",\"38\",\"4\",\"12\",\"6B\",\"C1\",\"C\",\"84\"
\"\",\"\",\"approach-retreat\",\"233\",\"1673085\",\"0.0-233.0\",\"\",\"\",\"3-2\",\"4563\",\"40\",\"1\",\"Testing\",\"Stims/Figures/86-C-30-1.bmp\",\"vasha:sha\",\"Up\",\"40\",\"4\",\"13\",\"6B\",\"C1\",\"C\",\"85\"
\"\",\"\",\"approach-retreat\",\"234\",\"1678737\",\"0.0-234.0\",\"\",\"\",\"3-2\",\"4127\",\"40\",\"1\",\"Testing\",\"Stims/Figures/94-C-20-2.bmp\",\"va:sha:sha\",\"Up\",\"40\",\"4\",\"14\",\"6B\",\"C1\",\"C\",\"86\"
\"\",\"\",\"approach-retreat\",\"235\",\"1684934\",\"0.0-235.0\",\"\",\"\",\"3-2\",\"4672\",\"37\",\"0\",\"Testing\",\"Stims/Figures/144-J-10-3.bmp\",\"sahaha\",\"Right\",\"39\",\"4\",\"15\",\"6B\",\"C2\",\"C\",\"87\"
\"\",\"\",\"approach-retreat\",\"236\",\"1690674\",\"0.0-236.0\",\"\",\"\",\"3-2\",\"4219\",\"40\",\"0\",\"Testing\",\"Stims/Figures/19-J-10-4.bmp\",\"za:haha\",\"Up\",\"38\",\"4\",\"16\",\"6B\",\"C2\",\"C\",\"88\"
\"\",\"\",\"approach-retreat\",\"237\",\"1696659\",\"0.0-237.0\",\"\",\"\",\"3-2\",\"4467\",\"37\",\"0\",\"Testing\",\"Stims/Figures/128-J-10-3.bmp\",\"za:saza\",\"Right\",\"39\",\"4\",\"17\",\"6B\",\"C2\",\"C\",\"89\"
\"\",\"\",\"approach-retreat\",\"238\",\"1702410\",\"0.0-238.0\",\"\",\"\",\"3-2\",\"4240\",\"39\",\"1\",\"Testing\",\"Stims/Figures/94-J-0-2.bmp\",\"zahaza\",\"Right\",\"39\",\"4\",\"18\",\"6B\",\"C2\",\"C\",\"90\"
\"\",\"\",\"approach-retreat\",\"239\",\"1708396\",\"0.0-239.0\",\"\",\"\",\"3-2\",\"4469\",\"38\",\"1\",\"Testing\",\"Stims/Figures/19-C-20-4.bmp\",\"fasha:va\",\"Down\",\"38\",\"4\",\"19\",\"6B\",\"C1\",\"C\",\"91\"
\"\",\"\",\"approach-retreat\",\"240\",\"1714212\",\"0.0-240.0\",\"\",\"\",\"3-2\",\"4292\",\"40\",\"1\",\"Testing\",\"Stims/Figures/71-C-30-1.bmp\",\"va:fava\",\"Up\",\"40\",\"4\",\"20\",\"6B\",\"C1\",\"C\",\"92\"
\"\",\"\",\"approach-retreat\",\"241\",\"1719955\",\"0.0-241.0\",\"\",\"\",\"3-2\",\"4221\",\"39\",\"1\",\"Testing\",\"Stims/Figures/27-C-30-1.bmp\",\"fa:fa:va\",\"Left\",\"39\",\"4\",\"21\",\"6B\",\"C1\",\"C\",\"93\"
\"\",\"\",\"approach-retreat\",\"242\",\"1726523\",\"0.0-242.0\",\"\",\"\",\"3-2\",\"5050\",\"38\",\"1\",\"Testing\",\"Stims/Figures/144-C-30-3.bmp\",\"va:shasha\",\"Down\",\"38\",\"4\",\"22\",\"6B\",\"C1\",\"C\",\"94\"
\"\",\"\",\"approach-retreat\",\"243\",\"1732123\",\"0.0-243.0\",\"\",\"\",\"3-2\",\"4079\",\"39\",\"1\",\"Testing\",\"Stims/Figures/74-C-20-4.bmp\",\"va:fasha\",\"Left\",\"39\",\"4\",\"23\",\"6B\",\"C1\",\"C\",\"95\"
\"\",\"\",\"approach-retreat\",\"244\",\"1738052\",\"0.0-244.0\",\"\",\"\",\"3-2\",\"4418\",\"38\",\"1\",\"Testing\",\"Stims/Figures/86-J-0-1.bmp\",\"sa:sa:ha\",\"Up\",\"38\",\"4\",\"24\",\"6B\",\"C2\",\"C\",\"96\"
\"16638\",\"\",\"survey-text\",\"245\",\"1754694\",\"0.0-245.0\",\"\",\"{\"\"Q0\"\":\"\"PS160046\"\"}\",\"\",\"\",\"\",\"\",\"\",\"\",\"\",\"\",\"\",\"\",\"\",\"\",\"\",\"\",\"\"
