\"rt\",\"key_press\",\"trial_type\",\"trial_index\",\"time_elapsed\",\"internal_node_id\",\"view_history\",\"responses\",\"Id\",\"Rt\",\"ResKeyCode\",\"ResCorr\",\"TrialType2\",\"Image\",\"Label\",\"Location\",\"CorrectResponse\",\"Block\",\"BlockTrial\",\"Condition\",\"LabelType\",\"Subcondition\",\"trialNum\"
\"43635\",\"32\",\"text\",\"0\",\"43640\",\"0.0-0.0-0.0\",\"\",\"\",\"\",\"\",\"\",\"\",\"\",\"\",\"\",\"\",\"\",\"\",\"\",\"\",\"\",\"\",\"\"
\"73985\",\"\",\"instructions\",\"1\",\"117629\",\"0.0-1.0\",\"[{\"\"page_index\"\":0,\"\"viewing_time\"\":73982}]\",\"\",\"\",\"\",\"\",\"\",\"\",\"\",\"\",\"\",\"\",\"\",\"\",\"\",\"\",\"\",\"\"
\"42359\",\"\",\"survey-multi-choice\",\"2\",\"160064\",\"0.0-2.0\",\"\",\"{\"\"Q0\"\":\"\"Da\"\",\"\"Q1\"\":\"\"Da\"\",\"\"Q2\"\":\"\"Da\"\",\"\"Q3\"\":\"\"Da\"\",\"\"Q4\"\":\"\"Da\"\",\"\"Q5\"\":\"\"Da\"\"}\",\"\",\"\",\"\",\"\",\"\",\"\",\"\",\"\",\"\",\"\",\"\",\"\",\"\",\"\",\"\"
\"\",\"\",\"bio\",\"3\",\"171339\",\"0.0-3.0\",\"\",\"{\"\"age\"\":\"\"20\"\",\"\"gender\"\":\"\"f\"\",\"\"specify\"\":\"\"\"\"}\",\"\",\"\",\"\",\"\",\"\",\"\",\"\",\"\",\"\",\"\",\"\",\"\",\"\",\"\",\"\"
\"\",\"\",\"approach-retreat\",\"4\",\"180681\",\"0.0-4.0\",\"\",\"\",\"1-3\",\"7802\",\"38\",\"1\",\"Training\",\"Stims/Figures/139-J-0-2.bmp\",\"va:shasha\",\"Down\",\"38\",\"1\",\"1\",\"8\",\"C1\",\"J\",\"1\"
\"\",\"\",\"approach-retreat\",\"5\",\"187854\",\"0.0-5.0\",\"\",\"\",\"1-3\",\"5653\",\"39\",\"0\",\"Training\",\"Stims/Figures/7-C-20-4.bmp\",\"sa:haha\",\"Left\",\"37\",\"1\",\"2\",\"8\",\"C2\",\"J\",\"2\"
\"\",\"\",\"approach-retreat\",\"6\",\"195035\",\"0.0-6.0\",\"\",\"\",\"1-3\",\"5671\",\"40\",\"1\",\"Training\",\"Stims/Figures/57-J-0-1.bmp\",\"fafasha\",\"Up\",\"40\",\"1\",\"3\",\"8\",\"C1\",\"J\",\"3\"
\"\",\"\",\"approach-retreat\",\"7\",\"201302\",\"0.0-7.0\",\"\",\"\",\"1-3\",\"4754\",\"39\",\"0\",\"Training\",\"Stims/Figures/7-J-10-4.bmp\",\"sa:sa:za\",\"Right\",\"37\",\"1\",\"4\",\"8\",\"C2\",\"J\",\"4\"
\"\",\"\",\"approach-retreat\",\"8\",\"207356\",\"0.0-8.0\",\"\",\"\",\"1-3\",\"4535\",\"39\",\"1\",\"Training\",\"Stims/Figures/44-J-10-3.bmp\",\"zasa:ha\",\"Left\",\"39\",\"1\",\"5\",\"8\",\"C2\",\"J\",\"5\"
\"\",\"\",\"approach-retreat\",\"9\",\"213640\",\"0.0-9.0\",\"\",\"\",\"1-3\",\"4770\",\"40\",\"0\",\"Training\",\"Stims/Figures/44-C-30-3.bmp\",\"sasa:ha\",\"Up\",\"38\",\"1\",\"6\",\"8\",\"C2\",\"J\",\"6\"
\"\",\"\",\"approach-retreat\",\"10\",\"221236\",\"0.0-10.0\",\"\",\"\",\"1-3\",\"6075\",\"38\",\"0\",\"Training\",\"Stims/Figures/94-C-20-2.bmp\",\"fasha:va\",\"Down\",\"40\",\"1\",\"7\",\"8\",\"C1\",\"J\",\"7\"
\"\",\"\",\"approach-retreat\",\"11\",\"230948\",\"0.0-11.0\",\"\",\"\",\"1-3\",\"8196\",\"39\",\"0\",\"Training\",\"Stims/Figures/57-C-30-1.bmp\",\"vafa:va\",\"Left\",\"37\",\"1\",\"8\",\"8\",\"C1\",\"J\",\"8\"
\"\",\"\",\"approach-retreat\",\"12\",\"239603\",\"0.0-12.0\",\"\",\"\",\"1-3\",\"7144\",\"37\",\"0\",\"Training\",\"Stims/Figures/102-C-20-4.bmp\",\"zasaha\",\"Right\",\"39\",\"1\",\"9\",\"8\",\"C2\",\"J\",\"9\"
\"\",\"\",\"approach-retreat\",\"13\",\"245897\",\"0.0-13.0\",\"\",\"\",\"1-3\",\"4774\",\"40\",\"1\",\"Training\",\"Stims/Figures/94-J-0-2.bmp\",\"fashasha\",\"Up\",\"40\",\"1\",\"10\",\"8\",\"C1\",\"J\",\"10\"
\"\",\"\",\"approach-retreat\",\"14\",\"252860\",\"0.0-14.0\",\"\",\"\",\"1-3\",\"5447\",\"40\",\"0\",\"Training\",\"Stims/Figures/71-C-30-1.bmp\",\"fashava\",\"Up\",\"38\",\"1\",\"11\",\"8\",\"C1\",\"J\",\"11\"
\"\",\"\",\"approach-retreat\",\"15\",\"259056\",\"0.0-15.0\",\"\",\"\",\"1-3\",\"4680\",\"37\",\"0\",\"Training\",\"Stims/Figures/100-C-30-3.bmp\",\"sa:saha\",\"Right\",\"39\",\"1\",\"12\",\"8\",\"C2\",\"J\",\"12\"
\"\",\"\",\"approach-retreat\",\"16\",\"265165\",\"0.0-16.0\",\"\",\"\",\"1-3\",\"4598\",\"38\",\"1\",\"Training\",\"Stims/Figures/100-J-10-3.bmp\",\"za:saza\",\"Down\",\"38\",\"1\",\"13\",\"8\",\"C2\",\"J\",\"13\"
\"\",\"\",\"approach-retreat\",\"17\",\"271575\",\"0.0-17.0\",\"\",\"\",\"1-3\",\"4897\",\"39\",\"1\",\"Training\",\"Stims/Figures/139-C-20-2.bmp\",\"vasha:sha\",\"Right\",\"39\",\"1\",\"14\",\"8\",\"C1\",\"J\",\"14\"
\"\",\"\",\"approach-retreat\",\"18\",\"278745\",\"0.0-18.0\",\"\",\"\",\"1-3\",\"5654\",\"39\",\"1\",\"Training\",\"Stims/Figures/71-J-0-1.bmp\",\"vafa:sha\",\"Left\",\"39\",\"1\",\"15\",\"8\",\"C1\",\"J\",\"15\"
\"\",\"\",\"approach-retreat\",\"19\",\"285370\",\"0.0-19.0\",\"\",\"\",\"1-3\",\"5111\",\"40\",\"0\",\"Training\",\"Stims/Figures/102-J-10-4.bmp\",\"sa:saza\",\"Down\",\"38\",\"1\",\"16\",\"8\",\"C2\",\"J\",\"16\"
\"\",\"\",\"approach-retreat\",\"20\",\"291424\",\"0.0-20.0\",\"\",\"\",\"1-3\",\"4531\",\"39\",\"0\",\"Training\",\"Stims/Figures/102-C-20-4.bmp\",\"zasaha\",\"Left\",\"37\",\"2\",\"1\",\"8\",\"C2\",\"J\",\"17\"
\"\",\"\",\"approach-retreat\",\"21\",\"297267\",\"0.0-21.0\",\"\",\"\",\"1-3\",\"4326\",\"39\",\"1\",\"Training\",\"Stims/Figures/94-J-0-2.bmp\",\"fashasha\",\"Left\",\"39\",\"2\",\"2\",\"8\",\"C1\",\"J\",\"18\"
\"\",\"\",\"approach-retreat\",\"22\",\"305602\",\"0.0-22.0\",\"\",\"\",\"1-3\",\"6823\",\"39\",\"0\",\"Training\",\"Stims/Figures/100-J-10-3.bmp\",\"za:saza\",\"Right\",\"37\",\"2\",\"3\",\"8\",\"C2\",\"J\",\"19\"
\"\",\"\",\"approach-retreat\",\"23\",\"311937\",\"0.0-23.0\",\"\",\"\",\"1-3\",\"4819\",\"38\",\"0\",\"Training\",\"Stims/Figures/71-J-0-1.bmp\",\"vafa:sha\",\"Up\",\"40\",\"2\",\"4\",\"8\",\"C1\",\"J\",\"20\"
\"\",\"\",\"approach-retreat\",\"24\",\"318133\",\"0.0-24.0\",\"\",\"\",\"1-3\",\"4679\",\"37\",\"1\",\"Training\",\"Stims/Figures/44-J-10-3.bmp\",\"zasa:ha\",\"Right\",\"37\",\"2\",\"5\",\"8\",\"C2\",\"J\",\"21\"
\"\",\"\",\"approach-retreat\",\"25\",\"324063\",\"0.0-25.0\",\"\",\"\",\"1-3\",\"4417\",\"40\",\"0\",\"Training\",\"Stims/Figures/100-C-30-3.bmp\",\"sa:saha\",\"Up\",\"38\",\"2\",\"6\",\"8\",\"C2\",\"J\",\"22\"
\"\",\"\",\"approach-retreat\",\"26\",\"330596\",\"0.0-26.0\",\"\",\"\",\"1-3\",\"5019\",\"37\",\"0\",\"Training\",\"Stims/Figures/102-J-10-4.bmp\",\"sa:saza\",\"Left\",\"39\",\"2\",\"7\",\"8\",\"C2\",\"J\",\"23\"
\"\",\"\",\"approach-retreat\",\"27\",\"338385\",\"0.0-27.0\",\"\",\"\",\"1-3\",\"6265\",\"37\",\"1\",\"Training\",\"Stims/Figures/71-C-30-1.bmp\",\"fashava\",\"Left\",\"37\",\"2\",\"8\",\"8\",\"C1\",\"J\",\"24\"
\"\",\"\",\"approach-retreat\",\"28\",\"346781\",\"0.0-28.0\",\"\",\"\",\"1-3\",\"6883\",\"38\",\"0\",\"Training\",\"Stims/Figures/57-J-0-1.bmp\",\"fafasha\",\"Up\",\"40\",\"2\",\"9\",\"8\",\"C1\",\"J\",\"25\"
\"\",\"\",\"approach-retreat\",\"29\",\"354690\",\"0.0-29.0\",\"\",\"\",\"1-3\",\"6397\",\"37\",\"0\",\"Training\",\"Stims/Figures/139-C-20-2.bmp\",\"vasha:sha\",\"Right\",\"39\",\"2\",\"10\",\"8\",\"C1\",\"J\",\"26\"
\"\",\"\",\"approach-retreat\",\"30\",\"363773\",\"0.0-30.0\",\"\",\"\",\"1-3\",\"7568\",\"38\",\"0\",\"Training\",\"Stims/Figures/57-C-30-1.bmp\",\"vafa:va\",\"Down\",\"40\",\"2\",\"11\",\"8\",\"C1\",\"J\",\"27\"
\"\",\"\",\"approach-retreat\",\"31\",\"370347\",\"0.0-31.0\",\"\",\"\",\"1-3\",\"5056\",\"39\",\"0\",\"Training\",\"Stims/Figures/139-J-0-2.bmp\",\"va:shasha\",\"Right\",\"37\",\"2\",\"12\",\"8\",\"C1\",\"J\",\"28\"
\"\",\"\",\"approach-retreat\",\"32\",\"377101\",\"0.0-32.0\",\"\",\"\",\"1-3\",\"5242\",\"38\",\"0\",\"Training\",\"Stims/Figures/7-C-20-4.bmp\",\"sa:haha\",\"Down\",\"40\",\"2\",\"13\",\"8\",\"C2\",\"J\",\"29\"
\"\",\"\",\"approach-retreat\",\"33\",\"384316\",\"0.0-33.0\",\"\",\"\",\"1-3\",\"5700\",\"40\",\"0\",\"Training\",\"Stims/Figures/7-J-10-4.bmp\",\"sa:sa:za\",\"Down\",\"38\",\"2\",\"14\",\"8\",\"C2\",\"J\",\"30\"
\"\",\"\",\"approach-retreat\",\"34\",\"390608\",\"0.0-34.0\",\"\",\"\",\"1-3\",\"4771\",\"38\",\"0\",\"Training\",\"Stims/Figures/94-C-20-2.bmp\",\"fasha:va\",\"Down\",\"40\",\"2\",\"15\",\"8\",\"C1\",\"J\",\"31\"
\"\",\"\",\"approach-retreat\",\"35\",\"396945\",\"0.0-35.0\",\"\",\"\",\"1-3\",\"4819\",\"40\",\"0\",\"Training\",\"Stims/Figures/44-C-30-3.bmp\",\"sasa:ha\",\"Up\",\"38\",\"2\",\"16\",\"8\",\"C2\",\"J\",\"32\"
\"\",\"\",\"approach-retreat\",\"36\",\"406326\",\"0.0-36.0\",\"\",\"\",\"1-3\",\"7863\",\"40\",\"0\",\"Training\",\"Stims/Figures/102-C-20-4.bmp\",\"zasaha\",\"Up\",\"38\",\"3\",\"1\",\"8\",\"C2\",\"J\",\"33\"
\"\",\"\",\"approach-retreat\",\"37\",\"412403\",\"0.0-37.0\",\"\",\"\",\"1-3\",\"4553\",\"37\",\"1\",\"Training\",\"Stims/Figures/139-J-0-2.bmp\",\"va:shasha\",\"Right\",\"37\",\"3\",\"2\",\"8\",\"C1\",\"J\",\"34\"
\"\",\"\",\"approach-retreat\",\"38\",\"420856\",\"0.0-38.0\",\"\",\"\",\"1-3\",\"6941\",\"39\",\"1\",\"Training\",\"Stims/Figures/71-J-0-1.bmp\",\"vafa:sha\",\"Left\",\"39\",\"3\",\"3\",\"8\",\"C1\",\"J\",\"35\"
\"\",\"\",\"approach-retreat\",\"39\",\"429019\",\"0.0-39.0\",\"\",\"\",\"1-3\",\"6649\",\"38\",\"1\",\"Training\",\"Stims/Figures/139-C-20-2.bmp\",\"vasha:sha\",\"Up\",\"38\",\"3\",\"4\",\"8\",\"C1\",\"J\",\"36\"
\"\",\"\",\"approach-retreat\",\"40\",\"436783\",\"0.0-40.0\",\"\",\"\",\"1-3\",\"6255\",\"37\",\"1\",\"Training\",\"Stims/Figures/71-C-30-1.bmp\",\"fashava\",\"Left\",\"37\",\"3\",\"5\",\"8\",\"C1\",\"J\",\"37\"
\"\",\"\",\"approach-retreat\",\"41\",\"442932\",\"0.0-41.0\",\"\",\"\",\"1-3\",\"4636\",\"39\",\"1\",\"Training\",\"Stims/Figures/100-J-10-3.bmp\",\"za:saza\",\"Left\",\"39\",\"3\",\"6\",\"8\",\"C2\",\"J\",\"38\"
\"\",\"\",\"approach-retreat\",\"42\",\"450962\",\"0.0-42.0\",\"\",\"\",\"1-3\",\"6516\",\"40\",\"0\",\"Training\",\"Stims/Figures/94-J-0-2.bmp\",\"fashasha\",\"Down\",\"38\",\"3\",\"7\",\"8\",\"C1\",\"J\",\"39\"
\"\",\"\",\"approach-retreat\",\"43\",\"457956\",\"0.0-43.0\",\"\",\"\",\"1-3\",\"5481\",\"37\",\"1\",\"Training\",\"Stims/Figures/44-C-30-3.bmp\",\"sasa:ha\",\"Left\",\"37\",\"3\",\"8\",\"8\",\"C2\",\"J\",\"40\"
\"\",\"\",\"approach-retreat\",\"44\",\"464920\",\"0.0-44.0\",\"\",\"\",\"1-3\",\"5444\",\"37\",\"1\",\"Training\",\"Stims/Figures/57-J-0-1.bmp\",\"fafasha\",\"Right\",\"37\",\"3\",\"9\",\"8\",\"C1\",\"J\",\"41\"
\"\",\"\",\"approach-retreat\",\"45\",\"471478\",\"0.0-45.0\",\"\",\"\",\"1-3\",\"5034\",\"38\",\"1\",\"Training\",\"Stims/Figures/7-C-20-4.bmp\",\"sa:haha\",\"Up\",\"38\",\"3\",\"10\",\"8\",\"C2\",\"J\",\"42\"
\"\",\"\",\"approach-retreat\",\"46\",\"478912\",\"0.0-46.0\",\"\",\"\",\"1-3\",\"5913\",\"39\",\"1\",\"Training\",\"Stims/Figures/57-C-30-1.bmp\",\"vafa:va\",\"Right\",\"39\",\"3\",\"11\",\"8\",\"C1\",\"J\",\"43\"
\"\",\"\",\"approach-retreat\",\"47\",\"487697\",\"0.0-47.0\",\"\",\"\",\"1-3\",\"7271\",\"38\",\"1\",\"Training\",\"Stims/Figures/44-J-10-3.bmp\",\"zasa:ha\",\"Down\",\"38\",\"3\",\"12\",\"8\",\"C2\",\"J\",\"44\"
\"\",\"\",\"approach-retreat\",\"48\",\"494421\",\"0.0-48.0\",\"\",\"\",\"1-3\",\"5202\",\"38\",\"0\",\"Training\",\"Stims/Figures/7-J-10-4.bmp\",\"sa:sa:za\",\"Up\",\"40\",\"3\",\"13\",\"8\",\"C2\",\"J\",\"45\"
\"\",\"\",\"approach-retreat\",\"49\",\"502994\",\"0.0-49.0\",\"\",\"\",\"1-3\",\"7060\",\"40\",\"1\",\"Training\",\"Stims/Figures/94-C-20-2.bmp\",\"fasha:va\",\"Down\",\"40\",\"3\",\"14\",\"8\",\"C1\",\"J\",\"46\"
\"\",\"\",\"approach-retreat\",\"50\",\"510724\",\"0.0-50.0\",\"\",\"\",\"1-3\",\"6218\",\"39\",\"1\",\"Training\",\"Stims/Figures/100-C-30-3.bmp\",\"sa:saha\",\"Right\",\"39\",\"3\",\"15\",\"8\",\"C2\",\"J\",\"47\"
\"\",\"\",\"approach-retreat\",\"51\",\"519355\",\"0.0-51.0\",\"\",\"\",\"1-3\",\"7116\",\"38\",\"1\",\"Training\",\"Stims/Figures/102-J-10-4.bmp\",\"sa:saza\",\"Down\",\"38\",\"3\",\"16\",\"8\",\"C2\",\"J\",\"48\"
\"\",\"\",\"approach-retreat\",\"52\",\"527215\",\"0.0-52.0\",\"\",\"\",\"1-3\",\"6346\",\"40\",\"1\",\"Training\",\"Stims/Figures/71-J-0-1.bmp\",\"vafa:sha\",\"Up\",\"40\",\"4\",\"1\",\"8\",\"C1\",\"J\",\"49\"
\"\",\"\",\"approach-retreat\",\"53\",\"536892\",\"0.0-53.0\",\"\",\"\",\"1-3\",\"8160\",\"37\",\"1\",\"Training\",\"Stims/Figures/100-C-30-3.bmp\",\"sa:saha\",\"Left\",\"37\",\"4\",\"2\",\"8\",\"C2\",\"J\",\"50\"
\"\",\"\",\"approach-retreat\",\"54\",\"543127\",\"0.0-54.0\",\"\",\"\",\"1-3\",\"4723\",\"39\",\"1\",\"Training\",\"Stims/Figures/44-C-30-3.bmp\",\"sasa:ha\",\"Right\",\"39\",\"4\",\"3\",\"8\",\"C2\",\"J\",\"51\"
\"\",\"\",\"approach-retreat\",\"55\",\"550479\",\"0.0-55.0\",\"\",\"\",\"1-3\",\"5839\",\"40\",\"1\",\"Training\",\"Stims/Figures/57-C-30-1.bmp\",\"vafa:va\",\"Down\",\"40\",\"4\",\"4\",\"8\",\"C1\",\"J\",\"52\"
\"\",\"\",\"approach-retreat\",\"56\",\"557236\",\"0.0-56.0\",\"\",\"\",\"1-3\",\"5244\",\"37\",\"1\",\"Training\",\"Stims/Figures/44-J-10-3.bmp\",\"zasa:ha\",\"Right\",\"37\",\"4\",\"5\",\"8\",\"C2\",\"J\",\"53\"
\"\",\"\",\"approach-retreat\",\"57\",\"567227\",\"0.0-57.0\",\"\",\"\",\"1-3\",\"8479\",\"39\",\"1\",\"Training\",\"Stims/Figures/94-J-0-2.bmp\",\"fashasha\",\"Left\",\"39\",\"4\",\"6\",\"8\",\"C1\",\"J\",\"54\"
\"\",\"\",\"approach-retreat\",\"58\",\"574935\",\"0.0-58.0\",\"\",\"\",\"1-3\",\"6194\",\"38\",\"1\",\"Training\",\"Stims/Figures/100-J-10-3.bmp\",\"za:saza\",\"Down\",\"38\",\"4\",\"7\",\"8\",\"C2\",\"J\",\"55\"
\"\",\"\",\"approach-retreat\",\"59\",\"582278\",\"0.0-59.0\",\"\",\"\",\"1-3\",\"5829\",\"38\",\"1\",\"Training\",\"Stims/Figures/94-C-20-2.bmp\",\"fasha:va\",\"Up\",\"38\",\"4\",\"8\",\"8\",\"C1\",\"J\",\"56\"
\"\",\"\",\"approach-retreat\",\"60\",\"588712\",\"0.0-60.0\",\"\",\"\",\"1-3\",\"4920\",\"37\",\"1\",\"Training\",\"Stims/Figures/57-J-0-1.bmp\",\"fafasha\",\"Right\",\"37\",\"4\",\"9\",\"8\",\"C1\",\"J\",\"57\"
\"\",\"\",\"approach-retreat\",\"61\",\"600740\",\"0.0-61.0\",\"\",\"\",\"1-3\",\"10518\",\"40\",\"1\",\"Training\",\"Stims/Figures/139-C-20-2.bmp\",\"vasha:sha\",\"Down\",\"40\",\"4\",\"10\",\"8\",\"C1\",\"J\",\"58\"
\"\",\"\",\"approach-retreat\",\"62\",\"607850\",\"0.0-62.0\",\"\",\"\",\"1-3\",\"5596\",\"39\",\"1\",\"Training\",\"Stims/Figures/139-J-0-2.bmp\",\"va:shasha\",\"Left\",\"39\",\"4\",\"11\",\"8\",\"C1\",\"J\",\"59\"
\"\",\"\",\"approach-retreat\",\"63\",\"616769\",\"0.0-63.0\",\"\",\"\",\"1-3\",\"7408\",\"40\",\"0\",\"Training\",\"Stims/Figures/7-C-20-4.bmp\",\"sa:haha\",\"Up\",\"38\",\"4\",\"12\",\"8\",\"C2\",\"J\",\"60\"
\"\",\"\",\"approach-retreat\",\"64\",\"623576\",\"0.0-64.0\",\"\",\"\",\"1-3\",\"5296\",\"40\",\"1\",\"Training\",\"Stims/Figures/102-C-20-4.bmp\",\"zasaha\",\"Down\",\"40\",\"4\",\"13\",\"8\",\"C2\",\"J\",\"61\"
\"\",\"\",\"approach-retreat\",\"65\",\"629756\",\"0.0-65.0\",\"\",\"\",\"1-3\",\"4667\",\"39\",\"1\",\"Training\",\"Stims/Figures/71-C-30-1.bmp\",\"fashava\",\"Right\",\"39\",\"4\",\"14\",\"8\",\"C1\",\"J\",\"62\"
\"\",\"\",\"approach-retreat\",\"66\",\"638271\",\"0.0-66.0\",\"\",\"\",\"1-3\",\"7004\",\"37\",\"0\",\"Training\",\"Stims/Figures/7-J-10-4.bmp\",\"sa:sa:za\",\"Left\",\"39\",\"4\",\"15\",\"8\",\"C2\",\"J\",\"63\"
\"\",\"\",\"approach-retreat\",\"67\",\"649037\",\"0.0-67.0\",\"\",\"\",\"1-3\",\"9252\",\"40\",\"1\",\"Training\",\"Stims/Figures/102-J-10-4.bmp\",\"sa:saza\",\"Up\",\"40\",\"4\",\"16\",\"8\",\"C2\",\"J\",\"64\"
\"\",\"\",\"approach-retreat\",\"68\",\"656362\",\"0.0-68.0\",\"\",\"\",\"1-3\",\"5812\",\"39\",\"1\",\"Training\",\"Stims/Figures/71-J-0-1.bmp\",\"vafa:sha\",\"Left\",\"39\",\"5\",\"1\",\"8\",\"C1\",\"J\",\"65\"
\"\",\"\",\"approach-retreat\",\"69\",\"664173\",\"0.0-69.0\",\"\",\"\",\"1-3\",\"6298\",\"38\",\"0\",\"Training\",\"Stims/Figures/102-C-20-4.bmp\",\"zasaha\",\"Down\",\"40\",\"5\",\"2\",\"8\",\"C2\",\"J\",\"66\"
\"\",\"\",\"approach-retreat\",\"70\",\"670899\",\"0.0-70.0\",\"\",\"\",\"1-3\",\"5213\",\"39\",\"1\",\"Training\",\"Stims/Figures/94-C-20-2.bmp\",\"fasha:va\",\"Right\",\"39\",\"5\",\"3\",\"8\",\"C1\",\"J\",\"67\"
\"\",\"\",\"approach-retreat\",\"71\",\"680508\",\"0.0-71.0\",\"\",\"\",\"1-3\",\"8097\",\"37\",\"1\",\"Training\",\"Stims/Figures/139-C-20-2.bmp\",\"vasha:sha\",\"Left\",\"37\",\"5\",\"4\",\"8\",\"C1\",\"J\",\"68\"
\"\",\"\",\"approach-retreat\",\"72\",\"687769\",\"0.0-72.0\",\"\",\"\",\"1-3\",\"5746\",\"40\",\"1\",\"Training\",\"Stims/Figures/139-J-0-2.bmp\",\"va:shasha\",\"Up\",\"40\",\"5\",\"5\",\"8\",\"C1\",\"J\",\"69\"
\"\",\"\",\"approach-retreat\",\"73\",\"694641\",\"0.0-73.0\",\"\",\"\",\"1-3\",\"5362\",\"39\",\"1\",\"Training\",\"Stims/Figures/44-C-30-3.bmp\",\"sasa:ha\",\"Right\",\"39\",\"5\",\"6\",\"8\",\"C2\",\"J\",\"70\"
\"\",\"\",\"approach-retreat\",\"74\",\"701756\",\"0.0-74.0\",\"\",\"\",\"1-3\",\"5594\",\"38\",\"1\",\"Training\",\"Stims/Figures/57-J-0-1.bmp\",\"fafasha\",\"Down\",\"38\",\"5\",\"7\",\"8\",\"C1\",\"J\",\"71\"
\"\",\"\",\"approach-retreat\",\"75\",\"709440\",\"0.0-75.0\",\"\",\"\",\"1-3\",\"6174\",\"40\",\"1\",\"Training\",\"Stims/Figures/7-J-10-4.bmp\",\"sa:sa:za\",\"Up\",\"40\",\"5\",\"8\",\"8\",\"C2\",\"J\",\"72\"
\"\",\"\",\"approach-retreat\",\"76\",\"718879\",\"0.0-76.0\",\"\",\"\",\"1-3\",\"7922\",\"37\",\"1\",\"Training\",\"Stims/Figures/7-C-20-4.bmp\",\"sa:haha\",\"Left\",\"37\",\"5\",\"9\",\"8\",\"C2\",\"J\",\"73\"
\"\",\"\",\"approach-retreat\",\"77\",\"725002\",\"0.0-77.0\",\"\",\"\",\"1-3\",\"4611\",\"39\",\"1\",\"Training\",\"Stims/Figures/100-J-10-3.bmp\",\"za:saza\",\"Left\",\"39\",\"5\",\"10\",\"8\",\"C2\",\"J\",\"74\"
\"\",\"\",\"approach-retreat\",\"78\",\"730885\",\"0.0-78.0\",\"\",\"\",\"1-3\",\"4362\",\"38\",\"1\",\"Training\",\"Stims/Figures/102-J-10-4.bmp\",\"sa:saza\",\"Down\",\"38\",\"5\",\"11\",\"8\",\"C2\",\"J\",\"75\"
\"\",\"\",\"approach-retreat\",\"79\",\"737226\",\"0.0-79.0\",\"\",\"\",\"1-3\",\"4823\",\"40\",\"1\",\"Training\",\"Stims/Figures/44-J-10-3.bmp\",\"zasa:ha\",\"Up\",\"40\",\"5\",\"12\",\"8\",\"C2\",\"J\",\"76\"
\"\",\"\",\"approach-retreat\",\"80\",\"743502\",\"0.0-80.0\",\"\",\"\",\"1-3\",\"4739\",\"40\",\"1\",\"Training\",\"Stims/Figures/57-C-30-1.bmp\",\"vafa:va\",\"Down\",\"40\",\"5\",\"13\",\"8\",\"C1\",\"J\",\"77\"
\"\",\"\",\"approach-retreat\",\"81\",\"751938\",\"0.0-81.0\",\"\",\"\",\"1-3\",\"6918\",\"39\",\"1\",\"Training\",\"Stims/Figures/71-C-30-1.bmp\",\"fashava\",\"Right\",\"39\",\"5\",\"14\",\"8\",\"C1\",\"J\",\"78\"
\"\",\"\",\"approach-retreat\",\"82\",\"758231\",\"0.0-82.0\",\"\",\"\",\"1-3\",\"4775\",\"37\",\"1\",\"Training\",\"Stims/Figures/94-J-0-2.bmp\",\"fashasha\",\"Right\",\"37\",\"5\",\"15\",\"8\",\"C1\",\"J\",\"79\"
\"\",\"\",\"approach-retreat\",\"83\",\"766936\",\"0.0-83.0\",\"\",\"\",\"1-3\",\"7174\",\"38\",\"1\",\"Training\",\"Stims/Figures/100-C-30-3.bmp\",\"sa:saha\",\"Up\",\"38\",\"5\",\"16\",\"8\",\"C2\",\"J\",\"80\"
\"\",\"\",\"approach-retreat\",\"84\",\"778394\",\"0.0-84.0\",\"\",\"\",\"1-3\",\"9947\",\"40\",\"1\",\"Training\",\"Stims/Figures/139-C-20-2.bmp\",\"vasha:sha\",\"Down\",\"40\",\"6\",\"1\",\"8\",\"C1\",\"J\",\"81\"
\"\",\"\",\"approach-retreat\",\"85\",\"786907\",\"0.0-85.0\",\"\",\"\",\"1-3\",\"6997\",\"40\",\"1\",\"Training\",\"Stims/Figures/94-J-0-2.bmp\",\"fashasha\",\"Up\",\"40\",\"6\",\"2\",\"8\",\"C1\",\"J\",\"82\"
\"\",\"\",\"approach-retreat\",\"86\",\"799549\",\"0.0-86.0\",\"\",\"\",\"1-3\",\"11124\",\"38\",\"1\",\"Training\",\"Stims/Figures/100-J-10-3.bmp\",\"za:saza\",\"Down\",\"38\",\"6\",\"3\",\"8\",\"C2\",\"J\",\"83\"
\"\",\"\",\"approach-retreat\",\"87\",\"807485\",\"0.0-87.0\",\"\",\"\",\"1-3\",\"6422\",\"40\",\"1\",\"Training\",\"Stims/Figures/71-J-0-1.bmp\",\"vafa:sha\",\"Up\",\"40\",\"6\",\"4\",\"8\",\"C1\",\"J\",\"84\"
\"\",\"\",\"approach-retreat\",\"88\",\"815233\",\"0.0-88.0\",\"\",\"\",\"1-3\",\"6233\",\"40\",\"1\",\"Training\",\"Stims/Figures/102-J-10-4.bmp\",\"sa:saza\",\"Up\",\"40\",\"6\",\"5\",\"8\",\"C2\",\"J\",\"85\"
\"\",\"\",\"approach-retreat\",\"89\",\"823011\",\"0.0-89.0\",\"\",\"\",\"1-3\",\"6260\",\"37\",\"1\",\"Training\",\"Stims/Figures/102-C-20-4.bmp\",\"zasaha\",\"Left\",\"37\",\"6\",\"6\",\"8\",\"C2\",\"J\",\"86\"
\"\",\"\",\"approach-retreat\",\"90\",\"830211\",\"0.0-90.0\",\"\",\"\",\"1-3\",\"5676\",\"38\",\"1\",\"Training\",\"Stims/Figures/71-C-30-1.bmp\",\"fashava\",\"Up\",\"38\",\"6\",\"7\",\"8\",\"C1\",\"J\",\"87\"
\"\",\"\",\"approach-retreat\",\"91\",\"837280\",\"0.0-91.0\",\"\",\"\",\"1-3\",\"5554\",\"39\",\"1\",\"Training\",\"Stims/Figures/57-C-30-1.bmp\",\"vafa:va\",\"Right\",\"39\",\"6\",\"8\",\"8\",\"C1\",\"J\",\"88\"
\"\",\"\",\"approach-retreat\",\"92\",\"843245\",\"0.0-92.0\",\"\",\"\",\"1-3\",\"4452\",\"38\",\"1\",\"Training\",\"Stims/Figures/57-J-0-1.bmp\",\"fafasha\",\"Down\",\"38\",\"6\",\"9\",\"8\",\"C1\",\"J\",\"89\"
\"\",\"\",\"approach-retreat\",\"93\",\"849576\",\"0.0-93.0\",\"\",\"\",\"1-3\",\"4815\",\"39\",\"1\",\"Training\",\"Stims/Figures/44-J-10-3.bmp\",\"zasa:ha\",\"Left\",\"39\",\"6\",\"10\",\"8\",\"C2\",\"J\",\"90\"
\"\",\"\",\"approach-retreat\",\"94\",\"856755\",\"0.0-94.0\",\"\",\"\",\"1-3\",\"5663\",\"37\",\"1\",\"Training\",\"Stims/Figures/100-C-30-3.bmp\",\"sa:saha\",\"Left\",\"37\",\"6\",\"11\",\"8\",\"C2\",\"J\",\"91\"
\"\",\"\",\"approach-retreat\",\"95\",\"863224\",\"0.0-95.0\",\"\",\"\",\"1-3\",\"4956\",\"38\",\"1\",\"Training\",\"Stims/Figures/139-J-0-2.bmp\",\"va:shasha\",\"Down\",\"38\",\"6\",\"12\",\"8\",\"C1\",\"J\",\"92\"
\"\",\"\",\"approach-retreat\",\"96\",\"870142\",\"0.0-96.0\",\"\",\"\",\"1-3\",\"5402\",\"39\",\"1\",\"Training\",\"Stims/Figures/7-C-20-4.bmp\",\"sa:haha\",\"Right\",\"39\",\"6\",\"13\",\"8\",\"C2\",\"J\",\"93\"
\"\",\"\",\"approach-retreat\",\"97\",\"877121\",\"0.0-97.0\",\"\",\"\",\"1-3\",\"5461\",\"39\",\"1\",\"Training\",\"Stims/Figures/44-C-30-3.bmp\",\"sasa:ha\",\"Right\",\"39\",\"6\",\"14\",\"8\",\"C2\",\"J\",\"94\"
\"\",\"\",\"approach-retreat\",\"98\",\"884272\",\"0.0-98.0\",\"\",\"\",\"1-3\",\"5635\",\"37\",\"1\",\"Training\",\"Stims/Figures/94-C-20-2.bmp\",\"fasha:va\",\"Left\",\"37\",\"6\",\"15\",\"8\",\"C1\",\"J\",\"95\"
\"\",\"\",\"approach-retreat\",\"99\",\"890581\",\"0.0-99.0\",\"\",\"\",\"1-3\",\"4794\",\"39\",\"0\",\"Training\",\"Stims/Figures/7-J-10-4.bmp\",\"sa:sa:za\",\"Right\",\"37\",\"6\",\"16\",\"8\",\"C2\",\"J\",\"96\"
\"\",\"\",\"approach-retreat\",\"100\",\"897964\",\"0.0-100.0\",\"\",\"\",\"1-3\",\"5865\",\"40\",\"1\",\"Training\",\"Stims/Figures/57-J-0-1.bmp\",\"fafasha\",\"Up\",\"40\",\"7\",\"1\",\"8\",\"C1\",\"J\",\"97\"
\"\",\"\",\"approach-retreat\",\"101\",\"904264\",\"0.0-101.0\",\"\",\"\",\"1-3\",\"4785\",\"38\",\"1\",\"Training\",\"Stims/Figures/57-C-30-1.bmp\",\"vafa:va\",\"Up\",\"38\",\"7\",\"2\",\"8\",\"C1\",\"J\",\"98\"
\"\",\"\",\"approach-retreat\",\"102\",\"911261\",\"0.0-102.0\",\"\",\"\",\"1-3\",\"5471\",\"39\",\"1\",\"Training\",\"Stims/Figures/7-J-10-4.bmp\",\"sa:sa:za\",\"Left\",\"39\",\"7\",\"3\",\"8\",\"C2\",\"J\",\"99\"
\"\",\"\",\"approach-retreat\",\"103\",\"918447\",\"0.0-103.0\",\"\",\"\",\"1-3\",\"5673\",\"37\",\"1\",\"Training\",\"Stims/Figures/71-J-0-1.bmp\",\"vafa:sha\",\"Right\",\"37\",\"7\",\"4\",\"8\",\"C1\",\"J\",\"100\"
\"\",\"\",\"approach-retreat\",\"104\",\"925206\",\"0.0-104.0\",\"\",\"\",\"1-3\",\"5245\",\"39\",\"1\",\"Training\",\"Stims/Figures/7-C-20-4.bmp\",\"sa:haha\",\"Right\",\"39\",\"7\",\"5\",\"8\",\"C2\",\"J\",\"101\"
\"\",\"\",\"approach-retreat\",\"105\",\"932305\",\"0.0-105.0\",\"\",\"\",\"1-3\",\"5581\",\"39\",\"1\",\"Training\",\"Stims/Figures/139-J-0-2.bmp\",\"va:shasha\",\"Left\",\"39\",\"7\",\"6\",\"8\",\"C1\",\"J\",\"102\"
\"\",\"\",\"approach-retreat\",\"106\",\"939334\",\"0.0-106.0\",\"\",\"\",\"1-3\",\"5507\",\"37\",\"0\",\"Training\",\"Stims/Figures/71-C-30-1.bmp\",\"fashava\",\"Right\",\"39\",\"7\",\"7\",\"8\",\"C1\",\"J\",\"103\"
\"\",\"\",\"approach-retreat\",\"107\",\"945726\",\"0.0-107.0\",\"\",\"\",\"1-3\",\"4876\",\"39\",\"1\",\"Training\",\"Stims/Figures/94-J-0-2.bmp\",\"fashasha\",\"Left\",\"39\",\"7\",\"8\",\"8\",\"C1\",\"J\",\"104\"
\"\",\"\",\"approach-retreat\",\"108\",\"953556\",\"0.0-108.0\",\"\",\"\",\"1-3\",\"6315\",\"40\",\"1\",\"Training\",\"Stims/Figures/94-C-20-2.bmp\",\"fasha:va\",\"Down\",\"40\",\"7\",\"9\",\"8\",\"C1\",\"J\",\"105\"
\"\",\"\",\"approach-retreat\",\"109\",\"960905\",\"0.0-109.0\",\"\",\"\",\"1-3\",\"5829\",\"38\",\"1\",\"Training\",\"Stims/Figures/44-C-30-3.bmp\",\"sasa:ha\",\"Up\",\"38\",\"7\",\"10\",\"8\",\"C2\",\"J\",\"106\"
\"\",\"\",\"approach-retreat\",\"110\",\"968450\",\"0.0-110.0\",\"\",\"\",\"1-3\",\"6029\",\"37\",\"1\",\"Training\",\"Stims/Figures/102-J-10-4.bmp\",\"sa:saza\",\"Right\",\"37\",\"7\",\"11\",\"8\",\"C2\",\"J\",\"107\"
\"\",\"\",\"approach-retreat\",\"111\",\"974693\",\"0.0-111.0\",\"\",\"\",\"1-3\",\"4727\",\"39\",\"1\",\"Training\",\"Stims/Figures/44-J-10-3.bmp\",\"zasa:ha\",\"Left\",\"39\",\"7\",\"12\",\"8\",\"C2\",\"J\",\"108\"
\"\",\"\",\"approach-retreat\",\"112\",\"981386\",\"0.0-112.0\",\"\",\"\",\"1-3\",\"5180\",\"38\",\"1\",\"Training\",\"Stims/Figures/100-C-30-3.bmp\",\"sa:saha\",\"Up\",\"38\",\"7\",\"13\",\"8\",\"C2\",\"J\",\"109\"
\"\",\"\",\"approach-retreat\",\"113\",\"987481\",\"0.0-113.0\",\"\",\"\",\"1-3\",\"4570\",\"40\",\"0\",\"Training\",\"Stims/Figures/100-J-10-3.bmp\",\"za:saza\",\"Down\",\"38\",\"7\",\"14\",\"8\",\"C2\",\"J\",\"110\"
\"\",\"\",\"approach-retreat\",\"114\",\"999464\",\"0.0-114.0\",\"\",\"\",\"1-3\",\"10466\",\"38\",\"0\",\"Training\",\"Stims/Figures/139-C-20-2.bmp\",\"vasha:sha\",\"Down\",\"40\",\"7\",\"15\",\"8\",\"C1\",\"J\",\"111\"
\"\",\"\",\"approach-retreat\",\"115\",\"1006684\",\"0.0-115.0\",\"\",\"\",\"1-3\",\"5704\",\"40\",\"1\",\"Training\",\"Stims/Figures/102-C-20-4.bmp\",\"zasaha\",\"Down\",\"40\",\"7\",\"16\",\"8\",\"C2\",\"J\",\"112\"
\"\",\"\",\"approach-retreat\",\"116\",\"1012795\",\"0.0-116.0\",\"\",\"\",\"1-3\",\"4588\",\"37\",\"1\",\"Training\",\"Stims/Figures/100-J-10-3.bmp\",\"za:saza\",\"Right\",\"37\",\"8\",\"1\",\"8\",\"C2\",\"J\",\"113\"
\"\",\"\",\"approach-retreat\",\"117\",\"1021159\",\"0.0-117.0\",\"\",\"\",\"1-3\",\"6847\",\"38\",\"1\",\"Training\",\"Stims/Figures/100-C-30-3.bmp\",\"sa:saha\",\"Up\",\"38\",\"8\",\"2\",\"8\",\"C2\",\"J\",\"114\"
\"\",\"\",\"approach-retreat\",\"118\",\"1027959\",\"0.0-118.0\",\"\",\"\",\"1-3\",\"5289\",\"37\",\"1\",\"Training\",\"Stims/Figures/94-C-20-2.bmp\",\"fasha:va\",\"Left\",\"37\",\"8\",\"3\",\"8\",\"C1\",\"J\",\"115\"
\"\",\"\",\"approach-retreat\",\"119\",\"1033956\",\"0.0-119.0\",\"\",\"\",\"1-3\",\"4484\",\"39\",\"1\",\"Training\",\"Stims/Figures/7-J-10-4.bmp\",\"sa:sa:za\",\"Left\",\"39\",\"8\",\"4\",\"8\",\"C2\",\"J\",\"116\"
\"\",\"\",\"approach-retreat\",\"120\",\"1040029\",\"0.0-120.0\",\"\",\"\",\"1-3\",\"4554\",\"40\",\"1\",\"Training\",\"Stims/Figures/139-C-20-2.bmp\",\"vasha:sha\",\"Down\",\"40\",\"8\",\"5\",\"8\",\"C1\",\"J\",\"117\"
\"\",\"\",\"approach-retreat\",\"121\",\"1046882\",\"0.0-121.0\",\"\",\"\",\"1-3\",\"5340\",\"38\",\"1\",\"Training\",\"Stims/Figures/44-C-30-3.bmp\",\"sasa:ha\",\"Up\",\"38\",\"8\",\"6\",\"8\",\"C2\",\"J\",\"118\"
\"\",\"\",\"approach-retreat\",\"122\",\"1054514\",\"0.0-122.0\",\"\",\"\",\"1-3\",\"6116\",\"38\",\"1\",\"Training\",\"Stims/Figures/139-J-0-2.bmp\",\"va:shasha\",\"Down\",\"38\",\"8\",\"7\",\"8\",\"C1\",\"J\",\"119\"
\"\",\"\",\"approach-retreat\",\"123\",\"1062482\",\"0.0-123.0\",\"\",\"\",\"1-3\",\"6449\",\"39\",\"1\",\"Training\",\"Stims/Figures/71-C-30-1.bmp\",\"fashava\",\"Right\",\"39\",\"8\",\"8\",\"8\",\"C1\",\"J\",\"120\"
\"\",\"\",\"approach-retreat\",\"124\",\"1070364\",\"0.0-124.0\",\"\",\"\",\"1-3\",\"6371\",\"40\",\"1\",\"Training\",\"Stims/Figures/102-J-10-4.bmp\",\"sa:saza\",\"Up\",\"40\",\"8\",\"9\",\"8\",\"C2\",\"J\",\"121\"
\"\",\"\",\"approach-retreat\",\"125\",\"1078524\",\"0.0-125.0\",\"\",\"\",\"1-3\",\"6648\",\"38\",\"1\",\"Training\",\"Stims/Figures/102-C-20-4.bmp\",\"zasaha\",\"Up\",\"38\",\"8\",\"10\",\"8\",\"C2\",\"J\",\"122\"
\"\",\"\",\"approach-retreat\",\"126\",\"1086617\",\"0.0-126.0\",\"\",\"\",\"1-3\",\"6573\",\"38\",\"1\",\"Training\",\"Stims/Figures/94-J-0-2.bmp\",\"fashasha\",\"Down\",\"38\",\"8\",\"11\",\"8\",\"C1\",\"J\",\"123\"
\"\",\"\",\"approach-retreat\",\"127\",\"1092582\",\"0.0-127.0\",\"\",\"\",\"1-3\",\"4449\",\"37\",\"1\",\"Training\",\"Stims/Figures/71-J-0-1.bmp\",\"vafa:sha\",\"Right\",\"37\",\"8\",\"12\",\"8\",\"C1\",\"J\",\"124\"
\"\",\"\",\"approach-retreat\",\"128\",\"1098456\",\"0.0-128.0\",\"\",\"\",\"1-3\",\"4359\",\"39\",\"1\",\"Training\",\"Stims/Figures/44-J-10-3.bmp\",\"zasa:ha\",\"Left\",\"39\",\"8\",\"13\",\"8\",\"C2\",\"J\",\"125\"
\"\",\"\",\"approach-retreat\",\"129\",\"1104663\",\"0.0-129.0\",\"\",\"\",\"1-3\",\"4694\",\"40\",\"1\",\"Training\",\"Stims/Figures/57-C-30-1.bmp\",\"vafa:va\",\"Down\",\"40\",\"8\",\"14\",\"8\",\"C1\",\"J\",\"126\"
\"\",\"\",\"approach-retreat\",\"130\",\"1111168\",\"0.0-130.0\",\"\",\"\",\"1-3\",\"4989\",\"39\",\"1\",\"Training\",\"Stims/Figures/57-J-0-1.bmp\",\"fafasha\",\"Left\",\"39\",\"8\",\"15\",\"8\",\"C1\",\"J\",\"127\"
\"\",\"\",\"approach-retreat\",\"131\",\"1117482\",\"0.0-131.0\",\"\",\"\",\"1-3\",\"4798\",\"39\",\"1\",\"Training\",\"Stims/Figures/7-C-20-4.bmp\",\"sa:haha\",\"Right\",\"39\",\"8\",\"16\",\"8\",\"C2\",\"J\",\"128\"
\"\",\"\",\"approach-retreat\",\"132\",\"1123844\",\"0.0-132.0\",\"\",\"\",\"1-3\",\"4846\",\"39\",\"1\",\"Training\",\"Stims/Figures/94-J-0-2.bmp\",\"fashasha\",\"Left\",\"39\",\"9\",\"1\",\"8\",\"C1\",\"J\",\"129\"
\"\",\"\",\"approach-retreat\",\"133\",\"1129834\",\"0.0-133.0\",\"\",\"\",\"1-3\",\"4475\",\"39\",\"1\",\"Training\",\"Stims/Figures/71-C-30-1.bmp\",\"fashava\",\"Right\",\"39\",\"9\",\"2\",\"8\",\"C1\",\"J\",\"130\"
\"\",\"\",\"approach-retreat\",\"134\",\"1136968\",\"0.0-134.0\",\"\",\"\",\"1-3\",\"5618\",\"38\",\"1\",\"Training\",\"Stims/Figures/139-J-0-2.bmp\",\"va:shasha\",\"Down\",\"38\",\"9\",\"3\",\"8\",\"C1\",\"J\",\"131\"
\"\",\"\",\"approach-retreat\",\"135\",\"1143207\",\"0.0-135.0\",\"\",\"\",\"1-3\",\"4723\",\"37\",\"1\",\"Training\",\"Stims/Figures/71-J-0-1.bmp\",\"vafa:sha\",\"Right\",\"37\",\"9\",\"4\",\"8\",\"C1\",\"J\",\"132\"
\"\",\"\",\"approach-retreat\",\"136\",\"1151087\",\"0.0-136.0\",\"\",\"\",\"1-3\",\"6358\",\"40\",\"1\",\"Training\",\"Stims/Figures/7-C-20-4.bmp\",\"sa:haha\",\"Down\",\"40\",\"9\",\"5\",\"8\",\"C2\",\"J\",\"133\"
\"\",\"\",\"approach-retreat\",\"137\",\"1157797\",\"0.0-137.0\",\"\",\"\",\"1-3\",\"5188\",\"39\",\"1\",\"Training\",\"Stims/Figures/102-C-20-4.bmp\",\"zasaha\",\"Right\",\"39\",\"9\",\"6\",\"8\",\"C2\",\"J\",\"134\"
\"\",\"\",\"approach-retreat\",\"138\",\"1163693\",\"0.0-138.0\",\"\",\"\",\"1-3\",\"4382\",\"40\",\"1\",\"Training\",\"Stims/Figures/94-C-20-2.bmp\",\"fasha:va\",\"Down\",\"40\",\"9\",\"7\",\"8\",\"C1\",\"J\",\"135\"
\"\",\"\",\"approach-retreat\",\"139\",\"1169675\",\"0.0-139.0\",\"\",\"\",\"1-3\",\"4467\",\"38\",\"1\",\"Training\",\"Stims/Figures/100-C-30-3.bmp\",\"sa:saha\",\"Up\",\"38\",\"9\",\"8\",\"8\",\"C2\",\"J\",\"136\"
\"\",\"\",\"approach-retreat\",\"140\",\"1178068\",\"0.0-140.0\",\"\",\"\",\"1-3\",\"6877\",\"38\",\"1\",\"Training\",\"Stims/Figures/57-C-30-1.bmp\",\"vafa:va\",\"Up\",\"38\",\"9\",\"9\",\"8\",\"C1\",\"J\",\"137\"
\"\",\"\",\"approach-retreat\",\"141\",\"1184810\",\"0.0-141.0\",\"\",\"\",\"1-3\",\"5227\",\"39\",\"1\",\"Training\",\"Stims/Figures/100-J-10-3.bmp\",\"za:saza\",\"Left\",\"39\",\"9\",\"10\",\"8\",\"C2\",\"J\",\"138\"
\"\",\"\",\"approach-retreat\",\"142\",\"1190755\",\"0.0-142.0\",\"\",\"\",\"1-3\",\"4431\",\"39\",\"1\",\"Training\",\"Stims/Figures/44-C-30-3.bmp\",\"sasa:ha\",\"Right\",\"39\",\"9\",\"11\",\"8\",\"C2\",\"J\",\"139\"
\"\",\"\",\"approach-retreat\",\"143\",\"1196931\",\"0.0-143.0\",\"\",\"\",\"1-3\",\"4659\",\"40\",\"1\",\"Training\",\"Stims/Figures/44-J-10-3.bmp\",\"zasa:ha\",\"Up\",\"40\",\"9\",\"12\",\"8\",\"C2\",\"J\",\"140\"
\"\",\"\",\"approach-retreat\",\"144\",\"1203419\",\"0.0-144.0\",\"\",\"\",\"1-3\",\"4972\",\"40\",\"1\",\"Training\",\"Stims/Figures/7-J-10-4.bmp\",\"sa:sa:za\",\"Up\",\"40\",\"9\",\"13\",\"8\",\"C2\",\"J\",\"141\"
\"\",\"\",\"approach-retreat\",\"145\",\"1209132\",\"0.0-145.0\",\"\",\"\",\"1-3\",\"4197\",\"39\",\"1\",\"Training\",\"Stims/Figures/102-J-10-4.bmp\",\"sa:saza\",\"Left\",\"39\",\"9\",\"14\",\"8\",\"C2\",\"J\",\"142\"
\"\",\"\",\"approach-retreat\",\"146\",\"1215019\",\"0.0-146.0\",\"\",\"\",\"1-3\",\"4371\",\"37\",\"1\",\"Training\",\"Stims/Figures/139-C-20-2.bmp\",\"vasha:sha\",\"Left\",\"37\",\"9\",\"15\",\"8\",\"C1\",\"J\",\"143\"
\"\",\"\",\"approach-retreat\",\"147\",\"1221608\",\"0.0-147.0\",\"\",\"\",\"1-3\",\"5072\",\"38\",\"1\",\"Training\",\"Stims/Figures/57-J-0-1.bmp\",\"fafasha\",\"Down\",\"38\",\"9\",\"16\",\"8\",\"C1\",\"J\",\"144\"
\"17662\",\"\",\"instructions\",\"148\",\"1239271\",\"0.0-148.0\",\"[{\"\"page_index\"\":0,\"\"viewing_time\"\":17659}]\",\"\",\"\",\"\",\"\",\"\",\"\",\"\",\"\",\"\",\"\",\"\",\"\",\"\",\"\",\"\",\"\"
\"\",\"\",\"approach-retreat\",\"149\",\"1245991\",\"0.0-149.0\",\"\",\"\",\"1-3\",\"5192\",\"40\",\"1\",\"Testing\",\"Stims/Figures/139-J-0-2.bmp\",\"va:shasha\",\"Up\",\"40\",\"1\",\"1\",\"8\",\"C1\",\"J\",\"1\"
\"\",\"\",\"approach-retreat\",\"150\",\"1253067\",\"0.0-150.0\",\"\",\"\",\"1-3\",\"5543\",\"38\",\"1\",\"Testing\",\"Stims/Figures/74-C-20-4.bmp\",\"za:haza\",\"Up\",\"38\",\"1\",\"2\",\"8\",\"C2\",\"J\",\"2\"
\"\",\"\",\"approach-retreat\",\"151\",\"1259721\",\"0.0-151.0\",\"\",\"\",\"1-3\",\"5121\",\"39\",\"1\",\"Testing\",\"Stims/Figures/27-C-30-1.bmp\",\"vashava\",\"Right\",\"39\",\"1\",\"3\",\"8\",\"C1\",\"J\",\"3\"
\"\",\"\",\"approach-retreat\",\"152\",\"1267147\",\"0.0-152.0\",\"\",\"\",\"1-3\",\"5899\",\"40\",\"1\",\"Testing\",\"Stims/Figures/94-C-20-2.bmp\",\"fasha:va\",\"Down\",\"40\",\"1\",\"4\",\"8\",\"C1\",\"J\",\"4\"
\"\",\"\",\"approach-retreat\",\"153\",\"1273382\",\"0.0-153.0\",\"\",\"\",\"1-3\",\"4705\",\"40\",\"1\",\"Testing\",\"Stims/Figures/94-J-0-2.bmp\",\"fashasha\",\"Up\",\"40\",\"1\",\"5\",\"8\",\"C1\",\"J\",\"5\"
\"\",\"\",\"approach-retreat\",\"154\",\"1280972\",\"0.0-154.0\",\"\",\"\",\"1-3\",\"6074\",\"37\",\"1\",\"Testing\",\"Stims/Figures/85-J-0-2.bmp\",\"va:fa:sha\",\"Right\",\"37\",\"1\",\"6\",\"8\",\"C1\",\"J\",\"6\"
\"\",\"\",\"approach-retreat\",\"155\",\"1288231\",\"0.0-155.0\",\"\",\"\",\"1-3\",\"5729\",\"37\",\"1\",\"Testing\",\"Stims/Figures/44-C-30-3.bmp\",\"sasa:ha\",\"Left\",\"37\",\"1\",\"7\",\"8\",\"C2\",\"J\",\"7\"
\"\",\"\",\"approach-retreat\",\"156\",\"1295939\",\"0.0-156.0\",\"\",\"\",\"1-3\",\"6185\",\"38\",\"1\",\"Testing\",\"Stims/Figures/57-J-0-1.bmp\",\"fafasha\",\"Down\",\"38\",\"1\",\"8\",\"8\",\"C1\",\"J\",\"8\"
\"\",\"\",\"approach-retreat\",\"157\",\"1306479\",\"0.0-157.0\",\"\",\"\",\"1-3\",\"9020\",\"37\",\"1\",\"Testing\",\"Stims/Figures/57-C-30-1.bmp\",\"vafa:va\",\"Left\",\"37\",\"1\",\"9\",\"8\",\"C1\",\"J\",\"9\"
\"\",\"\",\"approach-retreat\",\"158\",\"1315582\",\"0.0-158.0\",\"\",\"\",\"1-3\",\"7574\",\"38\",\"1\",\"Testing\",\"Stims/Figures/144-J-10-3.bmp\",\"za:ha:ha\",\"Down\",\"38\",\"1\",\"10\",\"8\",\"C2\",\"J\",\"10\"
\"\",\"\",\"approach-retreat\",\"159\",\"1321724\",\"0.0-159.0\",\"\",\"\",\"1-3\",\"4611\",\"40\",\"1\",\"Testing\",\"Stims/Figures/71-C-30-1.bmp\",\"fashava\",\"Down\",\"40\",\"1\",\"11\",\"8\",\"C1\",\"J\",\"11\"
\"\",\"\",\"approach-retreat\",\"160\",\"1328422\",\"0.0-160.0\",\"\",\"\",\"1-3\",\"5168\",\"39\",\"1\",\"Testing\",\"Stims/Figures/74-J-10-4.bmp\",\"za:saha\",\"Left\",\"39\",\"1\",\"12\",\"8\",\"C2\",\"J\",\"12\"
\"\",\"\",\"approach-retreat\",\"161\",\"1334958\",\"0.0-161.0\",\"\",\"\",\"1-3\",\"5006\",\"37\",\"1\",\"Testing\",\"Stims/Figures/139-C-20-2.bmp\",\"vasha:sha\",\"Left\",\"37\",\"1\",\"13\",\"8\",\"C1\",\"J\",\"13\"
\"\",\"\",\"approach-retreat\",\"162\",\"1341600\",\"0.0-162.0\",\"\",\"\",\"1-3\",\"5115\",\"37\",\"1\",\"Testing\",\"Stims/Figures/85-C-20-2.bmp\",\"fafava\",\"Left\",\"37\",\"1\",\"14\",\"8\",\"C1\",\"J\",\"14\"
\"\",\"\",\"approach-retreat\",\"163\",\"1348707\",\"0.0-163.0\",\"\",\"\",\"1-3\",\"5577\",\"38\",\"1\",\"Testing\",\"Stims/Figures/7-J-10-4.bmp\",\"sa:sa:za\",\"Down\",\"38\",\"1\",\"15\",\"8\",\"C2\",\"J\",\"15\"
\"\",\"\",\"approach-retreat\",\"164\",\"1357173\",\"0.0-164.0\",\"\",\"\",\"1-3\",\"6936\",\"37\",\"1\",\"Testing\",\"Stims/Figures/102-J-10-4.bmp\",\"sa:saza\",\"Right\",\"37\",\"1\",\"16\",\"8\",\"C2\",\"J\",\"16\"
\"\",\"\",\"approach-retreat\",\"165\",\"1363791\",\"0.0-165.0\",\"\",\"\",\"1-3\",\"5084\",\"38\",\"1\",\"Testing\",\"Stims/Figures/100-C-30-3.bmp\",\"sa:saha\",\"Up\",\"38\",\"1\",\"17\",\"8\",\"C2\",\"J\",\"17\"
\"\",\"\",\"approach-retreat\",\"166\",\"1371330\",\"0.0-166.0\",\"\",\"\",\"1-3\",\"6012\",\"37\",\"0\",\"Testing\",\"Stims/Figures/102-C-20-4.bmp\",\"zasaha\",\"Right\",\"39\",\"1\",\"18\",\"8\",\"C2\",\"J\",\"18\"
\"\",\"\",\"approach-retreat\",\"167\",\"1378197\",\"0.0-167.0\",\"\",\"\",\"1-3\",\"5337\",\"40\",\"1\",\"Testing\",\"Stims/Figures/27-J-0-1.bmp\",\"fasha:sha\",\"Up\",\"40\",\"1\",\"19\",\"8\",\"C1\",\"J\",\"19\"
\"\",\"\",\"approach-retreat\",\"168\",\"1385438\",\"0.0-168.0\",\"\",\"\",\"1-3\",\"5711\",\"37\",\"1\",\"Testing\",\"Stims/Figures/100-J-10-3.bmp\",\"za:saza\",\"Right\",\"37\",\"1\",\"20\",\"8\",\"C2\",\"J\",\"20\"
\"\",\"\",\"approach-retreat\",\"169\",\"1391491\",\"0.0-169.0\",\"\",\"\",\"1-3\",\"4524\",\"39\",\"1\",\"Testing\",\"Stims/Figures/144-C-30-3.bmp\",\"zaha:za\",\"Right\",\"39\",\"1\",\"21\",\"8\",\"C2\",\"J\",\"21\"
\"\",\"\",\"approach-retreat\",\"170\",\"1397893\",\"0.0-170.0\",\"\",\"\",\"1-3\",\"4873\",\"38\",\"1\",\"Testing\",\"Stims/Figures/7-C-20-4.bmp\",\"sa:haha\",\"Up\",\"38\",\"1\",\"22\",\"8\",\"C2\",\"J\",\"22\"
\"\",\"\",\"approach-retreat\",\"171\",\"1404191\",\"0.0-171.0\",\"\",\"\",\"1-3\",\"4770\",\"39\",\"1\",\"Testing\",\"Stims/Figures/71-J-0-1.bmp\",\"vafa:sha\",\"Left\",\"39\",\"1\",\"23\",\"8\",\"C1\",\"J\",\"23\"
\"\",\"\",\"approach-retreat\",\"172\",\"1411479\",\"0.0-172.0\",\"\",\"\",\"1-3\",\"5778\",\"38\",\"1\",\"Testing\",\"Stims/Figures/44-J-10-3.bmp\",\"zasa:ha\",\"Down\",\"38\",\"1\",\"24\",\"8\",\"C2\",\"J\",\"24\"
\"\",\"\",\"approach-retreat\",\"173\",\"1417803\",\"0.0-173.0\",\"\",\"\",\"1-3\",\"4792\",\"37\",\"1\",\"Testing\",\"Stims/Figures/144-C-30-3.bmp\",\"zaha:za\",\"Left\",\"37\",\"2\",\"1\",\"8\",\"C2\",\"J\",\"25\"
\"\",\"\",\"approach-retreat\",\"174\",\"1424919\",\"0.0-174.0\",\"\",\"\",\"1-3\",\"5586\",\"39\",\"1\",\"Testing\",\"Stims/Figures/44-C-30-3.bmp\",\"sasa:ha\",\"Right\",\"39\",\"2\",\"2\",\"8\",\"C2\",\"J\",\"26\"
\"\",\"\",\"approach-retreat\",\"175\",\"1432771\",\"0.0-175.0\",\"\",\"\",\"1-3\",\"6322\",\"40\",\"1\",\"Testing\",\"Stims/Figures/27-C-30-1.bmp\",\"vashava\",\"Down\",\"40\",\"2\",\"3\",\"8\",\"C1\",\"J\",\"27\"
\"\",\"\",\"approach-retreat\",\"176\",\"1440200\",\"0.0-176.0\",\"\",\"\",\"1-3\",\"5898\",\"38\",\"1\",\"Testing\",\"Stims/Figures/74-C-20-4.bmp\",\"za:haza\",\"Up\",\"38\",\"2\",\"4\",\"8\",\"C2\",\"J\",\"28\"
\"\",\"\",\"approach-retreat\",\"177\",\"1446481\",\"0.0-177.0\",\"\",\"\",\"1-3\",\"4772\",\"40\",\"1\",\"Testing\",\"Stims/Figures/139-J-0-2.bmp\",\"va:shasha\",\"Up\",\"40\",\"2\",\"5\",\"8\",\"C1\",\"J\",\"29\"
\"\",\"\",\"approach-retreat\",\"178\",\"1453825\",\"0.0-178.0\",\"\",\"\",\"1-3\",\"5812\",\"39\",\"1\",\"Testing\",\"Stims/Figures/85-C-20-2.bmp\",\"fafava\",\"Right\",\"39\",\"2\",\"6\",\"8\",\"C1\",\"J\",\"30\"
\"\",\"\",\"approach-retreat\",\"179\",\"1459839\",\"0.0-179.0\",\"\",\"\",\"1-3\",\"4482\",\"40\",\"1\",\"Testing\",\"Stims/Figures/74-J-10-4.bmp\",\"za:saha\",\"Up\",\"40\",\"2\",\"7\",\"8\",\"C2\",\"J\",\"31\"
\"\",\"\",\"approach-retreat\",\"180\",\"1466134\",\"0.0-180.0\",\"\",\"\",\"1-3\",\"4764\",\"40\",\"1\",\"Testing\",\"Stims/Figures/102-J-10-4.bmp\",\"sa:saza\",\"Up\",\"40\",\"2\",\"8\",\"8\",\"C2\",\"J\",\"32\"
\"\",\"\",\"approach-retreat\",\"181\",\"1472362\",\"0.0-181.0\",\"\",\"\",\"1-3\",\"4697\",\"39\",\"1\",\"Testing\",\"Stims/Figures/100-C-30-3.bmp\",\"sa:saha\",\"Right\",\"39\",\"2\",\"9\",\"8\",\"C2\",\"J\",\"33\"
\"\",\"\",\"approach-retreat\",\"182\",\"1478305\",\"0.0-182.0\",\"\",\"\",\"1-3\",\"4412\",\"37\",\"1\",\"Testing\",\"Stims/Figures/100-J-10-3.bmp\",\"za:saza\",\"Right\",\"37\",\"2\",\"10\",\"8\",\"C2\",\"J\",\"34\"
\"\",\"\",\"approach-retreat\",\"183\",\"1484312\",\"0.0-183.0\",\"\",\"\",\"1-3\",\"4479\",\"37\",\"1\",\"Testing\",\"Stims/Figures/144-J-10-3.bmp\",\"za:ha:ha\",\"Right\",\"37\",\"2\",\"11\",\"8\",\"C2\",\"J\",\"35\"
\"\",\"\",\"approach-retreat\",\"184\",\"1490385\",\"0.0-184.0\",\"\",\"\",\"1-3\",\"4544\",\"37\",\"1\",\"Testing\",\"Stims/Figures/71-J-0-1.bmp\",\"vafa:sha\",\"Right\",\"37\",\"2\",\"12\",\"8\",\"C1\",\"J\",\"36\"
\"\",\"\",\"approach-retreat\",\"185\",\"1497088\",\"0.0-185.0\",\"\",\"\",\"1-3\",\"5174\",\"40\",\"1\",\"Testing\",\"Stims/Figures/94-C-20-2.bmp\",\"fasha:va\",\"Down\",\"40\",\"2\",\"13\",\"8\",\"C1\",\"J\",\"37\"
\"\",\"\",\"approach-retreat\",\"186\",\"1503578\",\"0.0-186.0\",\"\",\"\",\"1-3\",\"4962\",\"38\",\"1\",\"Testing\",\"Stims/Figures/7-J-10-4.bmp\",\"sa:sa:za\",\"Down\",\"38\",\"2\",\"14\",\"8\",\"C2\",\"J\",\"38\"
\"\",\"\",\"approach-retreat\",\"187\",\"1510041\",\"0.0-187.0\",\"\",\"\",\"1-3\",\"4932\",\"39\",\"1\",\"Testing\",\"Stims/Figures/27-J-0-1.bmp\",\"fasha:sha\",\"Left\",\"39\",\"2\",\"15\",\"8\",\"C1\",\"J\",\"39\"
\"\",\"\",\"approach-retreat\",\"188\",\"1516158\",\"0.0-188.0\",\"\",\"\",\"1-3\",\"4590\",\"40\",\"1\",\"Testing\",\"Stims/Figures/139-C-20-2.bmp\",\"vasha:sha\",\"Down\",\"40\",\"2\",\"16\",\"8\",\"C1\",\"J\",\"40\"
\"\",\"\",\"approach-retreat\",\"189\",\"1527445\",\"0.0-189.0\",\"\",\"\",\"1-3\",\"9762\",\"38\",\"1\",\"Testing\",\"Stims/Figures/71-C-30-1.bmp\",\"fashava\",\"Up\",\"38\",\"2\",\"17\",\"8\",\"C1\",\"J\",\"41\"
\"\",\"\",\"approach-retreat\",\"190\",\"1534185\",\"0.0-190.0\",\"\",\"\",\"1-3\",\"5210\",\"39\",\"1\",\"Testing\",\"Stims/Figures/85-J-0-2.bmp\",\"va:fa:sha\",\"Left\",\"39\",\"2\",\"18\",\"8\",\"C1\",\"J\",\"42\"
\"\",\"\",\"approach-retreat\",\"191\",\"1541511\",\"0.0-191.0\",\"\",\"\",\"1-3\",\"5796\",\"40\",\"1\",\"Testing\",\"Stims/Figures/7-C-20-4.bmp\",\"sa:haha\",\"Down\",\"40\",\"2\",\"19\",\"8\",\"C2\",\"J\",\"43\"
\"\",\"\",\"approach-retreat\",\"192\",\"1550544\",\"0.0-192.0\",\"\",\"\",\"1-3\",\"7507\",\"37\",\"1\",\"Testing\",\"Stims/Figures/102-C-20-4.bmp\",\"zasaha\",\"Left\",\"37\",\"2\",\"20\",\"8\",\"C2\",\"J\",\"44\"
\"\",\"\",\"approach-retreat\",\"193\",\"1556926\",\"0.0-193.0\",\"\",\"\",\"1-3\",\"4851\",\"40\",\"1\",\"Testing\",\"Stims/Figures/44-J-10-3.bmp\",\"zasa:ha\",\"Up\",\"40\",\"2\",\"21\",\"8\",\"C2\",\"J\",\"45\"
\"\",\"\",\"approach-retreat\",\"194\",\"1563080\",\"0.0-194.0\",\"\",\"\",\"1-3\",\"4641\",\"38\",\"1\",\"Testing\",\"Stims/Figures/94-J-0-2.bmp\",\"fashasha\",\"Down\",\"38\",\"2\",\"22\",\"8\",\"C1\",\"J\",\"46\"
\"\",\"\",\"approach-retreat\",\"195\",\"1569240\",\"0.0-195.0\",\"\",\"\",\"1-3\",\"4630\",\"39\",\"1\",\"Testing\",\"Stims/Figures/57-J-0-1.bmp\",\"fafasha\",\"Left\",\"39\",\"2\",\"23\",\"8\",\"C1\",\"J\",\"47\"
\"\",\"\",\"approach-retreat\",\"196\",\"1575631\",\"0.0-196.0\",\"\",\"\",\"1-3\",\"4873\",\"37\",\"1\",\"Testing\",\"Stims/Figures/57-C-30-1.bmp\",\"vafa:va\",\"Left\",\"37\",\"2\",\"24\",\"8\",\"C1\",\"J\",\"48\"
\"\",\"\",\"approach-retreat\",\"197\",\"1583618\",\"0.0-197.0\",\"\",\"\",\"1-3\",\"6455\",\"40\",\"1\",\"Testing\",\"Stims/Figures/94-C-20-2.bmp\",\"fasha:va\",\"Down\",\"40\",\"3\",\"1\",\"8\",\"C1\",\"J\",\"49\"
\"\",\"\",\"approach-retreat\",\"198\",\"1595438\",\"0.0-198.0\",\"\",\"\",\"1-3\",\"10293\",\"38\",\"1\",\"Testing\",\"Stims/Figures/44-C-30-3.bmp\",\"sasa:ha\",\"Up\",\"38\",\"3\",\"2\",\"8\",\"C2\",\"J\",\"50\"
\"\",\"\",\"approach-retreat\",\"199\",\"1603003\",\"0.0-199.0\",\"\",\"\",\"1-3\",\"6038\",\"40\",\"1\",\"Testing\",\"Stims/Figures/74-C-20-4.bmp\",\"za:haza\",\"Down\",\"40\",\"3\",\"3\",\"8\",\"C2\",\"J\",\"51\"
\"\",\"\",\"approach-retreat\",\"200\",\"1609199\",\"0.0-200.0\",\"\",\"\",\"1-3\",\"4664\",\"37\",\"1\",\"Testing\",\"Stims/Figures/139-C-20-2.bmp\",\"vasha:sha\",\"Left\",\"37\",\"3\",\"4\",\"8\",\"C1\",\"J\",\"52\"
\"\",\"\",\"approach-retreat\",\"201\",\"1615341\",\"0.0-201.0\",\"\",\"\",\"1-3\",\"4612\",\"37\",\"1\",\"Testing\",\"Stims/Figures/7-C-20-4.bmp\",\"sa:haha\",\"Left\",\"37\",\"3\",\"5\",\"8\",\"C2\",\"J\",\"53\"
\"\",\"\",\"approach-retreat\",\"202\",\"1621633\",\"0.0-202.0\",\"\",\"\",\"1-3\",\"4762\",\"39\",\"1\",\"Testing\",\"Stims/Figures/144-C-30-3.bmp\",\"zaha:za\",\"Right\",\"39\",\"3\",\"6\",\"8\",\"C2\",\"J\",\"54\"
\"\",\"\",\"approach-retreat\",\"203\",\"1627909\",\"0.0-203.0\",\"\",\"\",\"1-3\",\"4745\",\"38\",\"1\",\"Testing\",\"Stims/Figures/144-J-10-3.bmp\",\"za:ha:ha\",\"Down\",\"38\",\"3\",\"7\",\"8\",\"C2\",\"J\",\"55\"
\"\",\"\",\"approach-retreat\",\"204\",\"1634485\",\"0.0-204.0\",\"\",\"\",\"1-3\",\"5046\",\"38\",\"1\",\"Testing\",\"Stims/Figures/100-C-30-3.bmp\",\"sa:saha\",\"Up\",\"38\",\"3\",\"8\",\"8\",\"C2\",\"J\",\"56\"
\"\",\"\",\"approach-retreat\",\"205\",\"1640490\",\"0.0-205.0\",\"\",\"\",\"1-3\",\"4477\",\"37\",\"1\",\"Testing\",\"Stims/Figures/100-J-10-3.bmp\",\"za:saza\",\"Right\",\"37\",\"3\",\"9\",\"8\",\"C2\",\"J\",\"57\"
\"\",\"\",\"approach-retreat\",\"206\",\"1646501\",\"0.0-206.0\",\"\",\"\",\"1-3\",\"4479\",\"37\",\"1\",\"Testing\",\"Stims/Figures/7-J-10-4.bmp\",\"sa:sa:za\",\"Right\",\"37\",\"3\",\"10\",\"8\",\"C2\",\"J\",\"58\"
\"\",\"\",\"approach-retreat\",\"207\",\"1652499\",\"0.0-207.0\",\"\",\"\",\"1-3\",\"4469\",\"39\",\"1\",\"Testing\",\"Stims/Figures/57-J-0-1.bmp\",\"fafasha\",\"Left\",\"39\",\"3\",\"11\",\"8\",\"C1\",\"J\",\"59\"
\"\",\"\",\"approach-retreat\",\"208\",\"1658496\",\"0.0-208.0\",\"\",\"\",\"1-3\",\"4468\",\"40\",\"1\",\"Testing\",\"Stims/Figures/74-J-10-4.bmp\",\"za:saha\",\"Up\",\"40\",\"3\",\"12\",\"8\",\"C2\",\"J\",\"60\"
\"\",\"\",\"approach-retreat\",\"209\",\"1664327\",\"0.0-209.0\",\"\",\"\",\"1-3\",\"4301\",\"39\",\"1\",\"Testing\",\"Stims/Figures/102-J-10-4.bmp\",\"sa:saza\",\"Left\",\"39\",\"3\",\"13\",\"8\",\"C2\",\"J\",\"61\"
\"\",\"\",\"approach-retreat\",\"210\",\"1672392\",\"0.0-210.0\",\"\",\"\",\"1-3\",\"6536\",\"38\",\"1\",\"Testing\",\"Stims/Figures/139-J-0-2.bmp\",\"va:shasha\",\"Down\",\"38\",\"3\",\"14\",\"8\",\"C1\",\"J\",\"62\"
\"\",\"\",\"approach-retreat\",\"211\",\"1678320\",\"0.0-211.0\",\"\",\"\",\"1-3\",\"4396\",\"40\",\"1\",\"Testing\",\"Stims/Figures/27-C-30-1.bmp\",\"vashava\",\"Down\",\"40\",\"3\",\"15\",\"8\",\"C1\",\"J\",\"63\"
\"\",\"\",\"approach-retreat\",\"212\",\"1685504\",\"0.0-212.0\",\"\",\"\",\"1-3\",\"5650\",\"39\",\"1\",\"Testing\",\"Stims/Figures/85-C-20-2.bmp\",\"fafava\",\"Right\",\"39\",\"3\",\"16\",\"8\",\"C1\",\"J\",\"64\"
\"\",\"\",\"approach-retreat\",\"213\",\"1691420\",\"0.0-213.0\",\"\",\"\",\"1-3\",\"4387\",\"37\",\"1\",\"Testing\",\"Stims/Figures/44-J-10-3.bmp\",\"zasa:ha\",\"Right\",\"37\",\"3\",\"17\",\"8\",\"C2\",\"J\",\"65\"
\"\",\"\",\"approach-retreat\",\"214\",\"1697282\",\"0.0-214.0\",\"\",\"\",\"1-3\",\"4334\",\"39\",\"1\",\"Testing\",\"Stims/Figures/27-J-0-1.bmp\",\"fasha:sha\",\"Left\",\"39\",\"3\",\"18\",\"8\",\"C1\",\"J\",\"66\"
\"\",\"\",\"approach-retreat\",\"215\",\"1703355\",\"0.0-215.0\",\"\",\"\",\"1-3\",\"4542\",\"40\",\"1\",\"Testing\",\"Stims/Figures/94-J-0-2.bmp\",\"fashasha\",\"Up\",\"40\",\"3\",\"19\",\"8\",\"C1\",\"J\",\"67\"
\"\",\"\",\"approach-retreat\",\"216\",\"1709240\",\"0.0-216.0\",\"\",\"\",\"1-3\",\"4356\",\"37\",\"1\",\"Testing\",\"Stims/Figures/85-J-0-2.bmp\",\"va:fa:sha\",\"Right\",\"37\",\"3\",\"20\",\"8\",\"C1\",\"J\",\"68\"
\"\",\"\",\"approach-retreat\",\"217\",\"1715192\",\"0.0-217.0\",\"\",\"\",\"1-3\",\"4426\",\"40\",\"1\",\"Testing\",\"Stims/Figures/71-J-0-1.bmp\",\"vafa:sha\",\"Up\",\"40\",\"3\",\"21\",\"8\",\"C1\",\"J\",\"69\"
\"\",\"\",\"approach-retreat\",\"218\",\"1722426\",\"0.0-218.0\",\"\",\"\",\"1-3\",\"5707\",\"40\",\"1\",\"Testing\",\"Stims/Figures/57-C-30-1.bmp\",\"vafa:va\",\"Down\",\"40\",\"3\",\"22\",\"8\",\"C1\",\"J\",\"70\"
\"\",\"\",\"approach-retreat\",\"219\",\"1729959\",\"0.0-219.0\",\"\",\"\",\"1-3\",\"6003\",\"38\",\"1\",\"Testing\",\"Stims/Figures/71-C-30-1.bmp\",\"fashava\",\"Up\",\"38\",\"3\",\"23\",\"8\",\"C1\",\"J\",\"71\"
\"\",\"\",\"approach-retreat\",\"220\",\"1736114\",\"0.0-220.0\",\"\",\"\",\"1-3\",\"4626\",\"37\",\"1\",\"Testing\",\"Stims/Figures/102-C-20-4.bmp\",\"zasaha\",\"Left\",\"37\",\"3\",\"24\",\"8\",\"C2\",\"J\",\"72\"
\"\",\"\",\"approach-retreat\",\"221\",\"1741919\",\"0.0-221.0\",\"\",\"\",\"1-3\",\"4278\",\"40\",\"1\",\"Testing\",\"Stims/Figures/139-J-0-2.bmp\",\"va:shasha\",\"Up\",\"40\",\"4\",\"1\",\"8\",\"C1\",\"J\",\"73\"
\"\",\"\",\"approach-retreat\",\"222\",\"1747872\",\"0.0-222.0\",\"\",\"\",\"1-3\",\"4426\",\"40\",\"1\",\"Testing\",\"Stims/Figures/100-C-30-3.bmp\",\"sa:saha\",\"Down\",\"40\",\"4\",\"2\",\"8\",\"C2\",\"J\",\"74\"
\"\",\"\",\"approach-retreat\",\"223\",\"1753883\",\"0.0-223.0\",\"\",\"\",\"1-3\",\"4498\",\"37\",\"1\",\"Testing\",\"Stims/Figures/7-J-10-4.bmp\",\"sa:sa:za\",\"Right\",\"37\",\"4\",\"3\",\"8\",\"C2\",\"J\",\"75\"
\"\",\"\",\"approach-retreat\",\"224\",\"1760045\",\"0.0-224.0\",\"\",\"\",\"1-3\",\"4633\",\"38\",\"1\",\"Testing\",\"Stims/Figures/44-J-10-3.bmp\",\"zasa:ha\",\"Down\",\"38\",\"4\",\"4\",\"8\",\"C2\",\"J\",\"76\"
\"\",\"\",\"approach-retreat\",\"225\",\"1765807\",\"0.0-225.0\",\"\",\"\",\"1-3\",\"4231\",\"37\",\"1\",\"Testing\",\"Stims/Figures/85-C-20-2.bmp\",\"fafava\",\"Left\",\"37\",\"4\",\"5\",\"8\",\"C1\",\"J\",\"77\"
\"\",\"\",\"approach-retreat\",\"226\",\"1771730\",\"0.0-226.0\",\"\",\"\",\"1-3\",\"4392\",\"38\",\"1\",\"Testing\",\"Stims/Figures/85-J-0-2.bmp\",\"va:fa:sha\",\"Down\",\"38\",\"4\",\"6\",\"8\",\"C1\",\"J\",\"78\"
\"\",\"\",\"approach-retreat\",\"227\",\"1777694\",\"0.0-227.0\",\"\",\"\",\"1-3\",\"4433\",\"40\",\"1\",\"Testing\",\"Stims/Figures/27-C-30-1.bmp\",\"vashava\",\"Down\",\"40\",\"4\",\"7\",\"8\",\"C1\",\"J\",\"79\"
\"\",\"\",\"approach-retreat\",\"228\",\"1783427\",\"0.0-228.0\",\"\",\"\",\"1-3\",\"4205\",\"39\",\"1\",\"Testing\",\"Stims/Figures/57-J-0-1.bmp\",\"fafasha\",\"Left\",\"39\",\"4\",\"8\",\"8\",\"C1\",\"J\",\"80\"
\"\",\"\",\"approach-retreat\",\"229\",\"1789912\",\"0.0-229.0\",\"\",\"\",\"1-3\",\"4955\",\"40\",\"1\",\"Testing\",\"Stims/Figures/71-J-0-1.bmp\",\"vafa:sha\",\"Up\",\"40\",\"4\",\"9\",\"8\",\"C1\",\"J\",\"81\"
\"\",\"\",\"approach-retreat\",\"230\",\"1796042\",\"0.0-230.0\",\"\",\"\",\"1-3\",\"4597\",\"37\",\"1\",\"Testing\",\"Stims/Figures/144-C-30-3.bmp\",\"zaha:za\",\"Left\",\"37\",\"4\",\"10\",\"8\",\"C2\",\"J\",\"82\"
\"\",\"\",\"approach-retreat\",\"231\",\"1802063\",\"0.0-231.0\",\"\",\"\",\"1-3\",\"4490\",\"40\",\"1\",\"Testing\",\"Stims/Figures/44-C-30-3.bmp\",\"sasa:ha\",\"Down\",\"40\",\"4\",\"11\",\"8\",\"C2\",\"J\",\"83\"
\"\",\"\",\"approach-retreat\",\"232\",\"1809778\",\"0.0-232.0\",\"\",\"\",\"1-3\",\"6207\",\"38\",\"1\",\"Testing\",\"Stims/Figures/139-C-20-2.bmp\",\"vasha:sha\",\"Up\",\"38\",\"4\",\"12\",\"8\",\"C1\",\"J\",\"84\"
\"\",\"\",\"approach-retreat\",\"233\",\"1816877\",\"0.0-233.0\",\"\",\"\",\"1-3\",\"5571\",\"38\",\"1\",\"Testing\",\"Stims/Figures/102-J-10-4.bmp\",\"sa:saza\",\"Down\",\"38\",\"4\",\"13\",\"8\",\"C2\",\"J\",\"85\"
\"\",\"\",\"approach-retreat\",\"234\",\"1822988\",\"0.0-234.0\",\"\",\"\",\"1-3\",\"4582\",\"38\",\"1\",\"Testing\",\"Stims/Figures/7-C-20-4.bmp\",\"sa:haha\",\"Up\",\"38\",\"4\",\"14\",\"8\",\"C2\",\"J\",\"86\"
\"\",\"\",\"approach-retreat\",\"235\",\"1829714\",\"0.0-235.0\",\"\",\"\",\"1-3\",\"5198\",\"39\",\"1\",\"Testing\",\"Stims/Figures/57-C-30-1.bmp\",\"vafa:va\",\"Right\",\"39\",\"4\",\"15\",\"8\",\"C1\",\"J\",\"87\"
\"\",\"\",\"approach-retreat\",\"236\",\"1835692\",\"0.0-236.0\",\"\",\"\",\"1-3\",\"4448\",\"39\",\"1\",\"Testing\",\"Stims/Figures/102-C-20-4.bmp\",\"zasaha\",\"Right\",\"39\",\"4\",\"16\",\"8\",\"C2\",\"J\",\"88\"
\"\",\"\",\"approach-retreat\",\"237\",\"1841434\",\"0.0-237.0\",\"\",\"\",\"1-3\",\"4210\",\"37\",\"1\",\"Testing\",\"Stims/Figures/100-J-10-3.bmp\",\"za:saza\",\"Right\",\"37\",\"4\",\"17\",\"8\",\"C2\",\"J\",\"89\"
\"\",\"\",\"approach-retreat\",\"238\",\"1848760\",\"0.0-238.0\",\"\",\"\",\"1-3\",\"5798\",\"37\",\"1\",\"Testing\",\"Stims/Figures/94-C-20-2.bmp\",\"fasha:va\",\"Left\",\"37\",\"4\",\"18\",\"8\",\"C1\",\"J\",\"90\"
\"\",\"\",\"approach-retreat\",\"239\",\"1854615\",\"0.0-239.0\",\"\",\"\",\"1-3\",\"4343\",\"38\",\"1\",\"Testing\",\"Stims/Figures/71-C-30-1.bmp\",\"fashava\",\"Up\",\"38\",\"4\",\"19\",\"8\",\"C1\",\"J\",\"91\"
\"\",\"\",\"approach-retreat\",\"240\",\"1860521\",\"0.0-240.0\",\"\",\"\",\"1-3\",\"4376\",\"39\",\"1\",\"Testing\",\"Stims/Figures/27-J-0-1.bmp\",\"fasha:sha\",\"Left\",\"39\",\"4\",\"20\",\"8\",\"C1\",\"J\",\"92\"
\"\",\"\",\"approach-retreat\",\"241\",\"1866443\",\"0.0-241.0\",\"\",\"\",\"1-3\",\"4393\",\"39\",\"1\",\"Testing\",\"Stims/Figures/74-C-20-4.bmp\",\"za:haza\",\"Right\",\"39\",\"4\",\"21\",\"8\",\"C2\",\"J\",\"93\"
\"\",\"\",\"approach-retreat\",\"242\",\"1872385\",\"0.0-242.0\",\"\",\"\",\"1-3\",\"4412\",\"40\",\"1\",\"Testing\",\"Stims/Figures/74-J-10-4.bmp\",\"za:saha\",\"Up\",\"40\",\"4\",\"22\",\"8\",\"C2\",\"J\",\"94\"
\"\",\"\",\"approach-retreat\",\"243\",\"1878449\",\"0.0-243.0\",\"\",\"\",\"1-3\",\"4535\",\"37\",\"1\",\"Testing\",\"Stims/Figures/144-J-10-3.bmp\",\"za:ha:ha\",\"Right\",\"37\",\"4\",\"23\",\"8\",\"C2\",\"J\",\"95\"
\"\",\"\",\"approach-retreat\",\"244\",\"1884143\",\"0.0-244.0\",\"\",\"\",\"1-3\",\"4164\",\"39\",\"1\",\"Testing\",\"Stims/Figures/94-J-0-2.bmp\",\"fashasha\",\"Left\",\"39\",\"4\",\"24\",\"8\",\"C1\",\"J\",\"96\"
\"58039\",\"\",\"survey-text\",\"245\",\"1942203\",\"0.0-245.0\",\"\",\"{\"\"Q0\"\":\"\"1277 2017\"\"}\",\"\",\"\",\"\",\"\",\"\",\"\",\"\",\"\",\"\",\"\",\"\",\"\",\"\",\"\",\"\"
