\"rt\",\"key_press\",\"trial_type\",\"trial_index\",\"time_elapsed\",\"internal_node_id\",\"view_history\",\"responses\",\"Id\",\"Rt\",\"ResKeyCode\",\"ResCorr\",\"TrialType2\",\"Image\",\"Label\",\"Location\",\"CorrectResponse\",\"Block\",\"BlockTrial\",\"Condition\",\"LabelType\",\"Subcondition\",\"trialNum\"
\"51530\",\"32\",\"text\",\"0\",\"51533\",\"0.0-0.0-0.0\",\"\",\"\",\"\",\"\",\"\",\"\",\"\",\"\",\"\",\"\",\"\",\"\",\"\",\"\",\"\",\"\",\"\"
\"62932\",\"\",\"instructions\",\"1\",\"114466\",\"0.0-1.0\",\"[{\"\"page_index\"\":0,\"\"viewing_time\"\":62931}]\",\"\",\"\",\"\",\"\",\"\",\"\",\"\",\"\",\"\",\"\",\"\",\"\",\"\",\"\",\"\",\"\"
\"19096\",\"\",\"survey-multi-choice\",\"2\",\"133588\",\"0.0-2.0\",\"\",\"{\"\"Q0\"\":\"\"Da\"\",\"\"Q1\"\":\"\"Da\"\",\"\"Q2\"\":\"\"Da\"\",\"\"Q3\"\":\"\"Da\"\",\"\"Q4\"\":\"\"Da\"\",\"\"Q5\"\":\"\"Da\"\"}\",\"\",\"\",\"\",\"\",\"\",\"\",\"\",\"\",\"\",\"\",\"\",\"\",\"\",\"\",\"\"
\"\",\"\",\"bio\",\"3\",\"141287\",\"0.0-3.0\",\"\",\"{\"\"age\"\":\"\"22\"\",\"\"gender\"\":\"\"f\"\",\"\"specify\"\":\"\"\"\"}\",\"\",\"\",\"\",\"\",\"\",\"\",\"\",\"\",\"\",\"\",\"\",\"\",\"\",\"\",\"\"
\"\",\"\",\"approach-retreat\",\"4\",\"149097\",\"0.0-4.0\",\"\",\"\",\"3-3\",\"6306\",\"37\",\"0\",\"Training\",\"Stims/Figures/27-C-30-1.bmp\",\"vasha:va\",\"Left\",\"39\",\"1\",\"1\",\"8\",\"C1\",\"C\",\"1\"
\"\",\"\",\"approach-retreat\",\"5\",\"154675\",\"0.0-5.0\",\"\",\"\",\"3-3\",\"4070\",\"37\",\"1\",\"Training\",\"Stims/Figures/86-J-0-1.bmp\",\"vashasha\",\"Left\",\"37\",\"1\",\"2\",\"8\",\"C1\",\"C\",\"2\"
\"\",\"\",\"approach-retreat\",\"6\",\"163436\",\"0.0-6.0\",\"\",\"\",\"3-3\",\"7257\",\"39\",\"1\",\"Training\",\"Stims/Figures/111-J-10-3.bmp\",\"saha:ha\",\"Right\",\"39\",\"1\",\"3\",\"8\",\"C2\",\"C\",\"3\"
\"\",\"\",\"approach-retreat\",\"7\",\"169391\",\"0.0-7.0\",\"\",\"\",\"3-3\",\"4448\",\"38\",\"0\",\"Training\",\"Stims/Figures/94-C-20-2.bmp\",\"fa:shasha\",\"Up\",\"40\",\"1\",\"4\",\"8\",\"C1\",\"C\",\"4\"
\"\",\"\",\"approach-retreat\",\"8\",\"178596\",\"0.0-8.0\",\"\",\"\",\"3-3\",\"7699\",\"39\",\"0\",\"Training\",\"Stims/Figures/111-C-30-3.bmp\",\"za:haza\",\"Right\",\"37\",\"1\",\"5\",\"8\",\"C2\",\"C\",\"5\"
\"\",\"\",\"approach-retreat\",\"9\",\"187079\",\"0.0-9.0\",\"\",\"\",\"3-3\",\"6979\",\"40\",\"1\",\"Training\",\"Stims/Figures/44-C-30-3.bmp\",\"za:ha:ha\",\"Up\",\"40\",\"1\",\"6\",\"8\",\"C2\",\"C\",\"6\"
\"\",\"\",\"approach-retreat\",\"10\",\"193739\",\"0.0-10.0\",\"\",\"\",\"3-3\",\"5155\",\"37\",\"1\",\"Training\",\"Stims/Figures/86-C-30-1.bmp\",\"vafasha\",\"Right\",\"37\",\"1\",\"7\",\"8\",\"C1\",\"C\",\"7\"
\"\",\"\",\"approach-retreat\",\"11\",\"200161\",\"0.0-11.0\",\"\",\"\",\"3-3\",\"4917\",\"37\",\"1\",\"Training\",\"Stims/Figures/27-J-0-1.bmp\",\"va:fa:va\",\"Left\",\"37\",\"1\",\"8\",\"8\",\"C1\",\"C\",\"8\"
\"\",\"\",\"approach-retreat\",\"12\",\"210227\",\"0.0-12.0\",\"\",\"\",\"3-3\",\"8560\",\"38\",\"1\",\"Training\",\"Stims/Figures/7-J-10-4.bmp\",\"sa:ha:ha\",\"Up\",\"38\",\"1\",\"9\",\"8\",\"C2\",\"C\",\"9\"
\"\",\"\",\"approach-retreat\",\"13\",\"218145\",\"0.0-13.0\",\"\",\"\",\"3-3\",\"6412\",\"37\",\"0\",\"Training\",\"Stims/Figures/44-J-10-3.bmp\",\"za:saza\",\"Right\",\"39\",\"1\",\"10\",\"8\",\"C2\",\"C\",\"10\"
\"\",\"\",\"approach-retreat\",\"14\",\"224112\",\"0.0-14.0\",\"\",\"\",\"3-3\",\"4463\",\"38\",\"1\",\"Training\",\"Stims/Figures/7-C-20-4.bmp\",\"zaha:za\",\"Down\",\"38\",\"1\",\"11\",\"8\",\"C2\",\"C\",\"11\"
\"\",\"\",\"approach-retreat\",\"15\",\"230434\",\"0.0-15.0\",\"\",\"\",\"3-3\",\"4819\",\"40\",\"1\",\"Training\",\"Stims/Figures/84-J-0-2.bmp\",\"va:fa:sha\",\"Down\",\"40\",\"1\",\"12\",\"8\",\"C1\",\"C\",\"12\"
\"\",\"\",\"approach-retreat\",\"16\",\"236751\",\"0.0-16.0\",\"\",\"\",\"3-3\",\"4811\",\"40\",\"1\",\"Training\",\"Stims/Figures/94-J-0-2.bmp\",\"fasha:va\",\"Down\",\"40\",\"1\",\"13\",\"8\",\"C1\",\"C\",\"13\"
\"\",\"\",\"approach-retreat\",\"17\",\"245064\",\"0.0-17.0\",\"\",\"\",\"3-3\",\"6809\",\"40\",\"1\",\"Training\",\"Stims/Figures/102-J-10-4.bmp\",\"zasa:za\",\"Down\",\"40\",\"1\",\"14\",\"8\",\"C2\",\"C\",\"14\"
\"\",\"\",\"approach-retreat\",\"18\",\"251136\",\"0.0-18.0\",\"\",\"\",\"3-3\",\"4567\",\"40\",\"1\",\"Training\",\"Stims/Figures/84-C-20-2.bmp\",\"fa:fava\",\"Up\",\"40\",\"1\",\"15\",\"8\",\"C1\",\"C\",\"15\"
\"\",\"\",\"approach-retreat\",\"19\",\"261741\",\"0.0-19.0\",\"\",\"\",\"3-3\",\"9095\",\"39\",\"1\",\"Training\",\"Stims/Figures/102-C-20-4.bmp\",\"sahaza\",\"Left\",\"39\",\"1\",\"16\",\"8\",\"C2\",\"C\",\"16\"
\"\",\"\",\"approach-retreat\",\"20\",\"268855\",\"0.0-20.0\",\"\",\"\",\"3-3\",\"5609\",\"38\",\"1\",\"Training\",\"Stims/Figures/102-C-20-4.bmp\",\"sahaza\",\"Down\",\"38\",\"2\",\"1\",\"8\",\"C2\",\"C\",\"17\"
\"\",\"\",\"approach-retreat\",\"21\",\"274686\",\"0.0-21.0\",\"\",\"\",\"3-3\",\"4328\",\"37\",\"1\",\"Training\",\"Stims/Figures/44-C-30-3.bmp\",\"za:ha:ha\",\"Right\",\"37\",\"2\",\"2\",\"8\",\"C2\",\"C\",\"18\"
\"\",\"\",\"approach-retreat\",\"22\",\"280297\",\"0.0-22.0\",\"\",\"\",\"3-3\",\"4106\",\"37\",\"1\",\"Training\",\"Stims/Figures/84-J-0-2.bmp\",\"va:fa:sha\",\"Left\",\"37\",\"2\",\"3\",\"8\",\"C1\",\"C\",\"19\"
\"\",\"\",\"approach-retreat\",\"23\",\"286846\",\"0.0-23.0\",\"\",\"\",\"3-3\",\"5043\",\"39\",\"1\",\"Training\",\"Stims/Figures/111-J-10-3.bmp\",\"saha:ha\",\"Right\",\"39\",\"2\",\"4\",\"8\",\"C2\",\"C\",\"20\"
\"\",\"\",\"approach-retreat\",\"24\",\"292547\",\"0.0-24.0\",\"\",\"\",\"3-3\",\"4196\",\"40\",\"1\",\"Training\",\"Stims/Figures/7-C-20-4.bmp\",\"zaha:za\",\"Up\",\"40\",\"2\",\"5\",\"8\",\"C2\",\"C\",\"21\"
\"\",\"\",\"approach-retreat\",\"25\",\"298295\",\"0.0-25.0\",\"\",\"\",\"3-3\",\"4242\",\"39\",\"1\",\"Training\",\"Stims/Figures/27-C-30-1.bmp\",\"vasha:va\",\"Left\",\"39\",\"2\",\"6\",\"8\",\"C1\",\"C\",\"22\"
\"\",\"\",\"approach-retreat\",\"26\",\"303792\",\"0.0-26.0\",\"\",\"\",\"3-3\",\"3988\",\"37\",\"1\",\"Training\",\"Stims/Figures/84-C-20-2.bmp\",\"fa:fava\",\"Right\",\"37\",\"2\",\"7\",\"8\",\"C1\",\"C\",\"23\"
\"\",\"\",\"approach-retreat\",\"27\",\"309611\",\"0.0-27.0\",\"\",\"\",\"3-3\",\"4314\",\"40\",\"1\",\"Training\",\"Stims/Figures/86-J-0-1.bmp\",\"vashasha\",\"Down\",\"40\",\"2\",\"8\",\"8\",\"C1\",\"C\",\"24\"
\"\",\"\",\"approach-retreat\",\"28\",\"316333\",\"0.0-28.0\",\"\",\"\",\"3-3\",\"5216\",\"37\",\"1\",\"Training\",\"Stims/Figures/102-J-10-4.bmp\",\"zasa:za\",\"Left\",\"37\",\"2\",\"9\",\"8\",\"C2\",\"C\",\"25\"
\"\",\"\",\"approach-retreat\",\"29\",\"323248\",\"0.0-29.0\",\"\",\"\",\"3-3\",\"5409\",\"40\",\"1\",\"Training\",\"Stims/Figures/94-J-0-2.bmp\",\"fasha:va\",\"Down\",\"40\",\"2\",\"10\",\"8\",\"C1\",\"C\",\"26\"
\"\",\"\",\"approach-retreat\",\"30\",\"332524\",\"0.0-30.0\",\"\",\"\",\"3-3\",\"7770\",\"40\",\"0\",\"Training\",\"Stims/Figures/44-J-10-3.bmp\",\"za:saza\",\"Up\",\"38\",\"2\",\"11\",\"8\",\"C2\",\"C\",\"27\"
\"\",\"\",\"approach-retreat\",\"31\",\"337940\",\"0.0-31.0\",\"\",\"\",\"3-3\",\"3912\",\"37\",\"0\",\"Training\",\"Stims/Figures/111-C-30-3.bmp\",\"za:haza\",\"Left\",\"39\",\"2\",\"12\",\"8\",\"C2\",\"C\",\"28\"
\"\",\"\",\"approach-retreat\",\"32\",\"345158\",\"0.0-32.0\",\"\",\"\",\"3-3\",\"5714\",\"40\",\"0\",\"Training\",\"Stims/Figures/7-J-10-4.bmp\",\"sa:ha:ha\",\"Up\",\"38\",\"2\",\"13\",\"8\",\"C2\",\"C\",\"29\"
\"\",\"\",\"approach-retreat\",\"33\",\"350692\",\"0.0-33.0\",\"\",\"\",\"3-3\",\"4029\",\"37\",\"1\",\"Training\",\"Stims/Figures/94-C-20-2.bmp\",\"fa:shasha\",\"Right\",\"37\",\"2\",\"14\",\"8\",\"C1\",\"C\",\"30\"
\"\",\"\",\"approach-retreat\",\"34\",\"356443\",\"0.0-34.0\",\"\",\"\",\"3-3\",\"4246\",\"38\",\"1\",\"Training\",\"Stims/Figures/86-C-30-1.bmp\",\"vafasha\",\"Down\",\"38\",\"2\",\"15\",\"8\",\"C1\",\"C\",\"31\"
\"\",\"\",\"approach-retreat\",\"35\",\"363454\",\"0.0-35.0\",\"\",\"\",\"3-3\",\"5505\",\"38\",\"1\",\"Training\",\"Stims/Figures/27-J-0-1.bmp\",\"va:fa:va\",\"Up\",\"38\",\"2\",\"16\",\"8\",\"C1\",\"C\",\"32\"
\"\",\"\",\"approach-retreat\",\"36\",\"369105\",\"0.0-36.0\",\"\",\"\",\"3-3\",\"4145\",\"37\",\"1\",\"Training\",\"Stims/Figures/84-C-20-2.bmp\",\"fa:fava\",\"Right\",\"37\",\"3\",\"1\",\"8\",\"C1\",\"C\",\"33\"
\"\",\"\",\"approach-retreat\",\"37\",\"376369\",\"0.0-37.0\",\"\",\"\",\"3-3\",\"5760\",\"39\",\"1\",\"Training\",\"Stims/Figures/27-C-30-1.bmp\",\"vasha:va\",\"Left\",\"39\",\"3\",\"2\",\"8\",\"C1\",\"C\",\"34\"
\"\",\"\",\"approach-retreat\",\"38\",\"383027\",\"0.0-38.0\",\"\",\"\",\"3-3\",\"5154\",\"40\",\"1\",\"Training\",\"Stims/Figures/111-J-10-3.bmp\",\"saha:ha\",\"Down\",\"40\",\"3\",\"3\",\"8\",\"C2\",\"C\",\"35\"
\"\",\"\",\"approach-retreat\",\"39\",\"389388\",\"0.0-39.0\",\"\",\"\",\"3-3\",\"4853\",\"40\",\"1\",\"Training\",\"Stims/Figures/86-J-0-1.bmp\",\"vashasha\",\"Down\",\"40\",\"3\",\"4\",\"8\",\"C1\",\"C\",\"36\"
\"\",\"\",\"approach-retreat\",\"40\",\"397518\",\"0.0-40.0\",\"\",\"\",\"3-3\",\"6625\",\"39\",\"1\",\"Training\",\"Stims/Figures/111-C-30-3.bmp\",\"za:haza\",\"Left\",\"39\",\"3\",\"5\",\"8\",\"C2\",\"C\",\"37\"
\"\",\"\",\"approach-retreat\",\"41\",\"403156\",\"0.0-41.0\",\"\",\"\",\"3-3\",\"4132\",\"37\",\"0\",\"Training\",\"Stims/Figures/44-J-10-3.bmp\",\"za:saza\",\"Right\",\"39\",\"3\",\"6\",\"8\",\"C2\",\"C\",\"38\"
\"\",\"\",\"approach-retreat\",\"42\",\"408861\",\"0.0-42.0\",\"\",\"\",\"3-3\",\"4202\",\"38\",\"1\",\"Training\",\"Stims/Figures/102-J-10-4.bmp\",\"zasa:za\",\"Up\",\"38\",\"3\",\"7\",\"8\",\"C2\",\"C\",\"39\"
\"\",\"\",\"approach-retreat\",\"43\",\"415175\",\"0.0-43.0\",\"\",\"\",\"3-3\",\"4807\",\"39\",\"0\",\"Training\",\"Stims/Figures/7-J-10-4.bmp\",\"sa:ha:ha\",\"Left\",\"37\",\"3\",\"8\",\"8\",\"C2\",\"C\",\"40\"
\"\",\"\",\"approach-retreat\",\"44\",\"421086\",\"0.0-44.0\",\"\",\"\",\"3-3\",\"4404\",\"38\",\"1\",\"Training\",\"Stims/Figures/7-C-20-4.bmp\",\"zaha:za\",\"Down\",\"38\",\"3\",\"9\",\"8\",\"C2\",\"C\",\"41\"
\"\",\"\",\"approach-retreat\",\"45\",\"427221\",\"0.0-45.0\",\"\",\"\",\"3-3\",\"4630\",\"40\",\"1\",\"Training\",\"Stims/Figures/102-C-20-4.bmp\",\"sahaza\",\"Up\",\"40\",\"3\",\"10\",\"8\",\"C2\",\"C\",\"42\"
\"\",\"\",\"approach-retreat\",\"46\",\"433972\",\"0.0-46.0\",\"\",\"\",\"3-3\",\"5245\",\"39\",\"1\",\"Training\",\"Stims/Figures/94-J-0-2.bmp\",\"fasha:va\",\"Right\",\"39\",\"3\",\"11\",\"8\",\"C1\",\"C\",\"43\"
\"\",\"\",\"approach-retreat\",\"47\",\"441040\",\"0.0-47.0\",\"\",\"\",\"3-3\",\"5562\",\"40\",\"1\",\"Training\",\"Stims/Figures/44-C-30-3.bmp\",\"za:ha:ha\",\"Up\",\"40\",\"3\",\"12\",\"8\",\"C2\",\"C\",\"44\"
\"\",\"\",\"approach-retreat\",\"48\",\"446568\",\"0.0-48.0\",\"\",\"\",\"3-3\",\"4020\",\"40\",\"1\",\"Training\",\"Stims/Figures/86-C-30-1.bmp\",\"vafasha\",\"Up\",\"40\",\"3\",\"13\",\"8\",\"C1\",\"C\",\"45\"
\"\",\"\",\"approach-retreat\",\"49\",\"453741\",\"0.0-49.0\",\"\",\"\",\"3-3\",\"5669\",\"37\",\"1\",\"Training\",\"Stims/Figures/27-J-0-1.bmp\",\"va:fa:va\",\"Left\",\"37\",\"3\",\"14\",\"8\",\"C1\",\"C\",\"46\"
\"\",\"\",\"approach-retreat\",\"50\",\"459858\",\"0.0-50.0\",\"\",\"\",\"3-3\",\"4610\",\"40\",\"1\",\"Training\",\"Stims/Figures/84-J-0-2.bmp\",\"va:fa:sha\",\"Down\",\"40\",\"3\",\"15\",\"8\",\"C1\",\"C\",\"47\"
\"\",\"\",\"approach-retreat\",\"51\",\"465434\",\"0.0-51.0\",\"\",\"\",\"3-3\",\"4070\",\"37\",\"1\",\"Training\",\"Stims/Figures/94-C-20-2.bmp\",\"fa:shasha\",\"Right\",\"37\",\"3\",\"16\",\"8\",\"C1\",\"C\",\"48\"
\"\",\"\",\"approach-retreat\",\"52\",\"471230\",\"0.0-52.0\",\"\",\"\",\"3-3\",\"4291\",\"39\",\"1\",\"Training\",\"Stims/Figures/94-C-20-2.bmp\",\"fa:shasha\",\"Left\",\"39\",\"4\",\"1\",\"8\",\"C1\",\"C\",\"49\"
\"\",\"\",\"approach-retreat\",\"53\",\"476856\",\"0.0-53.0\",\"\",\"\",\"3-3\",\"4120\",\"40\",\"1\",\"Training\",\"Stims/Figures/27-C-30-1.bmp\",\"vasha:va\",\"Up\",\"40\",\"4\",\"2\",\"8\",\"C1\",\"C\",\"50\"
\"\",\"\",\"approach-retreat\",\"54\",\"482633\",\"0.0-54.0\",\"\",\"\",\"3-3\",\"4271\",\"40\",\"1\",\"Training\",\"Stims/Figures/84-J-0-2.bmp\",\"va:fa:sha\",\"Down\",\"40\",\"4\",\"3\",\"8\",\"C1\",\"C\",\"51\"
\"\",\"\",\"approach-retreat\",\"55\",\"488302\",\"0.0-55.0\",\"\",\"\",\"3-3\",\"4163\",\"40\",\"0\",\"Training\",\"Stims/Figures/102-J-10-4.bmp\",\"zasa:za\",\"Up\",\"38\",\"4\",\"4\",\"8\",\"C2\",\"C\",\"52\"
\"\",\"\",\"approach-retreat\",\"56\",\"494121\",\"0.0-56.0\",\"\",\"\",\"3-3\",\"4315\",\"38\",\"1\",\"Training\",\"Stims/Figures/44-C-30-3.bmp\",\"za:ha:ha\",\"Down\",\"38\",\"4\",\"5\",\"8\",\"C2\",\"C\",\"53\"
\"\",\"\",\"approach-retreat\",\"57\",\"499889\",\"0.0-57.0\",\"\",\"\",\"3-3\",\"4264\",\"38\",\"1\",\"Training\",\"Stims/Figures/7-C-20-4.bmp\",\"zaha:za\",\"Down\",\"38\",\"4\",\"6\",\"8\",\"C2\",\"C\",\"54\"
\"\",\"\",\"approach-retreat\",\"58\",\"505775\",\"0.0-58.0\",\"\",\"\",\"3-3\",\"4382\",\"37\",\"1\",\"Training\",\"Stims/Figures/86-J-0-1.bmp\",\"vashasha\",\"Left\",\"37\",\"4\",\"7\",\"8\",\"C1\",\"C\",\"55\"
\"\",\"\",\"approach-retreat\",\"59\",\"511677\",\"0.0-59.0\",\"\",\"\",\"3-3\",\"4397\",\"38\",\"1\",\"Training\",\"Stims/Figures/84-C-20-2.bmp\",\"fa:fava\",\"Down\",\"38\",\"4\",\"8\",\"8\",\"C1\",\"C\",\"56\"
\"\",\"\",\"approach-retreat\",\"60\",\"517453\",\"0.0-60.0\",\"\",\"\",\"3-3\",\"4271\",\"39\",\"1\",\"Training\",\"Stims/Figures/102-C-20-4.bmp\",\"sahaza\",\"Left\",\"39\",\"4\",\"9\",\"8\",\"C2\",\"C\",\"57\"
\"\",\"\",\"approach-retreat\",\"61\",\"523222\",\"0.0-61.0\",\"\",\"\",\"3-3\",\"4265\",\"38\",\"1\",\"Training\",\"Stims/Figures/27-J-0-1.bmp\",\"va:fa:va\",\"Up\",\"38\",\"4\",\"10\",\"8\",\"C1\",\"C\",\"58\"
\"\",\"\",\"approach-retreat\",\"62\",\"529166\",\"0.0-62.0\",\"\",\"\",\"3-3\",\"4439\",\"38\",\"1\",\"Training\",\"Stims/Figures/44-J-10-3.bmp\",\"za:saza\",\"Up\",\"38\",\"4\",\"11\",\"8\",\"C2\",\"C\",\"59\"
\"\",\"\",\"approach-retreat\",\"63\",\"534675\",\"0.0-63.0\",\"\",\"\",\"3-3\",\"4003\",\"37\",\"1\",\"Training\",\"Stims/Figures/111-J-10-3.bmp\",\"saha:ha\",\"Left\",\"37\",\"4\",\"12\",\"8\",\"C2\",\"C\",\"60\"
\"\",\"\",\"approach-retreat\",\"64\",\"540437\",\"0.0-64.0\",\"\",\"\",\"3-3\",\"4256\",\"39\",\"1\",\"Training\",\"Stims/Figures/94-J-0-2.bmp\",\"fasha:va\",\"Right\",\"39\",\"4\",\"13\",\"8\",\"C1\",\"C\",\"61\"
\"\",\"\",\"approach-retreat\",\"65\",\"545945\",\"0.0-65.0\",\"\",\"\",\"3-3\",\"4000\",\"37\",\"1\",\"Training\",\"Stims/Figures/86-C-30-1.bmp\",\"vafasha\",\"Right\",\"37\",\"4\",\"14\",\"8\",\"C1\",\"C\",\"62\"
\"\",\"\",\"approach-retreat\",\"66\",\"551679\",\"0.0-66.0\",\"\",\"\",\"3-3\",\"4227\",\"37\",\"1\",\"Training\",\"Stims/Figures/111-C-30-3.bmp\",\"za:haza\",\"Right\",\"37\",\"4\",\"15\",\"8\",\"C2\",\"C\",\"63\"
\"\",\"\",\"approach-retreat\",\"67\",\"557426\",\"0.0-67.0\",\"\",\"\",\"3-3\",\"4243\",\"37\",\"0\",\"Training\",\"Stims/Figures/7-J-10-4.bmp\",\"sa:ha:ha\",\"Right\",\"39\",\"4\",\"16\",\"8\",\"C2\",\"C\",\"64\"
\"\",\"\",\"approach-retreat\",\"68\",\"563062\",\"0.0-68.0\",\"\",\"\",\"3-3\",\"4132\",\"37\",\"1\",\"Training\",\"Stims/Figures/84-J-0-2.bmp\",\"va:fa:sha\",\"Left\",\"37\",\"5\",\"1\",\"8\",\"C1\",\"C\",\"65\"
\"\",\"\",\"approach-retreat\",\"69\",\"568875\",\"0.0-69.0\",\"\",\"\",\"3-3\",\"4306\",\"37\",\"1\",\"Training\",\"Stims/Figures/86-C-30-1.bmp\",\"vafasha\",\"Right\",\"37\",\"5\",\"2\",\"8\",\"C1\",\"C\",\"66\"
\"\",\"\",\"approach-retreat\",\"70\",\"574932\",\"0.0-70.0\",\"\",\"\",\"3-3\",\"4555\",\"39\",\"1\",\"Training\",\"Stims/Figures/111-C-30-3.bmp\",\"za:haza\",\"Left\",\"39\",\"5\",\"3\",\"8\",\"C2\",\"C\",\"67\"
\"\",\"\",\"approach-retreat\",\"71\",\"580689\",\"0.0-71.0\",\"\",\"\",\"3-3\",\"4251\",\"38\",\"1\",\"Training\",\"Stims/Figures/27-J-0-1.bmp\",\"va:fa:va\",\"Up\",\"38\",\"5\",\"4\",\"8\",\"C1\",\"C\",\"68\"
\"\",\"\",\"approach-retreat\",\"72\",\"588059\",\"0.0-72.0\",\"\",\"\",\"3-3\",\"5864\",\"37\",\"1\",\"Training\",\"Stims/Figures/84-C-20-2.bmp\",\"fa:fava\",\"Right\",\"37\",\"5\",\"5\",\"8\",\"C1\",\"C\",\"69\"
\"\",\"\",\"approach-retreat\",\"73\",\"593638\",\"0.0-73.0\",\"\",\"\",\"3-3\",\"4074\",\"40\",\"1\",\"Training\",\"Stims/Figures/94-C-20-2.bmp\",\"fa:shasha\",\"Up\",\"40\",\"5\",\"6\",\"8\",\"C1\",\"C\",\"70\"
\"\",\"\",\"approach-retreat\",\"74\",\"599927\",\"0.0-74.0\",\"\",\"\",\"3-3\",\"4785\",\"40\",\"1\",\"Training\",\"Stims/Figures/7-J-10-4.bmp\",\"sa:ha:ha\",\"Down\",\"40\",\"5\",\"7\",\"8\",\"C2\",\"C\",\"71\"
\"\",\"\",\"approach-retreat\",\"75\",\"605569\",\"0.0-75.0\",\"\",\"\",\"3-3\",\"4133\",\"40\",\"0\",\"Training\",\"Stims/Figures/111-J-10-3.bmp\",\"saha:ha\",\"Up\",\"38\",\"5\",\"8\",\"8\",\"C2\",\"C\",\"72\"
\"\",\"\",\"approach-retreat\",\"76\",\"611337\",\"0.0-76.0\",\"\",\"\",\"3-3\",\"4262\",\"40\",\"1\",\"Training\",\"Stims/Figures/102-C-20-4.bmp\",\"sahaza\",\"Up\",\"40\",\"5\",\"9\",\"8\",\"C2\",\"C\",\"73\"
\"\",\"\",\"approach-retreat\",\"77\",\"616989\",\"0.0-77.0\",\"\",\"\",\"3-3\",\"4141\",\"37\",\"1\",\"Training\",\"Stims/Figures/44-C-30-3.bmp\",\"za:ha:ha\",\"Right\",\"37\",\"5\",\"10\",\"8\",\"C2\",\"C\",\"74\"
\"\",\"\",\"approach-retreat\",\"78\",\"622625\",\"0.0-78.0\",\"\",\"\",\"3-3\",\"4131\",\"37\",\"1\",\"Training\",\"Stims/Figures/94-J-0-2.bmp\",\"fasha:va\",\"Left\",\"37\",\"5\",\"11\",\"8\",\"C1\",\"C\",\"75\"
\"\",\"\",\"approach-retreat\",\"79\",\"629576\",\"0.0-79.0\",\"\",\"\",\"3-3\",\"5443\",\"38\",\"1\",\"Training\",\"Stims/Figures/27-C-30-1.bmp\",\"vasha:va\",\"Down\",\"38\",\"5\",\"12\",\"8\",\"C1\",\"C\",\"76\"
\"\",\"\",\"approach-retreat\",\"80\",\"635426\",\"0.0-80.0\",\"\",\"\",\"3-3\",\"4344\",\"38\",\"1\",\"Training\",\"Stims/Figures/7-C-20-4.bmp\",\"zaha:za\",\"Down\",\"38\",\"5\",\"13\",\"8\",\"C2\",\"C\",\"77\"
\"\",\"\",\"approach-retreat\",\"81\",\"641096\",\"0.0-81.0\",\"\",\"\",\"3-3\",\"4164\",\"39\",\"1\",\"Training\",\"Stims/Figures/102-J-10-4.bmp\",\"zasa:za\",\"Right\",\"39\",\"5\",\"14\",\"8\",\"C2\",\"C\",\"78\"
\"\",\"\",\"approach-retreat\",\"82\",\"647036\",\"0.0-82.0\",\"\",\"\",\"3-3\",\"4433\",\"37\",\"1\",\"Training\",\"Stims/Figures/86-J-0-1.bmp\",\"vashasha\",\"Left\",\"37\",\"5\",\"15\",\"8\",\"C1\",\"C\",\"79\"
\"\",\"\",\"approach-retreat\",\"83\",\"653489\",\"0.0-83.0\",\"\",\"\",\"3-3\",\"4948\",\"40\",\"1\",\"Training\",\"Stims/Figures/44-J-10-3.bmp\",\"za:saza\",\"Down\",\"40\",\"5\",\"16\",\"8\",\"C2\",\"C\",\"80\"
\"\",\"\",\"approach-retreat\",\"84\",\"659125\",\"0.0-84.0\",\"\",\"\",\"3-3\",\"4131\",\"40\",\"1\",\"Training\",\"Stims/Figures/44-J-10-3.bmp\",\"za:saza\",\"Down\",\"40\",\"6\",\"1\",\"8\",\"C2\",\"C\",\"81\"
\"\",\"\",\"approach-retreat\",\"85\",\"664600\",\"0.0-85.0\",\"\",\"\",\"3-3\",\"3967\",\"37\",\"1\",\"Training\",\"Stims/Figures/86-J-0-1.bmp\",\"vashasha\",\"Left\",\"37\",\"6\",\"2\",\"8\",\"C1\",\"C\",\"82\"
\"\",\"\",\"approach-retreat\",\"86\",\"670184\",\"0.0-86.0\",\"\",\"\",\"3-3\",\"4078\",\"37\",\"1\",\"Training\",\"Stims/Figures/44-C-30-3.bmp\",\"za:ha:ha\",\"Right\",\"37\",\"6\",\"3\",\"8\",\"C2\",\"C\",\"83\"
\"\",\"\",\"approach-retreat\",\"87\",\"676385\",\"0.0-87.0\",\"\",\"\",\"3-3\",\"4696\",\"40\",\"1\",\"Training\",\"Stims/Figures/111-J-10-3.bmp\",\"saha:ha\",\"Down\",\"40\",\"6\",\"4\",\"8\",\"C2\",\"C\",\"84\"
\"\",\"\",\"approach-retreat\",\"88\",\"682638\",\"0.0-88.0\",\"\",\"\",\"3-3\",\"4748\",\"38\",\"1\",\"Training\",\"Stims/Figures/7-J-10-4.bmp\",\"sa:ha:ha\",\"Up\",\"38\",\"6\",\"5\",\"8\",\"C2\",\"C\",\"85\"
\"\",\"\",\"approach-retreat\",\"89\",\"688375\",\"0.0-89.0\",\"\",\"\",\"3-3\",\"4231\",\"37\",\"1\",\"Training\",\"Stims/Figures/84-J-0-2.bmp\",\"va:fa:sha\",\"Left\",\"37\",\"6\",\"6\",\"8\",\"C1\",\"C\",\"86\"
\"\",\"\",\"approach-retreat\",\"90\",\"694219\",\"0.0-90.0\",\"\",\"\",\"3-3\",\"4339\",\"40\",\"1\",\"Training\",\"Stims/Figures/102-C-20-4.bmp\",\"sahaza\",\"Up\",\"40\",\"6\",\"7\",\"8\",\"C2\",\"C\",\"87\"
\"\",\"\",\"approach-retreat\",\"91\",\"699832\",\"0.0-91.0\",\"\",\"\",\"3-3\",\"4108\",\"40\",\"1\",\"Training\",\"Stims/Figures/84-C-20-2.bmp\",\"fa:fava\",\"Up\",\"40\",\"6\",\"8\",\"8\",\"C1\",\"C\",\"88\"
\"\",\"\",\"approach-retreat\",\"92\",\"705625\",\"0.0-92.0\",\"\",\"\",\"3-3\",\"4287\",\"40\",\"0\",\"Training\",\"Stims/Figures/7-C-20-4.bmp\",\"zaha:za\",\"Down\",\"38\",\"6\",\"9\",\"8\",\"C2\",\"C\",\"89\"
\"\",\"\",\"approach-retreat\",\"93\",\"711376\",\"0.0-93.0\",\"\",\"\",\"3-3\",\"4243\",\"39\",\"1\",\"Training\",\"Stims/Figures/94-J-0-2.bmp\",\"fasha:va\",\"Right\",\"39\",\"6\",\"10\",\"8\",\"C1\",\"C\",\"90\"
\"\",\"\",\"approach-retreat\",\"94\",\"716883\",\"0.0-94.0\",\"\",\"\",\"3-3\",\"4003\",\"37\",\"1\",\"Training\",\"Stims/Figures/86-C-30-1.bmp\",\"vafasha\",\"Right\",\"37\",\"6\",\"11\",\"8\",\"C1\",\"C\",\"91\"
\"\",\"\",\"approach-retreat\",\"95\",\"722491\",\"0.0-95.0\",\"\",\"\",\"3-3\",\"4100\",\"39\",\"1\",\"Training\",\"Stims/Figures/111-C-30-3.bmp\",\"za:haza\",\"Left\",\"39\",\"6\",\"12\",\"8\",\"C2\",\"C\",\"92\"
\"\",\"\",\"approach-retreat\",\"96\",\"728642\",\"0.0-96.0\",\"\",\"\",\"3-3\",\"4645\",\"40\",\"1\",\"Training\",\"Stims/Figures/27-J-0-1.bmp\",\"va:fa:va\",\"Down\",\"40\",\"6\",\"13\",\"8\",\"C1\",\"C\",\"93\"
\"\",\"\",\"approach-retreat\",\"97\",\"734229\",\"0.0-97.0\",\"\",\"\",\"3-3\",\"4083\",\"37\",\"1\",\"Training\",\"Stims/Figures/102-J-10-4.bmp\",\"zasa:za\",\"Left\",\"37\",\"6\",\"14\",\"8\",\"C2\",\"C\",\"94\"
\"\",\"\",\"approach-retreat\",\"98\",\"739778\",\"0.0-98.0\",\"\",\"\",\"3-3\",\"4045\",\"40\",\"1\",\"Training\",\"Stims/Figures/27-C-30-1.bmp\",\"vasha:va\",\"Up\",\"40\",\"6\",\"15\",\"8\",\"C1\",\"C\",\"95\"
\"\",\"\",\"approach-retreat\",\"99\",\"745377\",\"0.0-99.0\",\"\",\"\",\"3-3\",\"4094\",\"37\",\"1\",\"Training\",\"Stims/Figures/94-C-20-2.bmp\",\"fa:shasha\",\"Right\",\"37\",\"6\",\"16\",\"8\",\"C1\",\"C\",\"96\"
\"\",\"\",\"approach-retreat\",\"100\",\"751001\",\"0.0-100.0\",\"\",\"\",\"3-3\",\"4118\",\"39\",\"1\",\"Training\",\"Stims/Figures/111-J-10-3.bmp\",\"saha:ha\",\"Right\",\"39\",\"7\",\"1\",\"8\",\"C2\",\"C\",\"97\"
\"\",\"\",\"approach-retreat\",\"101\",\"757589\",\"0.0-101.0\",\"\",\"\",\"3-3\",\"5084\",\"40\",\"1\",\"Training\",\"Stims/Figures/94-J-0-2.bmp\",\"fasha:va\",\"Down\",\"40\",\"7\",\"2\",\"8\",\"C1\",\"C\",\"98\"
\"\",\"\",\"approach-retreat\",\"102\",\"763184\",\"0.0-102.0\",\"\",\"\",\"3-3\",\"4091\",\"38\",\"1\",\"Training\",\"Stims/Figures/86-C-30-1.bmp\",\"vafasha\",\"Down\",\"38\",\"7\",\"3\",\"8\",\"C1\",\"C\",\"99\"
\"\",\"\",\"approach-retreat\",\"103\",\"769120\",\"0.0-103.0\",\"\",\"\",\"3-3\",\"4430\",\"38\",\"1\",\"Training\",\"Stims/Figures/27-C-30-1.bmp\",\"vasha:va\",\"Down\",\"38\",\"7\",\"4\",\"8\",\"C1\",\"C\",\"100\"
\"\",\"\",\"approach-retreat\",\"104\",\"774741\",\"0.0-104.0\",\"\",\"\",\"3-3\",\"4114\",\"37\",\"1\",\"Training\",\"Stims/Figures/102-J-10-4.bmp\",\"zasa:za\",\"Left\",\"37\",\"7\",\"5\",\"8\",\"C2\",\"C\",\"101\"
\"\",\"\",\"approach-retreat\",\"105\",\"781028\",\"0.0-105.0\",\"\",\"\",\"3-3\",\"4783\",\"40\",\"1\",\"Training\",\"Stims/Figures/94-C-20-2.bmp\",\"fa:shasha\",\"Up\",\"40\",\"7\",\"6\",\"8\",\"C1\",\"C\",\"102\"
\"\",\"\",\"approach-retreat\",\"106\",\"787161\",\"0.0-106.0\",\"\",\"\",\"3-3\",\"4627\",\"39\",\"1\",\"Training\",\"Stims/Figures/27-J-0-1.bmp\",\"va:fa:va\",\"Right\",\"39\",\"7\",\"7\",\"8\",\"C1\",\"C\",\"103\"
\"\",\"\",\"approach-retreat\",\"107\",\"792900\",\"0.0-107.0\",\"\",\"\",\"3-3\",\"4234\",\"40\",\"1\",\"Training\",\"Stims/Figures/7-J-10-4.bmp\",\"sa:ha:ha\",\"Down\",\"40\",\"7\",\"8\",\"8\",\"C2\",\"C\",\"104\"
\"\",\"\",\"approach-retreat\",\"108\",\"800878\",\"0.0-108.0\",\"\",\"\",\"3-3\",\"6471\",\"39\",\"1\",\"Training\",\"Stims/Figures/7-C-20-4.bmp\",\"zaha:za\",\"Left\",\"39\",\"7\",\"9\",\"8\",\"C2\",\"C\",\"105\"
\"\",\"\",\"approach-retreat\",\"109\",\"806431\",\"0.0-109.0\",\"\",\"\",\"3-3\",\"4048\",\"40\",\"1\",\"Training\",\"Stims/Figures/111-C-30-3.bmp\",\"za:haza\",\"Up\",\"40\",\"7\",\"10\",\"8\",\"C2\",\"C\",\"106\"
\"\",\"\",\"approach-retreat\",\"110\",\"811996\",\"0.0-110.0\",\"\",\"\",\"3-3\",\"4061\",\"37\",\"1\",\"Training\",\"Stims/Figures/84-C-20-2.bmp\",\"fa:fava\",\"Right\",\"37\",\"7\",\"11\",\"8\",\"C1\",\"C\",\"107\"
\"\",\"\",\"approach-retreat\",\"111\",\"817665\",\"0.0-111.0\",\"\",\"\",\"3-3\",\"4164\",\"39\",\"1\",\"Training\",\"Stims/Figures/44-J-10-3.bmp\",\"za:saza\",\"Right\",\"39\",\"7\",\"12\",\"8\",\"C2\",\"C\",\"108\"
\"\",\"\",\"approach-retreat\",\"112\",\"823051\",\"0.0-112.0\",\"\",\"\",\"3-3\",\"3882\",\"37\",\"0\",\"Training\",\"Stims/Figures/102-C-20-4.bmp\",\"sahaza\",\"Left\",\"39\",\"7\",\"13\",\"8\",\"C2\",\"C\",\"109\"
\"\",\"\",\"approach-retreat\",\"113\",\"828997\",\"0.0-113.0\",\"\",\"\",\"3-3\",\"4441\",\"38\",\"1\",\"Training\",\"Stims/Figures/84-J-0-2.bmp\",\"va:fa:sha\",\"Up\",\"38\",\"7\",\"14\",\"8\",\"C1\",\"C\",\"110\"
\"\",\"\",\"approach-retreat\",\"114\",\"834485\",\"0.0-114.0\",\"\",\"\",\"3-3\",\"3984\",\"37\",\"1\",\"Training\",\"Stims/Figures/86-J-0-1.bmp\",\"vashasha\",\"Left\",\"37\",\"7\",\"15\",\"8\",\"C1\",\"C\",\"111\"
\"\",\"\",\"approach-retreat\",\"115\",\"840103\",\"0.0-115.0\",\"\",\"\",\"3-3\",\"4113\",\"40\",\"1\",\"Training\",\"Stims/Figures/44-C-30-3.bmp\",\"za:ha:ha\",\"Up\",\"40\",\"7\",\"16\",\"8\",\"C2\",\"C\",\"112\"
\"\",\"\",\"approach-retreat\",\"116\",\"845633\",\"0.0-116.0\",\"\",\"\",\"3-3\",\"4026\",\"38\",\"1\",\"Training\",\"Stims/Figures/102-J-10-4.bmp\",\"zasa:za\",\"Up\",\"38\",\"8\",\"1\",\"8\",\"C2\",\"C\",\"113\"
\"\",\"\",\"approach-retreat\",\"117\",\"852313\",\"0.0-117.0\",\"\",\"\",\"3-3\",\"5174\",\"39\",\"0\",\"Training\",\"Stims/Figures/102-C-20-4.bmp\",\"sahaza\",\"Right\",\"37\",\"8\",\"2\",\"8\",\"C2\",\"C\",\"114\"
\"\",\"\",\"approach-retreat\",\"118\",\"857732\",\"0.0-118.0\",\"\",\"\",\"3-3\",\"3914\",\"37\",\"1\",\"Training\",\"Stims/Figures/27-J-0-1.bmp\",\"va:fa:va\",\"Left\",\"37\",\"8\",\"3\",\"8\",\"C1\",\"C\",\"115\"
\"\",\"\",\"approach-retreat\",\"119\",\"863294\",\"0.0-119.0\",\"\",\"\",\"3-3\",\"4057\",\"38\",\"1\",\"Training\",\"Stims/Figures/86-C-30-1.bmp\",\"vafasha\",\"Down\",\"38\",\"8\",\"4\",\"8\",\"C1\",\"C\",\"116\"
\"\",\"\",\"approach-retreat\",\"120\",\"868631\",\"0.0-120.0\",\"\",\"\",\"3-3\",\"3832\",\"37\",\"1\",\"Training\",\"Stims/Figures/7-J-10-4.bmp\",\"sa:ha:ha\",\"Left\",\"37\",\"8\",\"5\",\"8\",\"C2\",\"C\",\"117\"
\"\",\"\",\"approach-retreat\",\"121\",\"875487\",\"0.0-121.0\",\"\",\"\",\"3-3\",\"5350\",\"40\",\"1\",\"Training\",\"Stims/Figures/94-C-20-2.bmp\",\"fa:shasha\",\"Up\",\"40\",\"8\",\"6\",\"8\",\"C1\",\"C\",\"118\"
\"\",\"\",\"approach-retreat\",\"122\",\"881021\",\"0.0-122.0\",\"\",\"\",\"3-3\",\"4027\",\"37\",\"1\",\"Training\",\"Stims/Figures/84-C-20-2.bmp\",\"fa:fava\",\"Right\",\"37\",\"8\",\"7\",\"8\",\"C1\",\"C\",\"119\"
\"\",\"\",\"approach-retreat\",\"123\",\"886733\",\"0.0-123.0\",\"\",\"\",\"3-3\",\"4207\",\"39\",\"1\",\"Training\",\"Stims/Figures/111-J-10-3.bmp\",\"saha:ha\",\"Right\",\"39\",\"8\",\"8\",\"8\",\"C2\",\"C\",\"120\"
\"\",\"\",\"approach-retreat\",\"124\",\"892791\",\"0.0-124.0\",\"\",\"\",\"3-3\",\"4553\",\"40\",\"1\",\"Training\",\"Stims/Figures/111-C-30-3.bmp\",\"za:haza\",\"Up\",\"40\",\"8\",\"9\",\"8\",\"C2\",\"C\",\"121\"
\"\",\"\",\"approach-retreat\",\"125\",\"898236\",\"0.0-125.0\",\"\",\"\",\"3-3\",\"3938\",\"37\",\"0\",\"Training\",\"Stims/Figures/84-J-0-2.bmp\",\"va:fa:sha\",\"Right\",\"39\",\"8\",\"10\",\"8\",\"C1\",\"C\",\"122\"
\"\",\"\",\"approach-retreat\",\"126\",\"903912\",\"0.0-126.0\",\"\",\"\",\"3-3\",\"4170\",\"40\",\"1\",\"Training\",\"Stims/Figures/86-J-0-1.bmp\",\"vashasha\",\"Down\",\"40\",\"8\",\"11\",\"8\",\"C1\",\"C\",\"123\"
\"\",\"\",\"approach-retreat\",\"127\",\"909663\",\"0.0-127.0\",\"\",\"\",\"3-3\",\"4247\",\"39\",\"1\",\"Training\",\"Stims/Figures/44-C-30-3.bmp\",\"za:ha:ha\",\"Left\",\"39\",\"8\",\"12\",\"8\",\"C2\",\"C\",\"124\"
\"\",\"\",\"approach-retreat\",\"128\",\"915260\",\"0.0-128.0\",\"\",\"\",\"3-3\",\"4092\",\"39\",\"1\",\"Training\",\"Stims/Figures/27-C-30-1.bmp\",\"vasha:va\",\"Left\",\"39\",\"8\",\"13\",\"8\",\"C1\",\"C\",\"125\"
\"\",\"\",\"approach-retreat\",\"129\",\"920863\",\"0.0-129.0\",\"\",\"\",\"3-3\",\"4096\",\"40\",\"1\",\"Training\",\"Stims/Figures/94-J-0-2.bmp\",\"fasha:va\",\"Down\",\"40\",\"8\",\"14\",\"8\",\"C1\",\"C\",\"126\"
\"\",\"\",\"approach-retreat\",\"130\",\"927898\",\"0.0-130.0\",\"\",\"\",\"3-3\",\"5531\",\"38\",\"1\",\"Training\",\"Stims/Figures/7-C-20-4.bmp\",\"zaha:za\",\"Down\",\"38\",\"8\",\"15\",\"8\",\"C2\",\"C\",\"127\"
\"\",\"\",\"approach-retreat\",\"131\",\"935607\",\"0.0-131.0\",\"\",\"\",\"3-3\",\"6202\",\"38\",\"1\",\"Training\",\"Stims/Figures/44-J-10-3.bmp\",\"za:saza\",\"Up\",\"38\",\"8\",\"16\",\"8\",\"C2\",\"C\",\"128\"
\"\",\"\",\"approach-retreat\",\"132\",\"944127\",\"0.0-132.0\",\"\",\"\",\"3-3\",\"7014\",\"40\",\"1\",\"Training\",\"Stims/Figures/7-C-20-4.bmp\",\"zaha:za\",\"Up\",\"40\",\"9\",\"1\",\"8\",\"C2\",\"C\",\"129\"
\"\",\"\",\"approach-retreat\",\"133\",\"950723\",\"0.0-133.0\",\"\",\"\",\"3-3\",\"5091\",\"38\",\"1\",\"Training\",\"Stims/Figures/111-C-30-3.bmp\",\"za:haza\",\"Down\",\"38\",\"9\",\"2\",\"8\",\"C2\",\"C\",\"130\"
\"\",\"\",\"approach-retreat\",\"134\",\"956243\",\"0.0-134.0\",\"\",\"\",\"3-3\",\"4015\",\"37\",\"1\",\"Training\",\"Stims/Figures/44-J-10-3.bmp\",\"za:saza\",\"Left\",\"37\",\"9\",\"3\",\"8\",\"C2\",\"C\",\"131\"
\"\",\"\",\"approach-retreat\",\"135\",\"961779\",\"0.0-135.0\",\"\",\"\",\"3-3\",\"4030\",\"40\",\"1\",\"Training\",\"Stims/Figures/94-J-0-2.bmp\",\"fasha:va\",\"Down\",\"40\",\"9\",\"4\",\"8\",\"C1\",\"C\",\"132\"
\"\",\"\",\"approach-retreat\",\"136\",\"967442\",\"0.0-136.0\",\"\",\"\",\"3-3\",\"4156\",\"37\",\"1\",\"Training\",\"Stims/Figures/44-C-30-3.bmp\",\"za:ha:ha\",\"Right\",\"37\",\"9\",\"5\",\"8\",\"C2\",\"C\",\"133\"
\"\",\"\",\"approach-retreat\",\"137\",\"972979\",\"0.0-137.0\",\"\",\"\",\"3-3\",\"4030\",\"37\",\"1\",\"Training\",\"Stims/Figures/84-J-0-2.bmp\",\"va:fa:sha\",\"Left\",\"37\",\"9\",\"6\",\"8\",\"C1\",\"C\",\"134\"
\"\",\"\",\"approach-retreat\",\"138\",\"978651\",\"0.0-138.0\",\"\",\"\",\"3-3\",\"4165\",\"39\",\"1\",\"Training\",\"Stims/Figures/111-J-10-3.bmp\",\"saha:ha\",\"Right\",\"39\",\"9\",\"7\",\"8\",\"C2\",\"C\",\"135\"
\"\",\"\",\"approach-retreat\",\"139\",\"984288\",\"0.0-139.0\",\"\",\"\",\"3-3\",\"4130\",\"40\",\"1\",\"Training\",\"Stims/Figures/27-J-0-1.bmp\",\"va:fa:va\",\"Down\",\"40\",\"9\",\"8\",\"8\",\"C1\",\"C\",\"136\"
\"\",\"\",\"approach-retreat\",\"140\",\"989907\",\"0.0-140.0\",\"\",\"\",\"3-3\",\"4104\",\"40\",\"1\",\"Training\",\"Stims/Figures/102-J-10-4.bmp\",\"zasa:za\",\"Down\",\"40\",\"9\",\"9\",\"8\",\"C2\",\"C\",\"137\"
\"\",\"\",\"approach-retreat\",\"141\",\"995437\",\"0.0-141.0\",\"\",\"\",\"3-3\",\"4016\",\"37\",\"1\",\"Training\",\"Stims/Figures/84-C-20-2.bmp\",\"fa:fava\",\"Right\",\"37\",\"9\",\"10\",\"8\",\"C1\",\"C\",\"138\"
\"\",\"\",\"approach-retreat\",\"142\",\"1001188\",\"0.0-142.0\",\"\",\"\",\"3-3\",\"4238\",\"39\",\"1\",\"Training\",\"Stims/Figures/94-C-20-2.bmp\",\"fa:shasha\",\"Left\",\"39\",\"9\",\"11\",\"8\",\"C1\",\"C\",\"139\"
\"\",\"\",\"approach-retreat\",\"143\",\"1007451\",\"0.0-143.0\",\"\",\"\",\"3-3\",\"4750\",\"39\",\"1\",\"Training\",\"Stims/Figures/7-J-10-4.bmp\",\"sa:ha:ha\",\"Right\",\"39\",\"9\",\"12\",\"8\",\"C2\",\"C\",\"140\"
\"\",\"\",\"approach-retreat\",\"144\",\"1012988\",\"0.0-144.0\",\"\",\"\",\"3-3\",\"4024\",\"40\",\"1\",\"Training\",\"Stims/Figures/27-C-30-1.bmp\",\"vasha:va\",\"Up\",\"40\",\"9\",\"13\",\"8\",\"C1\",\"C\",\"141\"
\"\",\"\",\"approach-retreat\",\"145\",\"1018437\",\"0.0-145.0\",\"\",\"\",\"3-3\",\"3936\",\"40\",\"1\",\"Training\",\"Stims/Figures/86-C-30-1.bmp\",\"vafasha\",\"Up\",\"40\",\"9\",\"14\",\"8\",\"C1\",\"C\",\"142\"
\"\",\"\",\"approach-retreat\",\"146\",\"1024044\",\"0.0-146.0\",\"\",\"\",\"3-3\",\"4095\",\"37\",\"1\",\"Training\",\"Stims/Figures/86-J-0-1.bmp\",\"vashasha\",\"Left\",\"37\",\"9\",\"15\",\"8\",\"C1\",\"C\",\"143\"
\"\",\"\",\"approach-retreat\",\"147\",\"1031186\",\"0.0-147.0\",\"\",\"\",\"3-3\",\"5628\",\"40\",\"1\",\"Training\",\"Stims/Figures/102-C-20-4.bmp\",\"sahaza\",\"Up\",\"40\",\"9\",\"16\",\"8\",\"C2\",\"C\",\"144\"
\"16296\",\"\",\"instructions\",\"148\",\"1047483\",\"0.0-148.0\",\"[{\"\"page_index\"\":0,\"\"viewing_time\"\":16296}]\",\"\",\"\",\"\",\"\",\"\",\"\",\"\",\"\",\"\",\"\",\"\",\"\",\"\",\"\",\"\",\"\"
\"\",\"\",\"approach-retreat\",\"149\",\"1053961\",\"0.0-149.0\",\"\",\"\",\"3-3\",\"4968\",\"40\",\"1\",\"Testing\",\"Stims/Figures/86-J-0-1.bmp\",\"vashasha\",\"Down\",\"40\",\"1\",\"1\",\"8\",\"C1\",\"C\",\"1\"
\"\",\"\",\"approach-retreat\",\"150\",\"1059783\",\"0.0-150.0\",\"\",\"\",\"3-3\",\"4309\",\"40\",\"1\",\"Testing\",\"Stims/Figures/85-J-0-2.bmp\",\"fafa:va\",\"Down\",\"40\",\"1\",\"2\",\"8\",\"C1\",\"C\",\"2\"
\"\",\"\",\"approach-retreat\",\"151\",\"1065672\",\"0.0-151.0\",\"\",\"\",\"3-3\",\"4379\",\"38\",\"1\",\"Testing\",\"Stims/Figures/94-J-0-2.bmp\",\"fasha:va\",\"Up\",\"38\",\"1\",\"3\",\"8\",\"C1\",\"C\",\"3\"
\"\",\"\",\"approach-retreat\",\"152\",\"1071389\",\"0.0-152.0\",\"\",\"\",\"3-3\",\"4204\",\"38\",\"1\",\"Testing\",\"Stims/Figures/44-J-10-3.bmp\",\"za:saza\",\"Up\",\"38\",\"1\",\"4\",\"8\",\"C2\",\"C\",\"4\"
\"\",\"\",\"approach-retreat\",\"153\",\"1077175\",\"0.0-153.0\",\"\",\"\",\"3-3\",\"4274\",\"38\",\"1\",\"Testing\",\"Stims/Figures/27-C-30-1.bmp\",\"vasha:va\",\"Down\",\"38\",\"1\",\"5\",\"8\",\"C1\",\"C\",\"5\"
\"\",\"\",\"approach-retreat\",\"154\",\"1083525\",\"0.0-154.0\",\"\",\"\",\"3-3\",\"4842\",\"38\",\"1\",\"Testing\",\"Stims/Figures/102-J-10-4.bmp\",\"zasa:za\",\"Up\",\"38\",\"1\",\"6\",\"8\",\"C2\",\"C\",\"6\"
\"\",\"\",\"approach-retreat\",\"155\",\"1089520\",\"0.0-155.0\",\"\",\"\",\"3-3\",\"4484\",\"38\",\"1\",\"Testing\",\"Stims/Figures/144-C-30-3.bmp\",\"sasa:za\",\"Down\",\"38\",\"1\",\"7\",\"8\",\"C2\",\"C\",\"7\"
\"\",\"\",\"approach-retreat\",\"156\",\"1095346\",\"0.0-156.0\",\"\",\"\",\"3-3\",\"4313\",\"39\",\"1\",\"Testing\",\"Stims/Figures/84-C-20-2.bmp\",\"fa:fava\",\"Left\",\"39\",\"1\",\"8\",\"8\",\"C1\",\"C\",\"8\"
\"\",\"\",\"approach-retreat\",\"157\",\"1101206\",\"0.0-157.0\",\"\",\"\",\"3-3\",\"4348\",\"39\",\"1\",\"Testing\",\"Stims/Figures/111-C-30-3.bmp\",\"za:haza\",\"Left\",\"39\",\"1\",\"9\",\"8\",\"C2\",\"C\",\"9\"
\"\",\"\",\"approach-retreat\",\"158\",\"1106987\",\"0.0-158.0\",\"\",\"\",\"3-3\",\"4272\",\"37\",\"1\",\"Testing\",\"Stims/Figures/19-C-20-4.bmp\",\"zasaza\",\"Right\",\"37\",\"1\",\"10\",\"8\",\"C2\",\"C\",\"10\"
\"\",\"\",\"approach-retreat\",\"159\",\"1112639\",\"0.0-159.0\",\"\",\"\",\"3-3\",\"4141\",\"39\",\"1\",\"Testing\",\"Stims/Figures/27-J-0-1.bmp\",\"va:fa:va\",\"Right\",\"39\",\"1\",\"11\",\"8\",\"C1\",\"C\",\"11\"
\"\",\"\",\"approach-retreat\",\"160\",\"1118424\",\"0.0-160.0\",\"\",\"\",\"3-3\",\"4273\",\"37\",\"1\",\"Testing\",\"Stims/Figures/102-C-20-4.bmp\",\"sahaza\",\"Right\",\"37\",\"1\",\"12\",\"8\",\"C2\",\"C\",\"12\"
\"\",\"\",\"approach-retreat\",\"161\",\"1124668\",\"0.0-161.0\",\"\",\"\",\"3-3\",\"4733\",\"37\",\"0\",\"Testing\",\"Stims/Figures/144-J-10-3.bmp\",\"za:sa:za\",\"Right\",\"39\",\"1\",\"13\",\"8\",\"C2\",\"C\",\"13\"
\"\",\"\",\"approach-retreat\",\"162\",\"1130436\",\"0.0-162.0\",\"\",\"\",\"3-3\",\"4259\",\"38\",\"1\",\"Testing\",\"Stims/Figures/86-C-30-1.bmp\",\"vafasha\",\"Down\",\"38\",\"1\",\"14\",\"8\",\"C1\",\"C\",\"14\"
\"\",\"\",\"approach-retreat\",\"163\",\"1136397\",\"0.0-163.0\",\"\",\"\",\"3-3\",\"4448\",\"39\",\"1\",\"Testing\",\"Stims/Figures/84-J-0-2.bmp\",\"va:fa:sha\",\"Right\",\"39\",\"1\",\"15\",\"8\",\"C1\",\"C\",\"15\"
\"\",\"\",\"approach-retreat\",\"164\",\"1146577\",\"0.0-164.0\",\"\",\"\",\"3-3\",\"8669\",\"39\",\"0\",\"Testing\",\"Stims/Figures/7-J-10-4.bmp\",\"sa:ha:ha\",\"Left\",\"37\",\"1\",\"16\",\"8\",\"C2\",\"C\",\"16\"
\"\",\"\",\"approach-retreat\",\"165\",\"1152255\",\"0.0-165.0\",\"\",\"\",\"3-3\",\"4162\",\"39\",\"1\",\"Testing\",\"Stims/Figures/94-C-20-2.bmp\",\"fa:shasha\",\"Left\",\"39\",\"1\",\"17\",\"8\",\"C1\",\"C\",\"17\"
\"\",\"\",\"approach-retreat\",\"166\",\"1157912\",\"0.0-166.0\",\"\",\"\",\"3-3\",\"4146\",\"39\",\"1\",\"Testing\",\"Stims/Figures/57-C-30-1.bmp\",\"vasha:sha\",\"Left\",\"39\",\"1\",\"18\",\"8\",\"C1\",\"C\",\"18\"
\"\",\"\",\"approach-retreat\",\"167\",\"1163490\",\"0.0-167.0\",\"\",\"\",\"3-3\",\"4057\",\"39\",\"1\",\"Testing\",\"Stims/Figures/7-C-20-4.bmp\",\"zaha:za\",\"Left\",\"39\",\"1\",\"19\",\"8\",\"C2\",\"C\",\"19\"
\"\",\"\",\"approach-retreat\",\"168\",\"1169257\",\"0.0-168.0\",\"\",\"\",\"3-3\",\"4255\",\"40\",\"1\",\"Testing\",\"Stims/Figures/44-C-30-3.bmp\",\"za:ha:ha\",\"Up\",\"40\",\"1\",\"20\",\"8\",\"C2\",\"C\",\"20\"
\"\",\"\",\"approach-retreat\",\"169\",\"1180719\",\"0.0-169.0\",\"\",\"\",\"3-3\",\"9948\",\"39\",\"1\",\"Testing\",\"Stims/Figures/111-J-10-3.bmp\",\"saha:ha\",\"Right\",\"39\",\"1\",\"21\",\"8\",\"C2\",\"C\",\"21\"
\"\",\"\",\"approach-retreat\",\"170\",\"1186538\",\"0.0-170.0\",\"\",\"\",\"3-3\",\"4310\",\"40\",\"1\",\"Testing\",\"Stims/Figures/57-J-0-1.bmp\",\"fa:fasha\",\"Down\",\"40\",\"1\",\"22\",\"8\",\"C1\",\"C\",\"22\"
\"\",\"\",\"approach-retreat\",\"171\",\"1192456\",\"0.0-171.0\",\"\",\"\",\"3-3\",\"4408\",\"40\",\"0\",\"Testing\",\"Stims/Figures/19-J-10-4.bmp\",\"zasa:ha\",\"Up\",\"38\",\"1\",\"23\",\"8\",\"C2\",\"C\",\"23\"
\"\",\"\",\"approach-retreat\",\"172\",\"1198449\",\"0.0-172.0\",\"\",\"\",\"3-3\",\"4481\",\"40\",\"1\",\"Testing\",\"Stims/Figures/85-C-20-2.bmp\",\"va:shava\",\"Up\",\"40\",\"1\",\"24\",\"8\",\"C1\",\"C\",\"24\"
\"\",\"\",\"approach-retreat\",\"173\",\"1204157\",\"0.0-173.0\",\"\",\"\",\"3-3\",\"4198\",\"38\",\"1\",\"Testing\",\"Stims/Figures/111-C-30-3.bmp\",\"za:haza\",\"Down\",\"38\",\"2\",\"1\",\"8\",\"C2\",\"C\",\"25\"
\"\",\"\",\"approach-retreat\",\"174\",\"1210277\",\"0.0-174.0\",\"\",\"\",\"3-3\",\"4608\",\"37\",\"1\",\"Testing\",\"Stims/Figures/94-J-0-2.bmp\",\"fasha:va\",\"Left\",\"37\",\"2\",\"2\",\"8\",\"C1\",\"C\",\"26\"
\"\",\"\",\"approach-retreat\",\"175\",\"1215881\",\"0.0-175.0\",\"\",\"\",\"3-3\",\"4094\",\"40\",\"0\",\"Testing\",\"Stims/Figures/144-J-10-3.bmp\",\"za:sa:za\",\"Up\",\"38\",\"2\",\"3\",\"8\",\"C2\",\"C\",\"27\"
\"\",\"\",\"approach-retreat\",\"176\",\"1221959\",\"0.0-176.0\",\"\",\"\",\"3-3\",\"4565\",\"39\",\"1\",\"Testing\",\"Stims/Figures/85-J-0-2.bmp\",\"fafa:va\",\"Right\",\"39\",\"2\",\"4\",\"8\",\"C1\",\"C\",\"28\"
\"\",\"\",\"approach-retreat\",\"177\",\"1228386\",\"0.0-177.0\",\"\",\"\",\"3-3\",\"4913\",\"40\",\"1\",\"Testing\",\"Stims/Figures/85-C-20-2.bmp\",\"va:shava\",\"Up\",\"40\",\"2\",\"5\",\"8\",\"C1\",\"C\",\"29\"
\"\",\"\",\"approach-retreat\",\"178\",\"1234751\",\"0.0-178.0\",\"\",\"\",\"3-3\",\"4855\",\"40\",\"0\",\"Testing\",\"Stims/Figures/19-J-10-4.bmp\",\"zasa:ha\",\"Up\",\"38\",\"2\",\"6\",\"8\",\"C2\",\"C\",\"30\"
\"\",\"\",\"approach-retreat\",\"179\",\"1240588\",\"0.0-179.0\",\"\",\"\",\"3-3\",\"4329\",\"40\",\"1\",\"Testing\",\"Stims/Figures/86-J-0-1.bmp\",\"vashasha\",\"Down\",\"40\",\"2\",\"7\",\"8\",\"C1\",\"C\",\"31\"
\"\",\"\",\"approach-retreat\",\"180\",\"1246925\",\"0.0-180.0\",\"\",\"\",\"3-3\",\"4823\",\"37\",\"1\",\"Testing\",\"Stims/Figures/57-J-0-1.bmp\",\"fa:fasha\",\"Left\",\"37\",\"2\",\"8\",\"8\",\"C1\",\"C\",\"32\"
\"\",\"\",\"approach-retreat\",\"181\",\"1252658\",\"0.0-181.0\",\"\",\"\",\"3-3\",\"4224\",\"38\",\"1\",\"Testing\",\"Stims/Figures/144-C-30-3.bmp\",\"sasa:za\",\"Down\",\"38\",\"2\",\"9\",\"8\",\"C2\",\"C\",\"33\"
\"\",\"\",\"approach-retreat\",\"182\",\"1260741\",\"0.0-182.0\",\"\",\"\",\"3-3\",\"6570\",\"40\",\"1\",\"Testing\",\"Stims/Figures/7-J-10-4.bmp\",\"sa:ha:ha\",\"Down\",\"40\",\"2\",\"10\",\"8\",\"C2\",\"C\",\"34\"
\"\",\"\",\"approach-retreat\",\"183\",\"1266863\",\"0.0-183.0\",\"\",\"\",\"3-3\",\"4610\",\"40\",\"1\",\"Testing\",\"Stims/Figures/27-J-0-1.bmp\",\"va:fa:va\",\"Down\",\"40\",\"2\",\"11\",\"8\",\"C1\",\"C\",\"35\"
\"\",\"\",\"approach-retreat\",\"184\",\"1272465\",\"0.0-184.0\",\"\",\"\",\"3-3\",\"4092\",\"37\",\"1\",\"Testing\",\"Stims/Figures/84-J-0-2.bmp\",\"va:fa:sha\",\"Left\",\"37\",\"2\",\"12\",\"8\",\"C1\",\"C\",\"36\"
\"\",\"\",\"approach-retreat\",\"185\",\"1278195\",\"0.0-185.0\",\"\",\"\",\"3-3\",\"4221\",\"37\",\"1\",\"Testing\",\"Stims/Figures/19-C-20-4.bmp\",\"zasaza\",\"Right\",\"37\",\"2\",\"13\",\"8\",\"C2\",\"C\",\"37\"
\"\",\"\",\"approach-retreat\",\"186\",\"1283836\",\"0.0-186.0\",\"\",\"\",\"3-3\",\"4128\",\"40\",\"1\",\"Testing\",\"Stims/Figures/94-C-20-2.bmp\",\"fa:shasha\",\"Up\",\"40\",\"2\",\"14\",\"8\",\"C1\",\"C\",\"38\"
\"\",\"\",\"approach-retreat\",\"187\",\"1290171\",\"0.0-187.0\",\"\",\"\",\"3-3\",\"4825\",\"40\",\"1\",\"Testing\",\"Stims/Figures/102-J-10-4.bmp\",\"zasa:za\",\"Down\",\"40\",\"2\",\"15\",\"8\",\"C2\",\"C\",\"39\"
\"\",\"\",\"approach-retreat\",\"188\",\"1295776\",\"0.0-188.0\",\"\",\"\",\"3-3\",\"4100\",\"37\",\"1\",\"Testing\",\"Stims/Figures/111-J-10-3.bmp\",\"saha:ha\",\"Left\",\"37\",\"2\",\"16\",\"8\",\"C2\",\"C\",\"40\"
\"\",\"\",\"approach-retreat\",\"189\",\"1301950\",\"0.0-189.0\",\"\",\"\",\"3-3\",\"4662\",\"40\",\"1\",\"Testing\",\"Stims/Figures/57-C-30-1.bmp\",\"vasha:sha\",\"Up\",\"40\",\"2\",\"17\",\"8\",\"C1\",\"C\",\"41\"
\"\",\"\",\"approach-retreat\",\"190\",\"1308147\",\"0.0-190.0\",\"\",\"\",\"3-3\",\"4683\",\"39\",\"1\",\"Testing\",\"Stims/Figures/44-J-10-3.bmp\",\"za:saza\",\"Right\",\"39\",\"2\",\"18\",\"8\",\"C2\",\"C\",\"42\"
\"\",\"\",\"approach-retreat\",\"191\",\"1313841\",\"0.0-191.0\",\"\",\"\",\"3-3\",\"4187\",\"37\",\"1\",\"Testing\",\"Stims/Figures/27-C-30-1.bmp\",\"vasha:va\",\"Right\",\"37\",\"2\",\"19\",\"8\",\"C1\",\"C\",\"43\"
\"\",\"\",\"approach-retreat\",\"192\",\"1319780\",\"0.0-192.0\",\"\",\"\",\"3-3\",\"4426\",\"39\",\"1\",\"Testing\",\"Stims/Figures/84-C-20-2.bmp\",\"fa:fava\",\"Left\",\"39\",\"2\",\"20\",\"8\",\"C1\",\"C\",\"44\"
\"\",\"\",\"approach-retreat\",\"193\",\"1325761\",\"0.0-193.0\",\"\",\"\",\"3-3\",\"4470\",\"40\",\"1\",\"Testing\",\"Stims/Figures/7-C-20-4.bmp\",\"zaha:za\",\"Up\",\"40\",\"2\",\"21\",\"8\",\"C2\",\"C\",\"45\"
\"\",\"\",\"approach-retreat\",\"194\",\"1331767\",\"0.0-194.0\",\"\",\"\",\"3-3\",\"4496\",\"39\",\"1\",\"Testing\",\"Stims/Figures/86-C-30-1.bmp\",\"vafasha\",\"Left\",\"39\",\"2\",\"22\",\"8\",\"C1\",\"C\",\"46\"
\"\",\"\",\"approach-retreat\",\"195\",\"1337631\",\"0.0-195.0\",\"\",\"\",\"3-3\",\"4352\",\"37\",\"1\",\"Testing\",\"Stims/Figures/102-C-20-4.bmp\",\"sahaza\",\"Right\",\"37\",\"2\",\"23\",\"8\",\"C2\",\"C\",\"47\"
\"\",\"\",\"approach-retreat\",\"196\",\"1343335\",\"0.0-196.0\",\"\",\"\",\"3-3\",\"4192\",\"37\",\"1\",\"Testing\",\"Stims/Figures/44-C-30-3.bmp\",\"za:ha:ha\",\"Right\",\"37\",\"2\",\"24\",\"8\",\"C2\",\"C\",\"48\"
\"\",\"\",\"approach-retreat\",\"197\",\"1349208\",\"0.0-197.0\",\"\",\"\",\"3-3\",\"4360\",\"39\",\"1\",\"Testing\",\"Stims/Figures/27-C-30-1.bmp\",\"vasha:va\",\"Left\",\"39\",\"3\",\"1\",\"8\",\"C1\",\"C\",\"49\"
\"\",\"\",\"approach-retreat\",\"198\",\"1355160\",\"0.0-198.0\",\"\",\"\",\"3-3\",\"4440\",\"39\",\"0\",\"Testing\",\"Stims/Figures/19-J-10-4.bmp\",\"zasa:ha\",\"Left\",\"37\",\"3\",\"2\",\"8\",\"C2\",\"C\",\"50\"
\"\",\"\",\"approach-retreat\",\"199\",\"1360776\",\"0.0-199.0\",\"\",\"\",\"3-3\",\"4102\",\"37\",\"1\",\"Testing\",\"Stims/Figures/86-J-0-1.bmp\",\"vashasha\",\"Left\",\"37\",\"3\",\"3\",\"8\",\"C1\",\"C\",\"51\"
\"\",\"\",\"approach-retreat\",\"200\",\"1366536\",\"0.0-200.0\",\"\",\"\",\"3-3\",\"4249\",\"38\",\"1\",\"Testing\",\"Stims/Figures/111-C-30-3.bmp\",\"za:haza\",\"Down\",\"38\",\"3\",\"4\",\"8\",\"C2\",\"C\",\"52\"
\"\",\"\",\"approach-retreat\",\"201\",\"1372180\",\"0.0-201.0\",\"\",\"\",\"3-3\",\"4132\",\"39\",\"1\",\"Testing\",\"Stims/Figures/94-C-20-2.bmp\",\"fa:shasha\",\"Left\",\"39\",\"3\",\"5\",\"8\",\"C1\",\"C\",\"53\"
\"\",\"\",\"approach-retreat\",\"202\",\"1377941\",\"0.0-202.0\",\"\",\"\",\"3-3\",\"4249\",\"39\",\"1\",\"Testing\",\"Stims/Figures/7-J-10-4.bmp\",\"sa:ha:ha\",\"Right\",\"39\",\"3\",\"6\",\"8\",\"C2\",\"C\",\"54\"
\"\",\"\",\"approach-retreat\",\"203\",\"1383647\",\"0.0-203.0\",\"\",\"\",\"3-3\",\"4197\",\"40\",\"1\",\"Testing\",\"Stims/Figures/84-C-20-2.bmp\",\"fa:fava\",\"Up\",\"40\",\"3\",\"7\",\"8\",\"C1\",\"C\",\"55\"
\"\",\"\",\"approach-retreat\",\"204\",\"1389530\",\"0.0-204.0\",\"\",\"\",\"3-3\",\"4372\",\"38\",\"1\",\"Testing\",\"Stims/Figures/19-C-20-4.bmp\",\"zasaza\",\"Down\",\"38\",\"3\",\"8\",\"8\",\"C2\",\"C\",\"56\"
\"\",\"\",\"approach-retreat\",\"205\",\"1395378\",\"0.0-205.0\",\"\",\"\",\"3-3\",\"4335\",\"40\",\"1\",\"Testing\",\"Stims/Figures/44-C-30-3.bmp\",\"za:ha:ha\",\"Up\",\"40\",\"3\",\"9\",\"8\",\"C2\",\"C\",\"57\"
\"\",\"\",\"approach-retreat\",\"206\",\"1401297\",\"0.0-206.0\",\"\",\"\",\"3-3\",\"4407\",\"38\",\"1\",\"Testing\",\"Stims/Figures/86-C-30-1.bmp\",\"vafasha\",\"Down\",\"38\",\"3\",\"10\",\"8\",\"C1\",\"C\",\"58\"
\"\",\"\",\"approach-retreat\",\"207\",\"1407067\",\"0.0-207.0\",\"\",\"\",\"3-3\",\"4258\",\"39\",\"1\",\"Testing\",\"Stims/Figures/57-J-0-1.bmp\",\"fa:fasha\",\"Right\",\"39\",\"3\",\"11\",\"8\",\"C1\",\"C\",\"59\"
\"\",\"\",\"approach-retreat\",\"208\",\"1412694\",\"0.0-208.0\",\"\",\"\",\"3-3\",\"4116\",\"39\",\"1\",\"Testing\",\"Stims/Figures/44-J-10-3.bmp\",\"za:saza\",\"Right\",\"39\",\"3\",\"12\",\"8\",\"C2\",\"C\",\"60\"
\"\",\"\",\"approach-retreat\",\"209\",\"1418435\",\"0.0-209.0\",\"\",\"\",\"3-3\",\"4229\",\"38\",\"1\",\"Testing\",\"Stims/Figures/84-J-0-2.bmp\",\"va:fa:sha\",\"Up\",\"38\",\"3\",\"13\",\"8\",\"C1\",\"C\",\"61\"
\"\",\"\",\"approach-retreat\",\"210\",\"1424133\",\"0.0-210.0\",\"\",\"\",\"3-3\",\"4187\",\"38\",\"1\",\"Testing\",\"Stims/Figures/27-J-0-1.bmp\",\"va:fa:va\",\"Up\",\"38\",\"3\",\"14\",\"8\",\"C1\",\"C\",\"62\"
\"\",\"\",\"approach-retreat\",\"211\",\"1430011\",\"0.0-211.0\",\"\",\"\",\"3-3\",\"4367\",\"40\",\"1\",\"Testing\",\"Stims/Figures/85-J-0-2.bmp\",\"fafa:va\",\"Down\",\"40\",\"3\",\"15\",\"8\",\"C1\",\"C\",\"63\"
\"\",\"\",\"approach-retreat\",\"212\",\"1436250\",\"0.0-212.0\",\"\",\"\",\"3-3\",\"4727\",\"38\",\"0\",\"Testing\",\"Stims/Figures/85-C-20-2.bmp\",\"va:shava\",\"Up\",\"40\",\"3\",\"16\",\"8\",\"C1\",\"C\",\"64\"
\"\",\"\",\"approach-retreat\",\"213\",\"1441946\",\"0.0-213.0\",\"\",\"\",\"3-3\",\"4184\",\"39\",\"1\",\"Testing\",\"Stims/Figures/102-C-20-4.bmp\",\"sahaza\",\"Left\",\"39\",\"3\",\"17\",\"8\",\"C2\",\"C\",\"65\"
\"\",\"\",\"approach-retreat\",\"214\",\"1447651\",\"0.0-214.0\",\"\",\"\",\"3-3\",\"4196\",\"39\",\"1\",\"Testing\",\"Stims/Figures/7-C-20-4.bmp\",\"zaha:za\",\"Left\",\"39\",\"3\",\"18\",\"8\",\"C2\",\"C\",\"66\"
\"\",\"\",\"approach-retreat\",\"215\",\"1453376\",\"0.0-215.0\",\"\",\"\",\"3-3\",\"4215\",\"40\",\"1\",\"Testing\",\"Stims/Figures/144-C-30-3.bmp\",\"sasa:za\",\"Up\",\"40\",\"3\",\"19\",\"8\",\"C2\",\"C\",\"67\"
\"\",\"\",\"approach-retreat\",\"216\",\"1459637\",\"0.0-216.0\",\"\",\"\",\"3-3\",\"4749\",\"37\",\"1\",\"Testing\",\"Stims/Figures/57-C-30-1.bmp\",\"vasha:sha\",\"Right\",\"37\",\"3\",\"20\",\"8\",\"C1\",\"C\",\"68\"
\"\",\"\",\"approach-retreat\",\"217\",\"1465517\",\"0.0-217.0\",\"\",\"\",\"3-3\",\"4369\",\"40\",\"1\",\"Testing\",\"Stims/Figures/102-J-10-4.bmp\",\"zasa:za\",\"Down\",\"40\",\"3\",\"21\",\"8\",\"C2\",\"C\",\"69\"
\"\",\"\",\"approach-retreat\",\"218\",\"1471531\",\"0.0-218.0\",\"\",\"\",\"3-3\",\"4503\",\"39\",\"1\",\"Testing\",\"Stims/Figures/94-J-0-2.bmp\",\"fasha:va\",\"Right\",\"39\",\"3\",\"22\",\"8\",\"C1\",\"C\",\"70\"
\"\",\"\",\"approach-retreat\",\"219\",\"1477461\",\"0.0-219.0\",\"\",\"\",\"3-3\",\"4418\",\"40\",\"1\",\"Testing\",\"Stims/Figures/144-J-10-3.bmp\",\"za:sa:za\",\"Down\",\"40\",\"3\",\"23\",\"8\",\"C2\",\"C\",\"71\"
\"\",\"\",\"approach-retreat\",\"220\",\"1483045\",\"0.0-220.0\",\"\",\"\",\"3-3\",\"4074\",\"39\",\"1\",\"Testing\",\"Stims/Figures/111-J-10-3.bmp\",\"saha:ha\",\"Right\",\"39\",\"3\",\"24\",\"8\",\"C2\",\"C\",\"72\"
\"\",\"\",\"approach-retreat\",\"221\",\"1488795\",\"0.0-221.0\",\"\",\"\",\"3-3\",\"4237\",\"37\",\"1\",\"Testing\",\"Stims/Figures/85-J-0-2.bmp\",\"fafa:va\",\"Left\",\"37\",\"4\",\"1\",\"8\",\"C1\",\"C\",\"73\"
\"\",\"\",\"approach-retreat\",\"222\",\"1494942\",\"0.0-222.0\",\"\",\"\",\"3-3\",\"4634\",\"37\",\"1\",\"Testing\",\"Stims/Figures/85-C-20-2.bmp\",\"va:shava\",\"Right\",\"37\",\"4\",\"2\",\"8\",\"C1\",\"C\",\"74\"
\"\",\"\",\"approach-retreat\",\"223\",\"1500618\",\"0.0-223.0\",\"\",\"\",\"3-3\",\"4166\",\"40\",\"0\",\"Testing\",\"Stims/Figures/144-J-10-3.bmp\",\"za:sa:za\",\"Up\",\"38\",\"4\",\"3\",\"8\",\"C2\",\"C\",\"75\"
\"\",\"\",\"approach-retreat\",\"224\",\"1509027\",\"0.0-224.0\",\"\",\"\",\"3-3\",\"6898\",\"39\",\"0\",\"Testing\",\"Stims/Figures/19-J-10-4.bmp\",\"zasa:ha\",\"Left\",\"37\",\"4\",\"4\",\"8\",\"C2\",\"C\",\"76\"
\"\",\"\",\"approach-retreat\",\"225\",\"1514911\",\"0.0-225.0\",\"\",\"\",\"3-3\",\"4373\",\"37\",\"1\",\"Testing\",\"Stims/Figures/102-C-20-4.bmp\",\"sahaza\",\"Right\",\"37\",\"4\",\"5\",\"8\",\"C2\",\"C\",\"77\"
\"\",\"\",\"approach-retreat\",\"226\",\"1520540\",\"0.0-226.0\",\"\",\"\",\"3-3\",\"4118\",\"38\",\"1\",\"Testing\",\"Stims/Figures/111-C-30-3.bmp\",\"za:haza\",\"Down\",\"38\",\"4\",\"6\",\"8\",\"C2\",\"C\",\"78\"
\"\",\"\",\"approach-retreat\",\"227\",\"1526128\",\"0.0-227.0\",\"\",\"\",\"3-3\",\"4079\",\"37\",\"1\",\"Testing\",\"Stims/Figures/84-J-0-2.bmp\",\"va:fa:sha\",\"Left\",\"37\",\"4\",\"7\",\"8\",\"C1\",\"C\",\"79\"
\"\",\"\",\"approach-retreat\",\"228\",\"1531795\",\"0.0-228.0\",\"\",\"\",\"3-3\",\"4155\",\"38\",\"1\",\"Testing\",\"Stims/Figures/111-J-10-3.bmp\",\"saha:ha\",\"Up\",\"38\",\"4\",\"8\",\"8\",\"C2\",\"C\",\"80\"
\"\",\"\",\"approach-retreat\",\"229\",\"1537620\",\"0.0-229.0\",\"\",\"\",\"3-3\",\"4314\",\"40\",\"1\",\"Testing\",\"Stims/Figures/7-J-10-4.bmp\",\"sa:ha:ha\",\"Down\",\"40\",\"4\",\"9\",\"8\",\"C2\",\"C\",\"81\"
\"\",\"\",\"approach-retreat\",\"230\",\"1543197\",\"0.0-230.0\",\"\",\"\",\"3-3\",\"4066\",\"39\",\"1\",\"Testing\",\"Stims/Figures/86-C-30-1.bmp\",\"vafasha\",\"Left\",\"39\",\"4\",\"10\",\"8\",\"C1\",\"C\",\"82\"
\"\",\"\",\"approach-retreat\",\"231\",\"1548827\",\"0.0-231.0\",\"\",\"\",\"3-3\",\"4111\",\"38\",\"1\",\"Testing\",\"Stims/Figures/84-C-20-2.bmp\",\"fa:fava\",\"Down\",\"38\",\"4\",\"11\",\"8\",\"C1\",\"C\",\"83\"
\"\",\"\",\"approach-retreat\",\"232\",\"1554393\",\"0.0-232.0\",\"\",\"\",\"3-3\",\"4056\",\"40\",\"1\",\"Testing\",\"Stims/Figures/44-C-30-3.bmp\",\"za:ha:ha\",\"Up\",\"40\",\"4\",\"12\",\"8\",\"C2\",\"C\",\"84\"
\"\",\"\",\"approach-retreat\",\"233\",\"1560066\",\"0.0-233.0\",\"\",\"\",\"3-3\",\"4160\",\"40\",\"1\",\"Testing\",\"Stims/Figures/57-C-30-1.bmp\",\"vasha:sha\",\"Up\",\"40\",\"4\",\"13\",\"8\",\"C1\",\"C\",\"85\"
\"\",\"\",\"approach-retreat\",\"234\",\"1565865\",\"0.0-234.0\",\"\",\"\",\"3-3\",\"4288\",\"40\",\"1\",\"Testing\",\"Stims/Figures/94-J-0-2.bmp\",\"fasha:va\",\"Down\",\"40\",\"4\",\"14\",\"8\",\"C1\",\"C\",\"86\"
\"\",\"\",\"approach-retreat\",\"235\",\"1571501\",\"0.0-235.0\",\"\",\"\",\"3-3\",\"4126\",\"37\",\"1\",\"Testing\",\"Stims/Figures/94-C-20-2.bmp\",\"fa:shasha\",\"Right\",\"37\",\"4\",\"15\",\"8\",\"C1\",\"C\",\"87\"
\"\",\"\",\"approach-retreat\",\"236\",\"1577639\",\"0.0-236.0\",\"\",\"\",\"3-3\",\"4628\",\"39\",\"1\",\"Testing\",\"Stims/Figures/27-J-0-1.bmp\",\"va:fa:va\",\"Right\",\"39\",\"4\",\"16\",\"8\",\"C1\",\"C\",\"88\"
\"\",\"\",\"approach-retreat\",\"237\",\"1583315\",\"0.0-237.0\",\"\",\"\",\"3-3\",\"4161\",\"40\",\"1\",\"Testing\",\"Stims/Figures/19-C-20-4.bmp\",\"zasaza\",\"Up\",\"40\",\"4\",\"17\",\"8\",\"C2\",\"C\",\"89\"
\"\",\"\",\"approach-retreat\",\"238\",\"1589087\",\"0.0-238.0\",\"\",\"\",\"3-3\",\"4260\",\"39\",\"1\",\"Testing\",\"Stims/Figures/102-J-10-4.bmp\",\"zasa:za\",\"Right\",\"39\",\"4\",\"18\",\"8\",\"C2\",\"C\",\"90\"
\"\",\"\",\"approach-retreat\",\"239\",\"1595018\",\"0.0-239.0\",\"\",\"\",\"3-3\",\"4419\",\"38\",\"1\",\"Testing\",\"Stims/Figures/27-C-30-1.bmp\",\"vasha:va\",\"Down\",\"38\",\"4\",\"19\",\"8\",\"C1\",\"C\",\"91\"
\"\",\"\",\"approach-retreat\",\"240\",\"1600661\",\"0.0-240.0\",\"\",\"\",\"3-3\",\"4131\",\"40\",\"1\",\"Testing\",\"Stims/Figures/7-C-20-4.bmp\",\"zaha:za\",\"Up\",\"40\",\"4\",\"20\",\"8\",\"C2\",\"C\",\"92\"
\"\",\"\",\"approach-retreat\",\"241\",\"1606151\",\"0.0-241.0\",\"\",\"\",\"3-3\",\"3980\",\"37\",\"1\",\"Testing\",\"Stims/Figures/86-J-0-1.bmp\",\"vashasha\",\"Left\",\"37\",\"4\",\"21\",\"8\",\"C1\",\"C\",\"93\"
\"\",\"\",\"approach-retreat\",\"242\",\"1611828\",\"0.0-242.0\",\"\",\"\",\"3-3\",\"4166\",\"40\",\"1\",\"Testing\",\"Stims/Figures/57-J-0-1.bmp\",\"fa:fasha\",\"Down\",\"40\",\"4\",\"22\",\"8\",\"C1\",\"C\",\"94\"
\"\",\"\",\"approach-retreat\",\"243\",\"1617422\",\"0.0-243.0\",\"\",\"\",\"3-3\",\"4083\",\"37\",\"1\",\"Testing\",\"Stims/Figures/44-J-10-3.bmp\",\"za:saza\",\"Left\",\"37\",\"4\",\"23\",\"8\",\"C2\",\"C\",\"95\"
\"\",\"\",\"approach-retreat\",\"244\",\"1622950\",\"0.0-244.0\",\"\",\"\",\"3-3\",\"4020\",\"37\",\"1\",\"Testing\",\"Stims/Figures/144-C-30-3.bmp\",\"sasa:za\",\"Right\",\"37\",\"4\",\"24\",\"8\",\"C2\",\"C\",\"96\"
\"26906\",\"\",\"survey-text\",\"245\",\"1649862\",\"0.0-245.0\",\"\",\"{\"\"Q0\"\":\"\"PS160085\"\"}\",\"\",\"\",\"\",\"\",\"\",\"\",\"\",\"\",\"\",\"\",\"\",\"\",\"\",\"\",\"\"
