"rt","key_press","trial_type","trial_index","time_elapsed","internal_node_id","view_history","responses","Id","Rt","ResKeyCode","ResCorr","TrialType2","Image","Label","Location","CorrectResponse","Block","BlockTrial","Condition","LabelType","Subcondition","trialNum"
"4064","32","text","0","4078","0.0-0.0-0.0","","","","","","","","","","","","","","","","",""
"61451","","instructions","1","65534","0.0-1.0","[{""page_index"":0,""viewing_time"":61450}]","","","","","","","","","","","","","","","",""
"8798","","survey-multi-choice","2","74378","0.0-2.0","","{""Q0"":""Da"",""Q1"":""Da"",""Q2"":""Da"",""Q3"":""Da"",""Q4"":""Da"",""Q5"":""Da""}","","","","","","","","","","","","","","",""
"","","bio","3","80121","0.0-3.0","","{""age"":""19"",""gender"":""f"",""specify"":""""}","","","","","","","","","","","","","","",""
"","","approach-retreat","4","106921","0.0-4.0","","","2-1","25283","40","1","Training","Stims/Figures/19-C-20-4.bmp","na:ma:la","Down","40","1","1","7","S","J","1"
"","","approach-retreat","5","116655","0.0-5.0","","","2-1","8212","40","1","Training","Stims/Figures/100-J-10-3.bmp","malana","Up","40","1","2","7","S","J","2"
"","","approach-retreat","6","124888","0.0-6.0","","","2-1","6720","39","1","Training","Stims/Figures/57-C-30-1.bmp","pa:kaka","Right","39","1","3","7","P","J","3"
"","","approach-retreat","7","131404","0.0-7.0","","","2-1","5007","37","1","Training","Stims/Figures/86-C-30-1.bmp","ta:kaka","Left","37","1","4","7","P","J","4"
"","","approach-retreat","8","139296","0.0-8.0","","","2-1","6366","38","1","Training","Stims/Figures/86-J-0-1.bmp","taka:ta","Down","38","1","5","7","P","J","5"
"","","approach-retreat","9","146861","0.0-9.0","","","2-1","6053","37","0","Training","Stims/Figures/19-J-10-4.bmp","mala:la","Left","39","1","6","7","S","J","6"
"","","approach-retreat","10","153588","0.0-10.0","","","2-1","5210","38","1","Training","Stims/Figures/118-C-20-2.bmp","tapaka","Up","38","1","7","7","P","J","7"
"","","approach-retreat","11","159906","0.0-11.0","","","2-1","4800","40","0","Training","Stims/Figures/100-C-30-3.bmp","namana","Up","38","1","8","7","S","J","8"
"","","approach-retreat","12","166647","0.0-12.0","","","2-1","5224","40","1","Training","Stims/Figures/111-C-30-3.bmp","nala:la","Down","40","1","9","7","S","J","9"
"","","approach-retreat","13","176173","0.0-13.0","","","2-1","8015","38","0","Training","Stims/Figures/118-J-0-2.bmp","tapa:ka","Up","40","1","10","7","P","J","10"
"","","approach-retreat","14","183976","0.0-14.0","","","2-1","6291","39","0","Training","Stims/Figures/102-C-20-4.bmp","namala","Left","37","1","11","7","S","J","11"
"","","approach-retreat","15","194569","0.0-15.0","","","2-1","9080","40","0","Training","Stims/Figures/57-J-0-1.bmp","ta:pa:ta","Down","38","1","12","7","P","J","12"
"","","approach-retreat","16","227804","0.0-16.0","","","2-1","31713","37","0","Training","Stims/Figures/102-J-10-4.bmp","ma:ma:na","Left","39","1","13","7","S","J","13"
"","","approach-retreat","17","236016","0.0-17.0","","","2-1","6699","37","1","Training","Stims/Figures/84-J-0-2.bmp","pa:pa:ka","Right","37","1","14","7","P","J","14"
"","","approach-retreat","18","244474","0.0-18.0","","","2-1","6936","37","1","Training","Stims/Figures/111-J-10-3.bmp","na:mana","Right","37","1","15","7","S","J","15"
"","","approach-retreat","19","253561","0.0-19.0","","","2-1","7570","37","0","Training","Stims/Figures/84-C-20-2.bmp","ta:pa:ka","Right","39","1","16","7","P","J","16"
"","","approach-retreat","20","260627","0.0-20.0","","","2-1","5555","40","1","Training","Stims/Figures/86-C-30-1.bmp","ta:kaka","Down","40","2","1","7","P","J","17"
"","","approach-retreat","21","266889","0.0-21.0","","","2-1","4743","37","0","Training","Stims/Figures/102-C-20-4.bmp","namala","Right","39","2","2","7","S","J","18"
"","","approach-retreat","22","275965","0.0-22.0","","","2-1","7560","37","1","Training","Stims/Figures/19-J-10-4.bmp","mala:la","Right","37","2","3","7","S","J","19"
"","","approach-retreat","23","284537","0.0-23.0","","","2-1","7053","40","0","Training","Stims/Figures/100-C-30-3.bmp","namana","Up","38","2","4","7","S","J","20"
"","","approach-retreat","24","293372","0.0-24.0","","","2-1","7325","37","0","Training","Stims/Figures/19-C-20-4.bmp","na:ma:la","Right","39","2","5","7","S","J","21"
"","","approach-retreat","25","299758","0.0-25.0","","","2-1","4872","40","1","Training","Stims/Figures/100-J-10-3.bmp","malana","Up","40","2","6","7","S","J","22"
"","","approach-retreat","26","306213","0.0-26.0","","","2-1","4937","38","1","Training","Stims/Figures/84-J-0-2.bmp","pa:pa:ka","Down","38","2","7","7","P","J","23"
"","","approach-retreat","27","312812","0.0-27.0","","","2-1","5083","40","1","Training","Stims/Figures/84-C-20-2.bmp","ta:pa:ka","Down","40","2","8","7","P","J","24"
"","","approach-retreat","28","331407","0.0-28.0","","","2-1","17074","37","0","Training","Stims/Figures/102-J-10-4.bmp","ma:ma:na","Left","39","2","9","7","S","J","25"
"","","approach-retreat","29","339865","0.0-29.0","","","2-1","6943","38","0","Training","Stims/Figures/118-J-0-2.bmp","tapa:ka","Up","40","2","10","7","P","J","26"
"","","approach-retreat","30","346154","0.0-30.0","","","2-1","4770","37","1","Training","Stims/Figures/86-J-0-1.bmp","taka:ta","Right","37","2","11","7","P","J","27"
"","","approach-retreat","31","353533","0.0-31.0","","","2-1","5863","37","1","Training","Stims/Figures/57-C-30-1.bmp","pa:kaka","Left","37","2","12","7","P","J","28"
"","","approach-retreat","32","362448","0.0-32.0","","","2-1","7402","37","1","Training","Stims/Figures/118-C-20-2.bmp","tapaka","Left","37","2","13","7","P","J","29"
"","","approach-retreat","33","370805","0.0-33.0","","","2-1","6847","38","0","Training","Stims/Figures/111-J-10-3.bmp","na:mana","Up","40","2","14","7","S","J","30"
"","","approach-retreat","34","377146","0.0-34.0","","","2-1","4829","37","1","Training","Stims/Figures/111-C-30-3.bmp","nala:la","Left","37","2","15","7","S","J","31"
"","","approach-retreat","35","384059","0.0-35.0","","","2-1","5393","38","1","Training","Stims/Figures/57-J-0-1.bmp","ta:pa:ta","Down","38","2","16","7","P","J","32"
"","","approach-retreat","36","391332","0.0-36.0","","","2-1","5760","40","1","Training","Stims/Figures/100-C-30-3.bmp","namana","Down","40","3","1","7","S","J","33"
"","","approach-retreat","37","402545","0.0-37.0","","","2-1","9701","37","1","Training","Stims/Figures/118-J-0-2.bmp","tapa:ka","Right","37","3","2","7","P","J","34"
"","","approach-retreat","38","409186","0.0-38.0","","","2-1","5122","38","1","Training","Stims/Figures/84-C-20-2.bmp","ta:pa:ka","Up","38","3","3","7","P","J","35"
"","","approach-retreat","39","415820","0.0-39.0","","","2-1","5122","39","1","Training","Stims/Figures/86-J-0-1.bmp","taka:ta","Left","39","3","4","7","P","J","36"
"","","approach-retreat","40","423603","0.0-40.0","","","2-1","6260","38","1","Training","Stims/Figures/86-C-30-1.bmp","ta:kaka","Up","38","3","5","7","P","J","37"
"","","approach-retreat","41","436496","0.0-41.0","","","2-1","11376","39","1","Training","Stims/Figures/111-C-30-3.bmp","nala:la","Right","39","3","6","7","S","J","38"
"","","approach-retreat","42","444480","0.0-42.0","","","2-1","6466","38","1","Training","Stims/Figures/102-J-10-4.bmp","ma:ma:na","Down","38","3","7","7","S","J","39"
"","","approach-retreat","43","450165","0.0-43.0","","","2-1","4170","38","1","Training","Stims/Figures/111-J-10-3.bmp","na:mana","Down","38","3","8","7","S","J","40"
"","","approach-retreat","44","456329","0.0-44.0","","","2-1","4651","39","0","Training","Stims/Figures/19-C-20-4.bmp","na:ma:la","Left","37","3","9","7","S","J","41"
"","","approach-retreat","45","461985","0.0-45.0","","","2-1","4140","40","1","Training","Stims/Figures/57-C-30-1.bmp","pa:kaka","Down","40","3","10","7","P","J","42"
"","","approach-retreat","46","467686","0.0-46.0","","","2-1","4187","39","0","Training","Stims/Figures/102-C-20-4.bmp","namala","Left","37","3","11","7","S","J","43"
"","","approach-retreat","47","474813","0.0-47.0","","","2-1","5608","39","1","Training","Stims/Figures/57-J-0-1.bmp","ta:pa:ta","Left","39","3","12","7","P","J","44"
"","","approach-retreat","48","483016","0.0-48.0","","","2-1","6695","39","0","Training","Stims/Figures/19-J-10-4.bmp","mala:la","Right","37","3","13","7","S","J","45"
"","","approach-retreat","49","490684","0.0-49.0","","","2-1","6149","38","0","Training","Stims/Figures/100-J-10-3.bmp","malana","Up","40","3","14","7","S","J","46"
"","","approach-retreat","50","497802","0.0-50.0","","","2-1","5603","40","1","Training","Stims/Figures/84-J-0-2.bmp","pa:pa:ka","Up","40","3","15","7","P","J","47"
"","","approach-retreat","51","504208","0.0-51.0","","","2-1","4885","39","1","Training","Stims/Figures/118-C-20-2.bmp","tapaka","Right","39","3","16","7","P","J","48"
"","","approach-retreat","52","513186","0.0-52.0","","","2-1","7459","40","1","Training","Stims/Figures/84-J-0-2.bmp","pa:pa:ka","Up","40","4","1","7","P","J","49"
"","","approach-retreat","53","522937","0.0-53.0","","","2-1","8230","39","1","Training","Stims/Figures/86-J-0-1.bmp","taka:ta","Left","39","4","2","7","P","J","50"
"","","approach-retreat","54","532310","0.0-54.0","","","2-1","7853","39","1","Training","Stims/Figures/84-C-20-2.bmp","ta:pa:ka","Right","39","4","3","7","P","J","51"
"","","approach-retreat","55","539932","0.0-55.0","","","2-1","6113","37","0","Training","Stims/Figures/102-C-20-4.bmp","namala","Right","39","4","4","7","S","J","52"
"","","approach-retreat","56","546804","0.0-56.0","","","2-1","5348","40","1","Training","Stims/Figures/19-C-20-4.bmp","na:ma:la","Down","40","4","5","7","S","J","53"
"","","approach-retreat","57","555711","0.0-57.0","","","2-1","7387","40","1","Training","Stims/Figures/111-J-10-3.bmp","na:mana","Up","40","4","6","7","S","J","54"
"","","approach-retreat","58","563465","0.0-58.0","","","2-1","6235","39","1","Training","Stims/Figures/86-C-30-1.bmp","ta:kaka","Right","39","4","7","7","P","J","55"
"","","approach-retreat","59","571763","0.0-59.0","","","2-1","6778","40","1","Training","Stims/Figures/19-J-10-4.bmp","mala:la","Up","40","4","8","7","S","J","56"
"","","approach-retreat","60","578051","0.0-60.0","","","2-1","4779","38","1","Training","Stims/Figures/102-J-10-4.bmp","ma:ma:na","Down","38","4","9","7","S","J","57"
"","","approach-retreat","61","584461","0.0-61.0","","","2-1","4890","40","1","Training","Stims/Figures/111-C-30-3.bmp","nala:la","Down","40","4","10","7","S","J","58"
"","","approach-retreat","62","590577","0.0-62.0","","","2-1","4598","39","1","Training","Stims/Figures/118-J-0-2.bmp","tapa:ka","Left","39","4","11","7","P","J","59"
"","","approach-retreat","63","596609","0.0-63.0","","","2-1","4514","37","1","Training","Stims/Figures/100-C-30-3.bmp","namana","Left","37","4","12","7","S","J","60"
"","","approach-retreat","64","603968","0.0-64.0","","","2-1","5839","40","0","Training","Stims/Figures/118-C-20-2.bmp","tapaka","Up","38","4","13","7","P","J","61"
"","","approach-retreat","65","610884","0.0-65.0","","","2-1","5397","39","1","Training","Stims/Figures/57-C-30-1.bmp","pa:kaka","Right","39","4","14","7","P","J","62"
"","","approach-retreat","66","617340","0.0-66.0","","","2-1","4935","39","1","Training","Stims/Figures/57-J-0-1.bmp","ta:pa:ta","Left","39","4","15","7","P","J","63"
"","","approach-retreat","67","625276","0.0-67.0","","","2-1","6416","38","1","Training","Stims/Figures/100-J-10-3.bmp","malana","Down","38","4","16","7","S","J","64"
"","","approach-retreat","68","633965","0.0-68.0","","","2-1","7172","39","0","Training","Stims/Figures/102-C-20-4.bmp","namala","Left","37","5","1","7","S","J","65"
"","","approach-retreat","69","640308","0.0-69.0","","","2-1","4824","38","1","Training","Stims/Figures/118-J-0-2.bmp","tapa:ka","Down","38","5","2","7","P","J","66"
"","","approach-retreat","70","646717","0.0-70.0","","","2-1","4889","39","1","Training","Stims/Figures/84-C-20-2.bmp","ta:pa:ka","Right","39","5","3","7","P","J","67"
"","","approach-retreat","71","655989","0.0-71.0","","","2-1","7753","38","1","Training","Stims/Figures/57-J-0-1.bmp","ta:pa:ta","Down","38","5","4","7","P","J","68"
"","","approach-retreat","72","667209","0.0-72.0","","","2-1","9701","37","1","Training","Stims/Figures/100-C-30-3.bmp","namana","Left","37","5","5","7","S","J","69"
"","","approach-retreat","73","673522","0.0-73.0","","","2-1","4789","40","1","Training","Stims/Figures/100-J-10-3.bmp","malana","Up","40","5","6","7","S","J","70"
"","","approach-retreat","74","682268","0.0-74.0","","","2-1","7229","39","1","Training","Stims/Figures/57-C-30-1.bmp","pa:kaka","Right","39","5","7","7","P","J","71"
"","","approach-retreat","75","691366","0.0-75.0","","","2-1","7585","40","1","Training","Stims/Figures/84-J-0-2.bmp","pa:pa:ka","Up","40","5","8","7","P","J","72"
"","","approach-retreat","76","697794","0.0-76.0","","","2-1","4909","38","1","Training","Stims/Figures/111-J-10-3.bmp","na:mana","Down","38","5","9","7","S","J","73"
"","","approach-retreat","77","704406","0.0-77.0","","","2-1","5091","39","1","Training","Stims/Figures/86-C-30-1.bmp","ta:kaka","Right","39","5","10","7","P","J","74"
"","","approach-retreat","78","711591","0.0-78.0","","","2-1","5665","38","1","Training","Stims/Figures/111-C-30-3.bmp","nala:la","Up","38","5","11","7","S","J","75"
"","","approach-retreat","79","718464","0.0-79.0","","","2-1","5354","38","1","Training","Stims/Figures/86-J-0-1.bmp","taka:ta","Down","38","5","12","7","P","J","76"
"","","approach-retreat","80","724855","0.0-80.0","","","2-1","4868","39","1","Training","Stims/Figures/19-J-10-4.bmp","mala:la","Left","39","5","13","7","S","J","77"
"","","approach-retreat","81","731960","0.0-81.0","","","2-1","5586","39","1","Training","Stims/Figures/19-C-20-4.bmp","na:ma:la","Right","39","5","14","7","S","J","78"
"","","approach-retreat","82","738792","0.0-82.0","","","2-1","5313","37","1","Training","Stims/Figures/118-C-20-2.bmp","tapaka","Left","37","5","15","7","P","J","79"
"","","approach-retreat","83","744987","0.0-83.0","","","2-1","4676","40","1","Training","Stims/Figures/102-J-10-4.bmp","ma:ma:na","Up","40","5","16","7","S","J","80"
"","","approach-retreat","84","751249","0.0-84.0","","","2-1","4740","37","1","Training","Stims/Figures/111-C-30-3.bmp","nala:la","Left","37","6","1","7","S","J","81"
"","","approach-retreat","85","757985","0.0-85.0","","","2-1","5216","40","1","Training","Stims/Figures/86-J-0-1.bmp","taka:ta","Up","40","6","2","7","P","J","82"
"","","approach-retreat","86","764278","0.0-86.0","","","2-1","4773","39","1","Training","Stims/Figures/102-C-20-4.bmp","namala","Right","39","6","3","7","S","J","83"
"","","approach-retreat","87","771940","0.0-87.0","","","2-1","6144","37","1","Training","Stims/Figures/19-J-10-4.bmp","mala:la","Right","37","6","4","7","S","J","84"
"","","approach-retreat","88","778178","0.0-88.0","","","2-1","4719","37","1","Training","Stims/Figures/118-C-20-2.bmp","tapaka","Left","37","6","5","7","P","J","85"
"","","approach-retreat","89","784301","0.0-89.0","","","2-1","4604","40","1","Training","Stims/Figures/57-J-0-1.bmp","ta:pa:ta","Up","40","6","6","7","P","J","86"
"","","approach-retreat","90","791399","0.0-90.0","","","2-1","5577","38","1","Training","Stims/Figures/111-J-10-3.bmp","na:mana","Down","38","6","7","7","S","J","87"
"","","approach-retreat","91","798867","0.0-91.0","","","2-1","5950","40","1","Training","Stims/Figures/86-C-30-1.bmp","ta:kaka","Down","40","6","8","7","P","J","88"
"","","approach-retreat","92","807254","0.0-92.0","","","2-1","6863","40","1","Training","Stims/Figures/100-C-30-3.bmp","namana","Down","40","6","9","7","S","J","89"
"","","approach-retreat","93","816718","0.0-93.0","","","2-1","7944","39","1","Training","Stims/Figures/100-J-10-3.bmp","malana","Left","39","6","10","7","S","J","90"
"","","approach-retreat","94","824990","0.0-94.0","","","2-1","6762","40","1","Training","Stims/Figures/102-J-10-4.bmp","ma:ma:na","Up","40","6","11","7","S","J","91"
"","","approach-retreat","95","832954","0.0-95.0","","","2-1","6446","37","0","Training","Stims/Figures/84-C-20-2.bmp","ta:pa:ka","Right","39","6","12","7","P","J","92"
"","","approach-retreat","96","839153","0.0-96.0","","","2-1","4680","38","1","Training","Stims/Figures/84-J-0-2.bmp","pa:pa:ka","Down","38","6","13","7","P","J","93"
"","","approach-retreat","97","846095","0.0-97.0","","","2-1","5416","38","1","Training","Stims/Figures/19-C-20-4.bmp","na:ma:la","Up","38","6","14","7","S","J","94"
"","","approach-retreat","98","852891","0.0-98.0","","","2-1","5279","37","1","Training","Stims/Figures/57-C-30-1.bmp","pa:kaka","Left","37","6","15","7","P","J","95"
"","","approach-retreat","99","859176","0.0-99.0","","","2-1","4767","37","1","Training","Stims/Figures/118-J-0-2.bmp","tapa:ka","Right","37","6","16","7","P","J","96"
"","","approach-retreat","100","866086","0.0-100.0","","","2-1","5401","40","0","Training","Stims/Figures/19-J-10-4.bmp","mala:la","Down","38","7","1","7","S","J","97"
"","","approach-retreat","101","872261","0.0-101.0","","","2-1","4657","37","1","Training","Stims/Figures/84-C-20-2.bmp","ta:pa:ka","Left","37","7","2","7","P","J","98"
"","","approach-retreat","102","878982","0.0-102.0","","","2-1","5201","39","1","Training","Stims/Figures/100-J-10-3.bmp","malana","Left","39","7","3","7","S","J","99"
"","","approach-retreat","103","885412","0.0-103.0","","","2-1","4921","38","1","Training","Stims/Figures/100-C-30-3.bmp","namana","Up","38","7","4","7","S","J","100"
"","","approach-retreat","104","891554","0.0-104.0","","","2-1","4623","38","1","Training","Stims/Figures/102-J-10-4.bmp","ma:ma:na","Down","38","7","5","7","S","J","101"
"","","approach-retreat","105","899335","0.0-105.0","","","2-1","6264","39","1","Training","Stims/Figures/102-C-20-4.bmp","namala","Right","39","7","6","7","S","J","102"
"","","approach-retreat","106","905456","0.0-106.0","","","2-1","4601","39","1","Training","Stims/Figures/84-J-0-2.bmp","pa:pa:ka","Left","39","7","7","7","P","J","103"
"","","approach-retreat","107","911784","0.0-107.0","","","2-1","4805","40","1","Training","Stims/Figures/57-C-30-1.bmp","pa:kaka","Down","40","7","8","7","P","J","104"
"","","approach-retreat","108","923463","0.0-108.0","","","2-1","10155","37","1","Training","Stims/Figures/111-C-30-3.bmp","nala:la","Left","37","7","9","7","S","J","105"
"","","approach-retreat","109","932612","0.0-109.0","","","2-1","7628","39","1","Training","Stims/Figures/118-C-20-2.bmp","tapaka","Right","39","7","10","7","P","J","106"
"","","approach-retreat","110","938829","0.0-110.0","","","2-1","4697","40","1","Training","Stims/Figures/111-J-10-3.bmp","na:mana","Up","40","7","11","7","S","J","107"
"","","approach-retreat","111","945516","0.0-111.0","","","2-1","5161","38","1","Training","Stims/Figures/86-C-30-1.bmp","ta:kaka","Up","38","7","12","7","P","J","108"
"","","approach-retreat","112","953205","0.0-112.0","","","2-1","6171","37","1","Training","Stims/Figures/86-J-0-1.bmp","taka:ta","Right","37","7","13","7","P","J","109"
"","","approach-retreat","113","959536","0.0-113.0","","","2-1","4805","40","1","Training","Stims/Figures/57-J-0-1.bmp","ta:pa:ta","Up","40","7","14","7","P","J","110"
"","","approach-retreat","114","966446","0.0-114.0","","","2-1","5390","40","1","Training","Stims/Figures/19-C-20-4.bmp","na:ma:la","Down","40","7","15","7","S","J","111"
"","","approach-retreat","115","974118","0.0-115.0","","","2-1","6152","37","1","Training","Stims/Figures/118-J-0-2.bmp","tapa:ka","Right","37","7","16","7","P","J","112"
"","","approach-retreat","116","981456","0.0-116.0","","","2-1","5819","37","1","Training","Stims/Figures/86-C-30-1.bmp","ta:kaka","Left","37","8","1","7","P","J","113"
"","","approach-retreat","117","992344","0.0-117.0","","","2-1","9364","38","1","Training","Stims/Figures/100-C-30-3.bmp","namana","Up","38","8","2","7","S","J","114"
"","","approach-retreat","118","998894","0.0-118.0","","","2-1","5033","39","1","Training","Stims/Figures/86-J-0-1.bmp","taka:ta","Left","39","8","3","7","P","J","115"
"","","approach-retreat","119","1006860","0.0-119.0","","","2-1","6447","40","0","Training","Stims/Figures/102-J-10-4.bmp","ma:ma:na","Down","38","8","4","7","S","J","116"
"","","approach-retreat","120","1012880","0.0-120.0","","","2-1","4504","39","1","Training","Stims/Figures/111-J-10-3.bmp","na:mana","Left","39","8","5","7","S","J","117"
"","","approach-retreat","121","1019390","0.0-121.0","","","2-1","4991","40","1","Training","Stims/Figures/111-C-30-3.bmp","nala:la","Down","40","8","6","7","S","J","118"
"","","approach-retreat","122","1025868","0.0-122.0","","","2-1","4958","38","1","Training","Stims/Figures/102-C-20-4.bmp","namala","Up","38","8","7","7","S","J","119"
"","","approach-retreat","123","1032981","0.0-123.0","","","2-1","5591","37","1","Training","Stims/Figures/19-J-10-4.bmp","mala:la","Right","37","8","8","7","S","J","120"
"","","approach-retreat","124","1041724","0.0-124.0","","","2-1","7223","40","1","Training","Stims/Figures/84-J-0-2.bmp","pa:pa:ka","Up","40","8","9","7","P","J","121"
"","","approach-retreat","125","1048096","0.0-125.0","","","2-1","4853","38","1","Training","Stims/Figures/118-C-20-2.bmp","tapaka","Up","38","8","10","7","P","J","122"
"","","approach-retreat","126","1054647","0.0-126.0","","","2-1","5035","40","1","Training","Stims/Figures/84-C-20-2.bmp","ta:pa:ka","Down","40","8","11","7","P","J","123"
"","","approach-retreat","127","1062967","0.0-127.0","","","2-1","6801","39","1","Training","Stims/Figures/19-C-20-4.bmp","na:ma:la","Right","39","8","12","7","S","J","124"
"","","approach-retreat","128","1069038","0.0-128.0","","","2-1","4552","37","1","Training","Stims/Figures/100-J-10-3.bmp","malana","Right","37","8","13","7","S","J","125"
"","","approach-retreat","129","1075905","0.0-129.0","","","2-1","5346","38","1","Training","Stims/Figures/57-J-0-1.bmp","ta:pa:ta","Down","38","8","14","7","P","J","126"
"","","approach-retreat","130","1084173","0.0-130.0","","","2-1","6731","39","1","Training","Stims/Figures/118-J-0-2.bmp","tapa:ka","Left","39","8","15","7","P","J","127"
"","","approach-retreat","131","1091011","0.0-131.0","","","2-1","5326","39","1","Training","Stims/Figures/57-C-30-1.bmp","pa:kaka","Right","39","8","16","7","P","J","128"
"","","approach-retreat","132","1096917","0.0-132.0","","","2-1","4386","37","1","Training","Stims/Figures/100-J-10-3.bmp","malana","Right","37","9","1","7","S","J","129"
"","","approach-retreat","133","1102850","0.0-133.0","","","2-1","4413","37","1","Training","Stims/Figures/118-J-0-2.bmp","tapa:ka","Right","37","9","2","7","P","J","130"
"","","approach-retreat","134","1114533","0.0-134.0","","","2-1","10163","38","1","Training","Stims/Figures/57-C-30-1.bmp","pa:kaka","Up","38","9","3","7","P","J","131"
"","","approach-retreat","135","1120897","0.0-135.0","","","2-1","4843","40","1","Training","Stims/Figures/111-C-30-3.bmp","nala:la","Down","40","9","4","7","S","J","132"
"","","approach-retreat","136","1131772","0.0-136.0","","","2-1","9354","37","1","Training","Stims/Figures/84-J-0-2.bmp","pa:pa:ka","Right","37","9","5","7","P","J","133"
"","","approach-retreat","137","1140614","0.0-137.0","","","2-1","7321","40","1","Training","Stims/Figures/118-C-20-2.bmp","tapaka","Down","40","9","6","7","P","J","134"
"","","approach-retreat","138","1147225","0.0-138.0","","","2-1","5092","37","1","Training","Stims/Figures/86-C-30-1.bmp","ta:kaka","Left","37","9","7","7","P","J","135"
"","","approach-retreat","139","1156132","0.0-139.0","","","2-1","7386","40","1","Training","Stims/Figures/57-J-0-1.bmp","ta:pa:ta","Up","40","9","8","7","P","J","136"
"","","approach-retreat","140","1163685","0.0-140.0","","","2-1","6032","40","1","Training","Stims/Figures/84-C-20-2.bmp","ta:pa:ka","Down","40","9","9","7","P","J","137"
"","","approach-retreat","141","1169826","0.0-141.0","","","2-1","4620","39","1","Training","Stims/Figures/19-J-10-4.bmp","mala:la","Left","39","9","10","7","S","J","138"
"","","approach-retreat","142","1178663","0.0-142.0","","","2-1","7314","39","1","Training","Stims/Figures/100-C-30-3.bmp","namana","Right","39","9","11","7","S","J","139"
"","","approach-retreat","143","1184889","0.0-143.0","","","2-1","4709","40","1","Training","Stims/Figures/102-J-10-4.bmp","ma:ma:na","Up","40","9","12","7","S","J","140"
"","","approach-retreat","144","1191266","0.0-144.0","","","2-1","4855","37","1","Training","Stims/Figures/19-C-20-4.bmp","na:ma:la","Left","37","9","13","7","S","J","141"
"","","approach-retreat","145","1199722","0.0-145.0","","","2-1","6937","38","1","Training","Stims/Figures/86-J-0-1.bmp","taka:ta","Down","38","9","14","7","P","J","142"
"","","approach-retreat","146","1218049","0.0-146.0","","","2-1","16806","37","1","Training","Stims/Figures/102-C-20-4.bmp","namala","Left","37","9","15","7","S","J","143"
"","","approach-retreat","147","1225210","0.0-147.0","","","2-1","5642","40","1","Training","Stims/Figures/111-J-10-3.bmp","na:mana","Up","40","9","16","7","S","J","144"
"42515","","instructions","148","1267727","0.0-148.0","[{""page_index"":0,""viewing_time"":42515}]","","","","","","","","","","","","","","","",""
"","","approach-retreat","149","1278025","0.0-149.0","","","2-1","8785","38","1","Testing","Stims/Figures/74-J-10-4.bmp","ma:lala","Down","38","1","1","7","S","J","1"
"","","approach-retreat","150","1284727","0.0-150.0","","","2-1","5187","40","1","Testing","Stims/Figures/84-J-0-2.bmp","pa:pa:ka","Up","40","1","2","7","P","J","2"
"","","approach-retreat","151","1292080","0.0-151.0","","","2-1","5839","39","1","Testing","Stims/Figures/44-J-10-3.bmp","malala","Left","39","1","3","7","S","J","3"
"","","approach-retreat","152","1298333","0.0-152.0","","","2-1","4738","38","1","Testing","Stims/Figures/118-J-0-2.bmp","tapa:ka","Down","38","1","4","7","P","J","4"
"","","approach-retreat","153","1307730","0.0-153.0","","","2-1","7881","38","1","Testing","Stims/Figures/102-C-20-4.bmp","namala","Up","38","1","5","7","S","J","5"
"","","approach-retreat","154","1314336","0.0-154.0","","","2-1","5092","37","1","Testing","Stims/Figures/74-C-20-4.bmp","ma:ma:la","Left","37","1","6","7","S","J","6"
"","","approach-retreat","155","1320952","0.0-155.0","","","2-1","5099","38","1","Testing","Stims/Figures/86-J-0-1.bmp","taka:ta","Down","38","1","7","7","P","J","7"
"","","approach-retreat","156","1327342","0.0-156.0","","","2-1","4876","40","1","Testing","Stims/Figures/139-J-0-2.bmp","tapata","Up","40","1","8","7","P","J","8"
"","","approach-retreat","157","1333633","0.0-157.0","","","2-1","4776","39","1","Testing","Stims/Figures/44-C-30-3.bmp","mama:la","Right","39","1","9","7","S","J","9"
"","","approach-retreat","158","1340472","0.0-158.0","","","2-1","5322","39","1","Testing","Stims/Figures/93-C-30-1.bmp","pa:ka:ta","Right","39","1","10","7","P","J","10"
"","","approach-retreat","159","1347103","0.0-159.0","","","2-1","5116","39","1","Testing","Stims/Figures/139-C-20-2.bmp","takata","Right","39","1","11","7","P","J","11"
"","","approach-retreat","160","1354210","0.0-160.0","","","2-1","5568","39","1","Testing","Stims/Figures/93-J-0-1.bmp","paka:ka","Left","39","1","12","7","P","J","12"
"","","approach-retreat","161","1360472","0.0-161.0","","","2-1","4723","39","1","Testing","Stims/Figures/84-C-20-2.bmp","ta:pa:ka","Right","39","1","13","7","P","J","13"
"","","approach-retreat","162","1374477","0.0-162.0","","","2-1","12489","39","1","Testing","Stims/Figures/102-J-10-4.bmp","ma:ma:na","Left","39","1","14","7","S","J","14"
"","","approach-retreat","163","1380803","0.0-163.0","","","2-1","4812","38","1","Testing","Stims/Figures/111-J-10-3.bmp","na:mana","Down","38","1","15","7","S","J","15"
"","","approach-retreat","164","1388052","0.0-164.0","","","2-1","5733","37","1","Testing","Stims/Figures/57-J-0-1.bmp","ta:pa:ta","Right","37","1","16","7","P","J","16"
"","","approach-retreat","165","1394205","0.0-165.0","","","2-1","4633","37","1","Testing","Stims/Figures/19-J-10-4.bmp","mala:la","Right","37","1","17","7","S","J","17"
"","","approach-retreat","166","1400700","0.0-166.0","","","2-1","4978","38","1","Testing","Stims/Figures/86-C-30-1.bmp","ta:kaka","Up","38","1","18","7","P","J","18"
"","","approach-retreat","167","1412548","0.0-167.0","","","2-1","10328","37","1","Testing","Stims/Figures/100-C-30-3.bmp","namana","Left","37","1","19","7","S","J","19"
"","","approach-retreat","168","1418919","0.0-168.0","","","2-1","4855","37","1","Testing","Stims/Figures/19-C-20-4.bmp","na:ma:la","Left","37","1","20","7","S","J","20"
"","","approach-retreat","169","1426449","0.0-169.0","","","2-1","6014","38","1","Testing","Stims/Figures/118-C-20-2.bmp","tapaka","Up","38","1","21","7","P","J","21"
"","","approach-retreat","170","1432734","0.0-170.0","","","2-1","4777","40","1","Testing","Stims/Figures/57-C-30-1.bmp","pa:kaka","Down","40","1","22","7","P","J","22"
"","","approach-retreat","171","1439100","0.0-171.0","","","2-1","4854","38","1","Testing","Stims/Figures/111-C-30-3.bmp","nala:la","Up","38","1","23","7","S","J","23"
"","","approach-retreat","172","1445585","0.0-172.0","","","2-1","4969","38","1","Testing","Stims/Figures/100-J-10-3.bmp","malana","Down","38","1","24","7","S","J","24"
"","","approach-retreat","173","1452093","0.0-173.0","","","2-1","4992","38","1","Testing","Stims/Figures/118-J-0-2.bmp","tapa:ka","Down","38","2","1","7","P","J","25"
"","","approach-retreat","174","1459169","0.0-174.0","","","2-1","5560","39","1","Testing","Stims/Figures/102-J-10-4.bmp","ma:ma:na","Left","39","2","2","7","S","J","26"
"","","approach-retreat","175","1465323","0.0-175.0","","","2-1","4647","39","1","Testing","Stims/Figures/84-J-0-2.bmp","pa:pa:ka","Left","39","2","3","7","P","J","27"
"","","approach-retreat","176","1471755","0.0-176.0","","","2-1","4916","38","1","Testing","Stims/Figures/44-C-30-3.bmp","mama:la","Up","38","2","4","7","S","J","28"
"","","approach-retreat","177","1477971","0.0-177.0","","","2-1","4698","38","1","Testing","Stims/Figures/93-C-30-1.bmp","pa:ka:ta","Up","38","2","5","7","P","J","29"
"","","approach-retreat","178","1484066","0.0-178.0","","","2-1","4582","39","1","Testing","Stims/Figures/57-J-0-1.bmp","ta:pa:ta","Left","39","2","6","7","P","J","30"
"","","approach-retreat","179","1490343","0.0-179.0","","","2-1","4763","39","1","Testing","Stims/Figures/93-J-0-1.bmp","paka:ka","Left","39","2","7","7","P","J","31"
"","","approach-retreat","180","1496682","0.0-180.0","","","2-1","4826","38","1","Testing","Stims/Figures/44-J-10-3.bmp","malala","Down","38","2","8","7","S","J","32"
"","","approach-retreat","181","1502873","0.0-181.0","","","2-1","4676","39","1","Testing","Stims/Figures/111-C-30-3.bmp","nala:la","Right","39","2","9","7","S","J","33"
"","","approach-retreat","182","1510627","0.0-182.0","","","2-1","6237","40","1","Testing","Stims/Figures/102-C-20-4.bmp","namala","Down","40","2","10","7","S","J","34"
"","","approach-retreat","183","1517462","0.0-183.0","","","2-1","5322","37","1","Testing","Stims/Figures/74-C-20-4.bmp","ma:ma:la","Left","37","2","11","7","S","J","35"
"","","approach-retreat","184","1529735","0.0-184.0","","","2-1","10758","38","1","Testing","Stims/Figures/19-J-10-4.bmp","mala:la","Down","38","2","12","7","S","J","36"
"","","approach-retreat","185","1536302","0.0-185.0","","","2-1","5053","38","1","Testing","Stims/Figures/57-C-30-1.bmp","pa:kaka","Up","38","2","13","7","P","J","37"
"","","approach-retreat","186","1542725","0.0-186.0","","","2-1","4909","37","1","Testing","Stims/Figures/111-J-10-3.bmp","na:mana","Right","37","2","14","7","S","J","38"
"","","approach-retreat","187","1552593","0.0-187.0","","","2-1","8348","38","1","Testing","Stims/Figures/74-J-10-4.bmp","ma:lala","Down","38","2","15","7","S","J","39"
"","","approach-retreat","188","1558522","0.0-188.0","","","2-1","4415","40","1","Testing","Stims/Figures/139-J-0-2.bmp","tapata","Up","40","2","16","7","P","J","40"
"","","approach-retreat","189","1568543","0.0-189.0","","","2-1","8506","37","1","Testing","Stims/Figures/100-C-30-3.bmp","namana","Left","37","2","17","7","S","J","41"
"","","approach-retreat","190","1575556","0.0-190.0","","","2-1","5497","39","1","Testing","Stims/Figures/139-C-20-2.bmp","takata","Right","39","2","18","7","P","J","42"
"","","approach-retreat","191","1581975","0.0-191.0","","","2-1","4903","39","1","Testing","Stims/Figures/19-C-20-4.bmp","na:ma:la","Right","39","2","19","7","S","J","43"
"","","approach-retreat","192","1588441","0.0-192.0","","","2-1","4952","37","1","Testing","Stims/Figures/100-J-10-3.bmp","malana","Right","37","2","20","7","S","J","44"
"","","approach-retreat","193","1595383","0.0-193.0","","","2-1","5426","40","1","Testing","Stims/Figures/86-J-0-1.bmp","taka:ta","Up","40","2","21","7","P","J","45"
"","","approach-retreat","194","1602094","0.0-194.0","","","2-1","5195","38","1","Testing","Stims/Figures/86-C-30-1.bmp","ta:kaka","Up","38","2","22","7","P","J","46"
"","","approach-retreat","195","1608944","0.0-195.0","","","2-1","5336","38","0","Testing","Stims/Figures/118-C-20-2.bmp","tapaka","Down","40","2","23","7","P","J","47"
"","","approach-retreat","196","1615250","0.0-196.0","","","2-1","4792","39","1","Testing","Stims/Figures/84-C-20-2.bmp","ta:pa:ka","Right","39","2","24","7","P","J","48"
"","","approach-retreat","197","1621590","0.0-197.0","","","2-1","4826","39","1","Testing","Stims/Figures/100-J-10-3.bmp","malana","Left","39","3","1","7","S","J","49"
"","","approach-retreat","198","1630425","0.0-198.0","","","2-1","7321","39","1","Testing","Stims/Figures/19-J-10-4.bmp","mala:la","Left","39","3","2","7","S","J","50"
"","","approach-retreat","199","1636761","0.0-199.0","","","2-1","4822","37","1","Testing","Stims/Figures/93-J-0-1.bmp","paka:ka","Right","37","3","3","7","P","J","51"
"","","approach-retreat","200","1644977","0.0-200.0","","","2-1","6700","38","1","Testing","Stims/Figures/102-J-10-4.bmp","ma:ma:na","Down","38","3","4","7","S","J","52"
"","","approach-retreat","201","1651112","0.0-201.0","","","2-1","4621","38","1","Testing","Stims/Figures/84-J-0-2.bmp","pa:pa:ka","Down","38","3","5","7","P","J","53"
"","","approach-retreat","202","1658022","0.0-202.0","","","2-1","5392","39","1","Testing","Stims/Figures/57-C-30-1.bmp","pa:kaka","Right","39","3","6","7","P","J","54"
"","","approach-retreat","203","1664594","0.0-203.0","","","2-1","5054","37","1","Testing","Stims/Figures/44-C-30-3.bmp","mama:la","Left","37","3","7","7","S","J","55"
"","","approach-retreat","204","1673184","0.0-204.0","","","2-1","7075","40","1","Testing","Stims/Figures/57-J-0-1.bmp","ta:pa:ta","Up","40","3","8","7","P","J","56"
"","","approach-retreat","205","1681414","0.0-205.0","","","2-1","6714","39","1","Testing","Stims/Figures/111-C-30-3.bmp","nala:la","Right","39","3","9","7","S","J","57"
"","","approach-retreat","206","1687908","0.0-206.0","","","2-1","4980","39","1","Testing","Stims/Figures/86-C-30-1.bmp","ta:kaka","Right","39","3","10","7","P","J","58"
"","","approach-retreat","207","1695895","0.0-207.0","","","2-1","6470","40","0","Testing","Stims/Figures/100-C-30-3.bmp","namana","Up","38","3","11","7","S","J","59"
"","","approach-retreat","208","1702661","0.0-208.0","","","2-1","5249","40","1","Testing","Stims/Figures/139-J-0-2.bmp","tapata","Up","40","3","12","7","P","J","60"
"","","approach-retreat","209","1709311","0.0-209.0","","","2-1","5136","38","1","Testing","Stims/Figures/111-J-10-3.bmp","na:mana","Down","38","3","13","7","S","J","61"
"","","approach-retreat","210","1717196","0.0-210.0","","","2-1","6370","40","0","Testing","Stims/Figures/118-C-20-2.bmp","tapaka","Up","38","3","14","7","P","J","62"
"","","approach-retreat","211","1728110","0.0-211.0","","","2-1","9400","40","1","Testing","Stims/Figures/44-J-10-3.bmp","malala","Up","40","3","15","7","S","J","63"
"","","approach-retreat","212","1734221","0.0-212.0","","","2-1","4598","37","1","Testing","Stims/Figures/19-C-20-4.bmp","na:ma:la","Left","37","3","16","7","S","J","64"
"","","approach-retreat","213","1742366","0.0-213.0","","","2-1","6629","38","1","Testing","Stims/Figures/139-C-20-2.bmp","takata","Up","38","3","17","7","P","J","65"
"","","approach-retreat","214","1749183","0.0-214.0","","","2-1","5302","40","1","Testing","Stims/Figures/102-C-20-4.bmp","namala","Down","40","3","18","7","S","J","66"
"","","approach-retreat","215","1756532","0.0-215.0","","","2-1","5834","39","1","Testing","Stims/Figures/74-C-20-4.bmp","ma:ma:la","Right","39","3","19","7","S","J","67"
"","","approach-retreat","216","1764133","0.0-216.0","","","2-1","6083","40","1","Testing","Stims/Figures/84-C-20-2.bmp","ta:pa:ka","Down","40","3","20","7","P","J","68"
"","","approach-retreat","217","1774828","0.0-217.0","","","2-1","9181","40","1","Testing","Stims/Figures/93-C-30-1.bmp","pa:ka:ta","Down","40","3","21","7","P","J","69"
"","","approach-retreat","218","1780971","0.0-218.0","","","2-1","4628","39","1","Testing","Stims/Figures/86-J-0-1.bmp","taka:ta","Left","39","3","22","7","P","J","70"
"","","approach-retreat","219","1787807","0.0-219.0","","","2-1","5317","37","1","Testing","Stims/Figures/74-J-10-4.bmp","ma:lala","Right","37","3","23","7","S","J","71"
"","","approach-retreat","220","1794711","0.0-220.0","","","2-1","5389","39","1","Testing","Stims/Figures/118-J-0-2.bmp","tapa:ka","Left","39","3","24","7","P","J","72"
"","","approach-retreat","221","1801105","0.0-221.0","","","2-1","4880","37","1","Testing","Stims/Figures/93-J-0-1.bmp","paka:ka","Right","37","4","1","7","P","J","73"
"","","approach-retreat","222","1808686","0.0-222.0","","","2-1","6063","40","1","Testing","Stims/Figures/19-J-10-4.bmp","mala:la","Up","40","4","2","7","S","J","74"
"","","approach-retreat","223","1816054","0.0-223.0","","","2-1","5853","38","1","Testing","Stims/Figures/84-J-0-2.bmp","pa:pa:ka","Down","38","4","3","7","P","J","75"
"","","approach-retreat","224","1822807","0.0-224.0","","","2-1","5236","39","1","Testing","Stims/Figures/74-C-20-4.bmp","ma:ma:la","Right","39","4","4","7","S","J","76"
"","","approach-retreat","225","1829656","0.0-225.0","","","2-1","5336","40","1","Testing","Stims/Figures/86-C-30-1.bmp","ta:kaka","Down","40","4","5","7","P","J","77"
"","","approach-retreat","226","1836138","0.0-226.0","","","2-1","4967","38","1","Testing","Stims/Figures/139-C-20-2.bmp","takata","Up","38","4","6","7","P","J","78"
"","","approach-retreat","227","1842886","0.0-227.0","","","2-1","5233","37","1","Testing","Stims/Figures/19-C-20-4.bmp","na:ma:la","Left","37","4","7","7","S","J","79"
"","","approach-retreat","228","1849265","0.0-228.0","","","2-1","4852","40","1","Testing","Stims/Figures/84-C-20-2.bmp","ta:pa:ka","Down","40","4","8","7","P","J","80"
"","","approach-retreat","229","1855407","0.0-229.0","","","2-1","4635","39","1","Testing","Stims/Figures/102-J-10-4.bmp","ma:ma:na","Left","39","4","9","7","S","J","81"
"","","approach-retreat","230","1862093","0.0-230.0","","","2-1","5170","40","1","Testing","Stims/Figures/86-J-0-1.bmp","taka:ta","Up","40","4","10","7","P","J","82"
"","","approach-retreat","231","1868797","0.0-231.0","","","2-1","5188","39","1","Testing","Stims/Figures/44-C-30-3.bmp","mama:la","Right","39","4","11","7","S","J","83"
"","","approach-retreat","232","1875030","0.0-232.0","","","2-1","4719","39","1","Testing","Stims/Figures/57-J-0-1.bmp","ta:pa:ta","Left","39","4","12","7","P","J","84"
"","","approach-retreat","233","1881352","0.0-233.0","","","2-1","4806","39","1","Testing","Stims/Figures/57-C-30-1.bmp","pa:kaka","Right","39","4","13","7","P","J","85"
"","","approach-retreat","234","1889609","0.0-234.0","","","2-1","6740","40","1","Testing","Stims/Figures/74-J-10-4.bmp","ma:lala","Up","40","4","14","7","S","J","86"
"","","approach-retreat","235","1897852","0.0-235.0","","","2-1","6729","40","1","Testing","Stims/Figures/100-C-30-3.bmp","namana","Down","40","4","15","7","S","J","87"
"","","approach-retreat","236","1904140","0.0-236.0","","","2-1","4771","39","1","Testing","Stims/Figures/111-J-10-3.bmp","na:mana","Left","39","4","16","7","S","J","88"
"","","approach-retreat","237","1910723","0.0-237.0","","","2-1","5066","37","1","Testing","Stims/Figures/118-J-0-2.bmp","tapa:ka","Right","37","4","17","7","P","J","89"
"","","approach-retreat","238","1917718","0.0-238.0","","","2-1","5472","40","1","Testing","Stims/Figures/44-J-10-3.bmp","malala","Up","40","4","18","7","S","J","90"
"","","approach-retreat","239","1923864","0.0-239.0","","","2-1","4627","39","1","Testing","Stims/Figures/100-J-10-3.bmp","malana","Left","39","4","19","7","S","J","91"
"","","approach-retreat","240","1930405","0.0-240.0","","","2-1","5033","38","1","Testing","Stims/Figures/139-J-0-2.bmp","tapata","Down","38","4","20","7","P","J","92"
"","","approach-retreat","241","1937346","0.0-241.0","","","2-1","5427","37","1","Testing","Stims/Figures/102-C-20-4.bmp","namala","Left","37","4","21","7","S","J","93"
"","","approach-retreat","242","1943672","0.0-242.0","","","2-1","4810","39","1","Testing","Stims/Figures/118-C-20-2.bmp","tapaka","Right","39","4","22","7","P","J","94"
"","","approach-retreat","243","1954186","0.0-243.0","","","2-1","8948","38","1","Testing","Stims/Figures/111-C-30-3.bmp","nala:la","Up","38","4","23","7","S","J","95"
"","","approach-retreat","244","1960537","0.0-244.0","","","2-1","4831","40","1","Testing","Stims/Figures/93-C-30-1.bmp","pa:ka:ta","Down","40","4","24","7","P","J","96"
"36512","","survey-text","245","1997061","0.0-245.0","","{""Q0"":""1011/2018""}","","","","","","","","","","","","","","",""
