\"rt\",\"key_press\",\"trial_type\",\"trial_index\",\"time_elapsed\",\"internal_node_id\",\"view_history\",\"responses\",\"Id\",\"Rt\",\"ResKeyCode\",\"ResCorr\",\"TrialType2\",\"Image\",\"Label\",\"Location\",\"CorrectResponse\",\"Block\",\"BlockTrial\",\"Condition\",\"LabelType\",\"Subcondition\",\"trialNum\"
\"7206\",\"32\",\"text\",\"0\",\"7209\",\"0.0-0.0-0.0\",\"\",\"\",\"\",\"\",\"\",\"\",\"\",\"\",\"\",\"\",\"\",\"\",\"\",\"\",\"\",\"\",\"\"
\"71789\",\"\",\"instructions\",\"1\",\"79000\",\"0.0-1.0\",\"[{\"\"page_index\"\":0,\"\"viewing_time\"\":71788}]\",\"\",\"\",\"\",\"\",\"\",\"\",\"\",\"\",\"\",\"\",\"\",\"\",\"\",\"\",\"\",\"\"
\"38234\",\"\",\"survey-multi-choice\",\"2\",\"117275\",\"0.0-2.0\",\"\",\"{\"\"Q0\"\":\"\"Da\"\",\"\"Q1\"\":\"\"Da\"\",\"\"Q2\"\":\"\"Da\"\",\"\"Q3\"\":\"\"Da\"\",\"\"Q4\"\":\"\"Da\"\",\"\"Q5\"\":\"\"Da\"\"}\",\"\",\"\",\"\",\"\",\"\",\"\",\"\",\"\",\"\",\"\",\"\",\"\",\"\",\"\",\"\"
\"\",\"\",\"bio\",\"3\",\"122347\",\"0.0-3.0\",\"\",\"{\"\"age\"\":\"\"20\"\",\"\"gender\"\":\"\"m\"\",\"\"specify\"\":\"\"\"\"}\",\"\",\"\",\"\",\"\",\"\",\"\",\"\",\"\",\"\",\"\",\"\",\"\",\"\",\"\",\"\"
\"\",\"\",\"approach-retreat\",\"4\",\"131277\",\"0.0-4.0\",\"\",\"\",\"3-5\",\"7424\",\"39\",\"1\",\"Training\",\"Stims/Figures/139-J-0-2.bmp\",\"None\",\"Right\",\"39\",\"1\",\"1\",\"10\",\"N\",\"C\",\"1\"
\"\",\"\",\"approach-retreat\",\"5\",\"137699\",\"0.0-5.0\",\"\",\"\",\"3-5\",\"4913\",\"39\",\"1\",\"Training\",\"Stims/Figures/100-C-30-3.bmp\",\"None\",\"Left\",\"39\",\"1\",\"2\",\"10\",\"N\",\"C\",\"2\"
\"\",\"\",\"approach-retreat\",\"6\",\"144291\",\"0.0-6.0\",\"\",\"\",\"3-5\",\"5083\",\"38\",\"1\",\"Training\",\"Stims/Figures/57-J-0-1.bmp\",\"None\",\"Up\",\"38\",\"1\",\"3\",\"10\",\"N\",\"C\",\"3\"
\"\",\"\",\"approach-retreat\",\"7\",\"149938\",\"0.0-7.0\",\"\",\"\",\"3-5\",\"4141\",\"39\",\"0\",\"Training\",\"Stims/Figures/100-J-10-3.bmp\",\"None\",\"Left\",\"37\",\"1\",\"4\",\"10\",\"N\",\"C\",\"4\"
\"\",\"\",\"approach-retreat\",\"8\",\"157482\",\"0.0-8.0\",\"\",\"\",\"3-5\",\"6037\",\"37\",\"1\",\"Training\",\"Stims/Figures/102-J-10-4.bmp\",\"None\",\"Left\",\"37\",\"1\",\"5\",\"10\",\"N\",\"C\",\"5\"
\"\",\"\",\"approach-retreat\",\"9\",\"163556\",\"0.0-9.0\",\"\",\"\",\"3-5\",\"4565\",\"37\",\"0\",\"Training\",\"Stims/Figures/44-J-10-3.bmp\",\"None\",\"Right\",\"39\",\"1\",\"6\",\"10\",\"N\",\"C\",\"6\"
\"\",\"\",\"approach-retreat\",\"10\",\"172649\",\"0.0-10.0\",\"\",\"\",\"3-5\",\"7585\",\"38\",\"0\",\"Training\",\"Stims/Figures/44-C-30-3.bmp\",\"None\",\"Up\",\"40\",\"1\",\"7\",\"10\",\"N\",\"C\",\"7\"
\"\",\"\",\"approach-retreat\",\"11\",\"179814\",\"0.0-11.0\",\"\",\"\",\"3-5\",\"5657\",\"40\",\"0\",\"Training\",\"Stims/Figures/57-C-30-1.bmp\",\"None\",\"Down\",\"38\",\"1\",\"8\",\"10\",\"N\",\"C\",\"8\"
\"\",\"\",\"approach-retreat\",\"12\",\"186315\",\"0.0-12.0\",\"\",\"\",\"3-5\",\"4993\",\"37\",\"0\",\"Training\",\"Stims/Figures/87-J-10-4.bmp\",\"None\",\"Right\",\"39\",\"1\",\"9\",\"10\",\"N\",\"C\",\"9\"
\"\",\"\",\"approach-retreat\",\"13\",\"192660\",\"0.0-13.0\",\"\",\"\",\"3-5\",\"4836\",\"37\",\"1\",\"Training\",\"Stims/Figures/87-C-20-4.bmp\",\"None\",\"Right\",\"37\",\"1\",\"10\",\"10\",\"N\",\"C\",\"10\"
\"\",\"\",\"approach-retreat\",\"14\",\"198683\",\"0.0-14.0\",\"\",\"\",\"3-5\",\"4514\",\"37\",\"0\",\"Training\",\"Stims/Figures/27-C-30-1.bmp\",\"None\",\"Left\",\"39\",\"1\",\"11\",\"10\",\"N\",\"C\",\"11\"
\"\",\"\",\"approach-retreat\",\"15\",\"204771\",\"0.0-15.0\",\"\",\"\",\"3-5\",\"4581\",\"38\",\"1\",\"Training\",\"Stims/Figures/102-C-20-4.bmp\",\"None\",\"Down\",\"38\",\"1\",\"12\",\"10\",\"N\",\"C\",\"12\"
\"\",\"\",\"approach-retreat\",\"16\",\"210852\",\"0.0-16.0\",\"\",\"\",\"3-5\",\"4572\",\"38\",\"0\",\"Training\",\"Stims/Figures/139-C-20-2.bmp\",\"None\",\"Up\",\"40\",\"1\",\"13\",\"10\",\"N\",\"C\",\"13\"
\"\",\"\",\"approach-retreat\",\"17\",\"217627\",\"0.0-17.0\",\"\",\"\",\"3-5\",\"5268\",\"40\",\"1\",\"Training\",\"Stims/Figures/84-J-0-2.bmp\",\"None\",\"Down\",\"40\",\"1\",\"14\",\"10\",\"N\",\"C\",\"14\"
\"\",\"\",\"approach-retreat\",\"18\",\"223995\",\"0.0-18.0\",\"\",\"\",\"3-5\",\"4863\",\"38\",\"0\",\"Training\",\"Stims/Figures/27-J-0-1.bmp\",\"None\",\"Down\",\"40\",\"1\",\"15\",\"10\",\"N\",\"C\",\"15\"
\"\",\"\",\"approach-retreat\",\"19\",\"231395\",\"0.0-19.0\",\"\",\"\",\"3-5\",\"5896\",\"40\",\"1\",\"Training\",\"Stims/Figures/84-C-20-2.bmp\",\"None\",\"Up\",\"40\",\"1\",\"16\",\"10\",\"N\",\"C\",\"16\"
\"\",\"\",\"approach-retreat\",\"20\",\"238514\",\"0.0-20.0\",\"\",\"\",\"3-5\",\"5612\",\"37\",\"0\",\"Training\",\"Stims/Figures/102-J-10-4.bmp\",\"None\",\"Right\",\"39\",\"2\",\"1\",\"10\",\"N\",\"C\",\"17\"
\"\",\"\",\"approach-retreat\",\"21\",\"244597\",\"0.0-21.0\",\"\",\"\",\"3-5\",\"4575\",\"40\",\"1\",\"Training\",\"Stims/Figures/84-C-20-2.bmp\",\"None\",\"Up\",\"40\",\"2\",\"2\",\"10\",\"N\",\"C\",\"18\"
\"\",\"\",\"approach-retreat\",\"22\",\"251707\",\"0.0-22.0\",\"\",\"\",\"3-5\",\"5603\",\"39\",\"0\",\"Training\",\"Stims/Figures/44-C-30-3.bmp\",\"None\",\"Right\",\"37\",\"2\",\"3\",\"10\",\"N\",\"C\",\"19\"
\"\",\"\",\"approach-retreat\",\"23\",\"257972\",\"0.0-23.0\",\"\",\"\",\"3-5\",\"4758\",\"39\",\"1\",\"Training\",\"Stims/Figures/27-J-0-1.bmp\",\"None\",\"Right\",\"39\",\"2\",\"4\",\"10\",\"N\",\"C\",\"20\"
\"\",\"\",\"approach-retreat\",\"24\",\"267458\",\"0.0-24.0\",\"\",\"\",\"3-5\",\"7978\",\"38\",\"1\",\"Training\",\"Stims/Figures/27-C-30-1.bmp\",\"None\",\"Down\",\"38\",\"2\",\"5\",\"10\",\"N\",\"C\",\"21\"
\"\",\"\",\"approach-retreat\",\"25\",\"273237\",\"0.0-25.0\",\"\",\"\",\"3-5\",\"4271\",\"40\",\"1\",\"Training\",\"Stims/Figures/139-J-0-2.bmp\",\"None\",\"Down\",\"40\",\"2\",\"6\",\"10\",\"N\",\"C\",\"22\"
\"\",\"\",\"approach-retreat\",\"26\",\"280059\",\"0.0-26.0\",\"\",\"\",\"3-5\",\"5310\",\"37\",\"0\",\"Training\",\"Stims/Figures/57-C-30-1.bmp\",\"None\",\"Left\",\"39\",\"2\",\"7\",\"10\",\"N\",\"C\",\"23\"
\"\",\"\",\"approach-retreat\",\"27\",\"286708\",\"0.0-27.0\",\"\",\"\",\"3-5\",\"5141\",\"37\",\"1\",\"Training\",\"Stims/Figures/139-C-20-2.bmp\",\"None\",\"Right\",\"37\",\"2\",\"8\",\"10\",\"N\",\"C\",\"24\"
\"\",\"\",\"approach-retreat\",\"28\",\"293747\",\"0.0-28.0\",\"\",\"\",\"3-5\",\"5531\",\"38\",\"1\",\"Training\",\"Stims/Figures/100-J-10-3.bmp\",\"None\",\"Up\",\"38\",\"2\",\"9\",\"10\",\"N\",\"C\",\"25\"
\"\",\"\",\"approach-retreat\",\"29\",\"301363\",\"0.0-29.0\",\"\",\"\",\"3-5\",\"6108\",\"40\",\"0\",\"Training\",\"Stims/Figures/100-C-30-3.bmp\",\"None\",\"Down\",\"38\",\"2\",\"10\",\"10\",\"N\",\"C\",\"26\"
\"\",\"\",\"approach-retreat\",\"30\",\"307362\",\"0.0-30.0\",\"\",\"\",\"3-5\",\"4492\",\"38\",\"1\",\"Training\",\"Stims/Figures/57-J-0-1.bmp\",\"None\",\"Up\",\"38\",\"2\",\"11\",\"10\",\"N\",\"C\",\"27\"
\"\",\"\",\"approach-retreat\",\"31\",\"313803\",\"0.0-31.0\",\"\",\"\",\"3-5\",\"4934\",\"40\",\"1\",\"Training\",\"Stims/Figures/84-J-0-2.bmp\",\"None\",\"Down\",\"40\",\"2\",\"12\",\"10\",\"N\",\"C\",\"28\"
\"\",\"\",\"approach-retreat\",\"32\",\"319643\",\"0.0-32.0\",\"\",\"\",\"3-5\",\"4331\",\"40\",\"1\",\"Training\",\"Stims/Figures/102-C-20-4.bmp\",\"None\",\"Up\",\"40\",\"2\",\"13\",\"10\",\"N\",\"C\",\"29\"
\"\",\"\",\"approach-retreat\",\"33\",\"325451\",\"0.0-33.0\",\"\",\"\",\"3-5\",\"4300\",\"37\",\"0\",\"Training\",\"Stims/Figures/87-C-20-4.bmp\",\"None\",\"Left\",\"39\",\"2\",\"14\",\"10\",\"N\",\"C\",\"30\"
\"\",\"\",\"approach-retreat\",\"34\",\"331188\",\"0.0-34.0\",\"\",\"\",\"3-5\",\"4227\",\"37\",\"1\",\"Training\",\"Stims/Figures/87-J-10-4.bmp\",\"None\",\"Left\",\"37\",\"2\",\"15\",\"10\",\"N\",\"C\",\"31\"
\"\",\"\",\"approach-retreat\",\"35\",\"336973\",\"0.0-35.0\",\"\",\"\",\"3-5\",\"4275\",\"39\",\"0\",\"Training\",\"Stims/Figures/44-J-10-3.bmp\",\"None\",\"Left\",\"37\",\"2\",\"16\",\"10\",\"N\",\"C\",\"32\"
\"\",\"\",\"approach-retreat\",\"36\",\"345355\",\"0.0-36.0\",\"\",\"\",\"3-5\",\"6875\",\"37\",\"1\",\"Training\",\"Stims/Figures/44-J-10-3.bmp\",\"None\",\"Left\",\"37\",\"3\",\"1\",\"10\",\"N\",\"C\",\"33\"
\"\",\"\",\"approach-retreat\",\"37\",\"352989\",\"0.0-37.0\",\"\",\"\",\"3-5\",\"6125\",\"37\",\"0\",\"Training\",\"Stims/Figures/87-J-10-4.bmp\",\"None\",\"Right\",\"39\",\"3\",\"2\",\"10\",\"N\",\"C\",\"34\"
\"\",\"\",\"approach-retreat\",\"38\",\"359203\",\"0.0-38.0\",\"\",\"\",\"3-5\",\"4707\",\"37\",\"0\",\"Training\",\"Stims/Figures/100-J-10-3.bmp\",\"None\",\"Right\",\"39\",\"3\",\"3\",\"10\",\"N\",\"C\",\"35\"
\"\",\"\",\"approach-retreat\",\"39\",\"366282\",\"0.0-39.0\",\"\",\"\",\"3-5\",\"5572\",\"40\",\"0\",\"Training\",\"Stims/Figures/102-J-10-4.bmp\",\"None\",\"Up\",\"38\",\"3\",\"4\",\"10\",\"N\",\"C\",\"36\"
\"\",\"\",\"approach-retreat\",\"40\",\"372746\",\"0.0-40.0\",\"\",\"\",\"3-5\",\"4957\",\"38\",\"1\",\"Training\",\"Stims/Figures/57-C-30-1.bmp\",\"None\",\"Down\",\"38\",\"3\",\"5\",\"10\",\"N\",\"C\",\"37\"
\"\",\"\",\"approach-retreat\",\"41\",\"378515\",\"0.0-41.0\",\"\",\"\",\"3-5\",\"4261\",\"37\",\"1\",\"Training\",\"Stims/Figures/100-C-30-3.bmp\",\"None\",\"Right\",\"37\",\"3\",\"6\",\"10\",\"N\",\"C\",\"38\"
\"\",\"\",\"approach-retreat\",\"42\",\"384401\",\"0.0-42.0\",\"\",\"\",\"3-5\",\"4380\",\"39\",\"1\",\"Training\",\"Stims/Figures/87-C-20-4.bmp\",\"None\",\"Left\",\"39\",\"3\",\"7\",\"10\",\"N\",\"C\",\"39\"
\"\",\"\",\"approach-retreat\",\"43\",\"392274\",\"0.0-43.0\",\"\",\"\",\"3-5\",\"6365\",\"38\",\"1\",\"Training\",\"Stims/Figures/27-J-0-1.bmp\",\"None\",\"Up\",\"38\",\"3\",\"8\",\"10\",\"N\",\"C\",\"40\"
\"\",\"\",\"approach-retreat\",\"44\",\"398474\",\"0.0-44.0\",\"\",\"\",\"3-5\",\"4693\",\"39\",\"0\",\"Training\",\"Stims/Figures/84-J-0-2.bmp\",\"None\",\"Left\",\"37\",\"3\",\"9\",\"10\",\"N\",\"C\",\"41\"
\"\",\"\",\"approach-retreat\",\"45\",\"404619\",\"0.0-45.0\",\"\",\"\",\"3-5\",\"4638\",\"40\",\"0\",\"Training\",\"Stims/Figures/84-C-20-2.bmp\",\"None\",\"Down\",\"38\",\"3\",\"10\",\"10\",\"N\",\"C\",\"42\"
\"\",\"\",\"approach-retreat\",\"46\",\"410417\",\"0.0-46.0\",\"\",\"\",\"3-5\",\"4291\",\"39\",\"1\",\"Training\",\"Stims/Figures/139-C-20-2.bmp\",\"None\",\"Left\",\"39\",\"3\",\"11\",\"10\",\"N\",\"C\",\"43\"
\"\",\"\",\"approach-retreat\",\"47\",\"417243\",\"0.0-47.0\",\"\",\"\",\"3-5\",\"5318\",\"39\",\"0\",\"Training\",\"Stims/Figures/102-C-20-4.bmp\",\"None\",\"Right\",\"37\",\"3\",\"12\",\"10\",\"N\",\"C\",\"44\"
\"\",\"\",\"approach-retreat\",\"48\",\"424209\",\"0.0-48.0\",\"\",\"\",\"3-5\",\"5461\",\"38\",\"1\",\"Training\",\"Stims/Figures/139-J-0-2.bmp\",\"None\",\"Up\",\"38\",\"3\",\"13\",\"10\",\"N\",\"C\",\"45\"
\"\",\"\",\"approach-retreat\",\"49\",\"430323\",\"0.0-49.0\",\"\",\"\",\"3-5\",\"4605\",\"38\",\"1\",\"Training\",\"Stims/Figures/27-C-30-1.bmp\",\"None\",\"Down\",\"38\",\"3\",\"14\",\"10\",\"N\",\"C\",\"46\"
\"\",\"\",\"approach-retreat\",\"50\",\"438595\",\"0.0-50.0\",\"\",\"\",\"3-5\",\"6764\",\"38\",\"1\",\"Training\",\"Stims/Figures/57-J-0-1.bmp\",\"None\",\"Up\",\"38\",\"3\",\"15\",\"10\",\"N\",\"C\",\"47\"
\"\",\"\",\"approach-retreat\",\"51\",\"445580\",\"0.0-51.0\",\"\",\"\",\"3-5\",\"5473\",\"40\",\"0\",\"Training\",\"Stims/Figures/44-C-30-3.bmp\",\"None\",\"Down\",\"38\",\"3\",\"16\",\"10\",\"N\",\"C\",\"48\"
\"\",\"\",\"approach-retreat\",\"52\",\"453875\",\"0.0-52.0\",\"\",\"\",\"3-5\",\"6787\",\"40\",\"1\",\"Training\",\"Stims/Figures/139-J-0-2.bmp\",\"None\",\"Down\",\"40\",\"4\",\"1\",\"10\",\"N\",\"C\",\"49\"
\"\",\"\",\"approach-retreat\",\"53\",\"460186\",\"0.0-53.0\",\"\",\"\",\"3-5\",\"4803\",\"40\",\"1\",\"Training\",\"Stims/Figures/57-C-30-1.bmp\",\"None\",\"Up\",\"40\",\"4\",\"2\",\"10\",\"N\",\"C\",\"50\"
\"\",\"\",\"approach-retreat\",\"54\",\"466843\",\"0.0-54.0\",\"\",\"\",\"3-5\",\"5148\",\"38\",\"1\",\"Training\",\"Stims/Figures/102-C-20-4.bmp\",\"None\",\"Down\",\"38\",\"4\",\"3\",\"10\",\"N\",\"C\",\"51\"
\"\",\"\",\"approach-retreat\",\"55\",\"474185\",\"0.0-55.0\",\"\",\"\",\"3-5\",\"5838\",\"37\",\"0\",\"Training\",\"Stims/Figures/102-J-10-4.bmp\",\"None\",\"Right\",\"39\",\"4\",\"4\",\"10\",\"N\",\"C\",\"52\"
\"\",\"\",\"approach-retreat\",\"56\",\"484696\",\"0.0-56.0\",\"\",\"\",\"3-5\",\"9009\",\"39\",\"1\",\"Training\",\"Stims/Figures/57-J-0-1.bmp\",\"None\",\"Right\",\"39\",\"4\",\"5\",\"10\",\"N\",\"C\",\"53\"
\"\",\"\",\"approach-retreat\",\"57\",\"494136\",\"0.0-57.0\",\"\",\"\",\"3-5\",\"7937\",\"39\",\"1\",\"Training\",\"Stims/Figures/27-J-0-1.bmp\",\"None\",\"Right\",\"39\",\"4\",\"6\",\"10\",\"N\",\"C\",\"54\"
\"\",\"\",\"approach-retreat\",\"58\",\"499688\",\"0.0-58.0\",\"\",\"\",\"3-5\",\"4049\",\"39\",\"1\",\"Training\",\"Stims/Figures/84-C-20-2.bmp\",\"None\",\"Left\",\"39\",\"4\",\"7\",\"10\",\"N\",\"C\",\"55\"
\"\",\"\",\"approach-retreat\",\"59\",\"506539\",\"0.0-59.0\",\"\",\"\",\"3-5\",\"5346\",\"40\",\"0\",\"Training\",\"Stims/Figures/44-J-10-3.bmp\",\"None\",\"Up\",\"38\",\"4\",\"8\",\"10\",\"N\",\"C\",\"56\"
\"\",\"\",\"approach-retreat\",\"60\",\"512866\",\"0.0-60.0\",\"\",\"\",\"3-5\",\"4820\",\"37\",\"1\",\"Training\",\"Stims/Figures/44-C-30-3.bmp\",\"None\",\"Right\",\"37\",\"4\",\"9\",\"10\",\"N\",\"C\",\"57\"
\"\",\"\",\"approach-retreat\",\"61\",\"520659\",\"0.0-61.0\",\"\",\"\",\"3-5\",\"6284\",\"38\",\"0\",\"Training\",\"Stims/Figures/27-C-30-1.bmp\",\"None\",\"Up\",\"40\",\"4\",\"10\",\"10\",\"N\",\"C\",\"58\"
\"\",\"\",\"approach-retreat\",\"62\",\"529986\",\"0.0-62.0\",\"\",\"\",\"3-5\",\"7818\",\"39\",\"0\",\"Training\",\"Stims/Figures/87-J-10-4.bmp\",\"None\",\"Left\",\"37\",\"4\",\"11\",\"10\",\"N\",\"C\",\"59\"
\"\",\"\",\"approach-retreat\",\"63\",\"538057\",\"0.0-63.0\",\"\",\"\",\"3-5\",\"6568\",\"40\",\"1\",\"Training\",\"Stims/Figures/139-C-20-2.bmp\",\"None\",\"Up\",\"40\",\"4\",\"12\",\"10\",\"N\",\"C\",\"60\"
\"\",\"\",\"approach-retreat\",\"64\",\"548001\",\"0.0-64.0\",\"\",\"\",\"3-5\",\"8441\",\"40\",\"0\",\"Training\",\"Stims/Figures/87-C-20-4.bmp\",\"None\",\"Down\",\"38\",\"4\",\"13\",\"10\",\"N\",\"C\",\"61\"
\"\",\"\",\"approach-retreat\",\"65\",\"554705\",\"0.0-65.0\",\"\",\"\",\"3-5\",\"5201\",\"37\",\"1\",\"Training\",\"Stims/Figures/100-J-10-3.bmp\",\"None\",\"Left\",\"37\",\"4\",\"14\",\"10\",\"N\",\"C\",\"62\"
\"\",\"\",\"approach-retreat\",\"66\",\"561547\",\"0.0-66.0\",\"\",\"\",\"3-5\",\"5335\",\"37\",\"1\",\"Training\",\"Stims/Figures/84-J-0-2.bmp\",\"None\",\"Left\",\"37\",\"4\",\"15\",\"10\",\"N\",\"C\",\"63\"
\"\",\"\",\"approach-retreat\",\"67\",\"569322\",\"0.0-67.0\",\"\",\"\",\"3-5\",\"6268\",\"38\",\"1\",\"Training\",\"Stims/Figures/100-C-30-3.bmp\",\"None\",\"Down\",\"38\",\"4\",\"16\",\"10\",\"N\",\"C\",\"64\"
\"\",\"\",\"approach-retreat\",\"68\",\"575548\",\"0.0-68.0\",\"\",\"\",\"3-5\",\"4718\",\"37\",\"1\",\"Training\",\"Stims/Figures/100-C-30-3.bmp\",\"None\",\"Right\",\"37\",\"5\",\"1\",\"10\",\"N\",\"C\",\"65\"
\"\",\"\",\"approach-retreat\",\"69\",\"581986\",\"0.0-69.0\",\"\",\"\",\"3-5\",\"4931\",\"40\",\"1\",\"Training\",\"Stims/Figures/84-J-0-2.bmp\",\"None\",\"Down\",\"40\",\"5\",\"2\",\"10\",\"N\",\"C\",\"66\"
\"\",\"\",\"approach-retreat\",\"70\",\"587828\",\"0.0-70.0\",\"\",\"\",\"3-5\",\"4335\",\"37\",\"0\",\"Training\",\"Stims/Figures/44-J-10-3.bmp\",\"None\",\"Right\",\"39\",\"5\",\"3\",\"10\",\"N\",\"C\",\"67\"
\"\",\"\",\"approach-retreat\",\"71\",\"594593\",\"0.0-71.0\",\"\",\"\",\"3-5\",\"5259\",\"38\",\"1\",\"Training\",\"Stims/Figures/84-C-20-2.bmp\",\"None\",\"Down\",\"38\",\"5\",\"4\",\"10\",\"N\",\"C\",\"68\"
\"\",\"\",\"approach-retreat\",\"72\",\"601460\",\"0.0-72.0\",\"\",\"\",\"3-5\",\"5357\",\"40\",\"1\",\"Training\",\"Stims/Figures/87-C-20-4.bmp\",\"None\",\"Up\",\"40\",\"5\",\"5\",\"10\",\"N\",\"C\",\"69\"
\"\",\"\",\"approach-retreat\",\"73\",\"607970\",\"0.0-73.0\",\"\",\"\",\"3-5\",\"5002\",\"39\",\"1\",\"Training\",\"Stims/Figures/139-C-20-2.bmp\",\"None\",\"Left\",\"39\",\"5\",\"6\",\"10\",\"N\",\"C\",\"70\"
\"\",\"\",\"approach-retreat\",\"74\",\"614315\",\"0.0-74.0\",\"\",\"\",\"3-5\",\"4837\",\"37\",\"0\",\"Training\",\"Stims/Figures/102-J-10-4.bmp\",\"None\",\"Right\",\"39\",\"5\",\"7\",\"10\",\"N\",\"C\",\"71\"
\"\",\"\",\"approach-retreat\",\"75\",\"620345\",\"0.0-75.0\",\"\",\"\",\"3-5\",\"4523\",\"38\",\"0\",\"Training\",\"Stims/Figures/27-J-0-1.bmp\",\"None\",\"Down\",\"40\",\"5\",\"8\",\"10\",\"N\",\"C\",\"72\"
\"\",\"\",\"approach-retreat\",\"76\",\"627411\",\"0.0-76.0\",\"\",\"\",\"3-5\",\"5557\",\"40\",\"0\",\"Training\",\"Stims/Figures/87-J-10-4.bmp\",\"None\",\"Up\",\"38\",\"5\",\"9\",\"10\",\"N\",\"C\",\"73\"
\"\",\"\",\"approach-retreat\",\"77\",\"642179\",\"0.0-77.0\",\"\",\"\",\"3-5\",\"13263\",\"37\",\"0\",\"Training\",\"Stims/Figures/100-J-10-3.bmp\",\"None\",\"Right\",\"39\",\"5\",\"10\",\"10\",\"N\",\"C\",\"74\"
\"\",\"\",\"approach-retreat\",\"78\",\"648849\",\"0.0-78.0\",\"\",\"\",\"3-5\",\"5163\",\"37\",\"1\",\"Training\",\"Stims/Figures/139-J-0-2.bmp\",\"None\",\"Left\",\"37\",\"5\",\"11\",\"10\",\"N\",\"C\",\"75\"
\"\",\"\",\"approach-retreat\",\"79\",\"655769\",\"0.0-79.0\",\"\",\"\",\"3-5\",\"5413\",\"38\",\"1\",\"Training\",\"Stims/Figures/27-C-30-1.bmp\",\"None\",\"Down\",\"38\",\"5\",\"12\",\"10\",\"N\",\"C\",\"76\"
\"\",\"\",\"approach-retreat\",\"80\",\"662602\",\"0.0-80.0\",\"\",\"\",\"3-5\",\"5324\",\"39\",\"1\",\"Training\",\"Stims/Figures/44-C-30-3.bmp\",\"None\",\"Left\",\"39\",\"5\",\"13\",\"10\",\"N\",\"C\",\"77\"
\"\",\"\",\"approach-retreat\",\"81\",\"668859\",\"0.0-81.0\",\"\",\"\",\"3-5\",\"4748\",\"37\",\"1\",\"Training\",\"Stims/Figures/57-J-0-1.bmp\",\"None\",\"Left\",\"37\",\"5\",\"14\",\"10\",\"N\",\"C\",\"78\"
\"\",\"\",\"approach-retreat\",\"82\",\"676674\",\"0.0-82.0\",\"\",\"\",\"3-5\",\"6307\",\"40\",\"1\",\"Training\",\"Stims/Figures/57-C-30-1.bmp\",\"None\",\"Up\",\"40\",\"5\",\"15\",\"10\",\"N\",\"C\",\"79\"
\"\",\"\",\"approach-retreat\",\"83\",\"683520\",\"0.0-83.0\",\"\",\"\",\"3-5\",\"5337\",\"40\",\"1\",\"Training\",\"Stims/Figures/102-C-20-4.bmp\",\"None\",\"Up\",\"40\",\"5\",\"16\",\"10\",\"N\",\"C\",\"80\"
\"\",\"\",\"approach-retreat\",\"84\",\"689235\",\"0.0-84.0\",\"\",\"\",\"3-5\",\"4209\",\"38\",\"0\",\"Training\",\"Stims/Figures/102-J-10-4.bmp\",\"None\",\"Down\",\"40\",\"6\",\"1\",\"10\",\"N\",\"C\",\"81\"
\"\",\"\",\"approach-retreat\",\"85\",\"696970\",\"0.0-85.0\",\"\",\"\",\"3-5\",\"6229\",\"40\",\"1\",\"Training\",\"Stims/Figures/44-C-30-3.bmp\",\"None\",\"Up\",\"40\",\"6\",\"2\",\"10\",\"N\",\"C\",\"82\"
\"\",\"\",\"approach-retreat\",\"86\",\"703745\",\"0.0-86.0\",\"\",\"\",\"3-5\",\"5269\",\"39\",\"1\",\"Training\",\"Stims/Figures/139-J-0-2.bmp\",\"None\",\"Right\",\"39\",\"6\",\"3\",\"10\",\"N\",\"C\",\"83\"
\"\",\"\",\"approach-retreat\",\"87\",\"710787\",\"0.0-87.0\",\"\",\"\",\"3-5\",\"5534\",\"38\",\"1\",\"Training\",\"Stims/Figures/57-J-0-1.bmp\",\"None\",\"Up\",\"38\",\"6\",\"4\",\"10\",\"N\",\"C\",\"84\"
\"\",\"\",\"approach-retreat\",\"88\",\"718291\",\"0.0-88.0\",\"\",\"\",\"3-5\",\"5996\",\"39\",\"1\",\"Training\",\"Stims/Figures/84-J-0-2.bmp\",\"None\",\"Right\",\"39\",\"6\",\"5\",\"10\",\"N\",\"C\",\"85\"
\"\",\"\",\"approach-retreat\",\"89\",\"725034\",\"0.0-89.0\",\"\",\"\",\"3-5\",\"5235\",\"37\",\"1\",\"Training\",\"Stims/Figures/27-J-0-1.bmp\",\"None\",\"Left\",\"37\",\"6\",\"6\",\"10\",\"N\",\"C\",\"86\"
\"\",\"\",\"approach-retreat\",\"90\",\"730729\",\"0.0-90.0\",\"\",\"\",\"3-5\",\"4193\",\"38\",\"1\",\"Training\",\"Stims/Figures/57-C-30-1.bmp\",\"None\",\"Down\",\"38\",\"6\",\"7\",\"10\",\"N\",\"C\",\"87\"
\"\",\"\",\"approach-retreat\",\"91\",\"736402\",\"0.0-91.0\",\"\",\"\",\"3-5\",\"4165\",\"39\",\"1\",\"Training\",\"Stims/Figures/84-C-20-2.bmp\",\"None\",\"Left\",\"39\",\"6\",\"8\",\"10\",\"N\",\"C\",\"88\"
\"\",\"\",\"approach-retreat\",\"92\",\"742017\",\"0.0-92.0\",\"\",\"\",\"3-5\",\"4108\",\"39\",\"1\",\"Training\",\"Stims/Figures/139-C-20-2.bmp\",\"None\",\"Left\",\"39\",\"6\",\"9\",\"10\",\"N\",\"C\",\"89\"
\"\",\"\",\"approach-retreat\",\"93\",\"747674\",\"0.0-93.0\",\"\",\"\",\"3-5\",\"4150\",\"39\",\"1\",\"Training\",\"Stims/Figures/102-C-20-4.bmp\",\"None\",\"Left\",\"39\",\"6\",\"10\",\"10\",\"N\",\"C\",\"90\"
\"\",\"\",\"approach-retreat\",\"94\",\"753504\",\"0.0-94.0\",\"\",\"\",\"3-5\",\"4322\",\"40\",\"1\",\"Training\",\"Stims/Figures/100-C-30-3.bmp\",\"None\",\"Up\",\"40\",\"6\",\"11\",\"10\",\"N\",\"C\",\"91\"
\"\",\"\",\"approach-retreat\",\"95\",\"759897\",\"0.0-95.0\",\"\",\"\",\"3-5\",\"4885\",\"38\",\"1\",\"Training\",\"Stims/Figures/87-J-10-4.bmp\",\"None\",\"Up\",\"38\",\"6\",\"12\",\"10\",\"N\",\"C\",\"92\"
\"\",\"\",\"approach-retreat\",\"96\",\"772161\",\"0.0-96.0\",\"\",\"\",\"3-5\",\"10755\",\"40\",\"1\",\"Training\",\"Stims/Figures/44-J-10-3.bmp\",\"None\",\"Down\",\"40\",\"6\",\"13\",\"10\",\"N\",\"C\",\"93\"
\"\",\"\",\"approach-retreat\",\"97\",\"778312\",\"0.0-97.0\",\"\",\"\",\"3-5\",\"4648\",\"39\",\"0\",\"Training\",\"Stims/Figures/87-C-20-4.bmp\",\"None\",\"Right\",\"37\",\"6\",\"14\",\"10\",\"N\",\"C\",\"94\"
\"\",\"\",\"approach-retreat\",\"98\",\"784330\",\"0.0-98.0\",\"\",\"\",\"3-5\",\"4511\",\"37\",\"1\",\"Training\",\"Stims/Figures/27-C-30-1.bmp\",\"None\",\"Right\",\"37\",\"6\",\"15\",\"10\",\"N\",\"C\",\"95\"
\"\",\"\",\"approach-retreat\",\"99\",\"790778\",\"0.0-99.0\",\"\",\"\",\"3-5\",\"4939\",\"38\",\"0\",\"Training\",\"Stims/Figures/100-J-10-3.bmp\",\"None\",\"Down\",\"40\",\"6\",\"16\",\"10\",\"N\",\"C\",\"96\"
\"\",\"\",\"approach-retreat\",\"100\",\"797489\",\"0.0-100.0\",\"\",\"\",\"3-5\",\"5207\",\"39\",\"1\",\"Training\",\"Stims/Figures/139-J-0-2.bmp\",\"None\",\"Right\",\"39\",\"7\",\"1\",\"10\",\"N\",\"C\",\"97\"
\"\",\"\",\"approach-retreat\",\"101\",\"803241\",\"0.0-101.0\",\"\",\"\",\"3-5\",\"4246\",\"39\",\"1\",\"Training\",\"Stims/Figures/57-C-30-1.bmp\",\"None\",\"Left\",\"39\",\"7\",\"2\",\"10\",\"N\",\"C\",\"98\"
\"\",\"\",\"approach-retreat\",\"102\",\"810458\",\"0.0-102.0\",\"\",\"\",\"3-5\",\"5710\",\"38\",\"0\",\"Training\",\"Stims/Figures/100-C-30-3.bmp\",\"None\",\"Up\",\"40\",\"7\",\"3\",\"10\",\"N\",\"C\",\"99\"
\"\",\"\",\"approach-retreat\",\"103\",\"816409\",\"0.0-103.0\",\"\",\"\",\"3-5\",\"4445\",\"40\",\"1\",\"Training\",\"Stims/Figures/139-C-20-2.bmp\",\"None\",\"Up\",\"40\",\"7\",\"4\",\"10\",\"N\",\"C\",\"100\"
\"\",\"\",\"approach-retreat\",\"104\",\"823010\",\"0.0-104.0\",\"\",\"\",\"3-5\",\"5092\",\"39\",\"1\",\"Training\",\"Stims/Figures/84-J-0-2.bmp\",\"None\",\"Right\",\"39\",\"7\",\"5\",\"10\",\"N\",\"C\",\"101\"
\"\",\"\",\"approach-retreat\",\"105\",\"828665\",\"0.0-105.0\",\"\",\"\",\"3-5\",\"4148\",\"39\",\"1\",\"Training\",\"Stims/Figures/87-J-10-4.bmp\",\"None\",\"Right\",\"39\",\"7\",\"6\",\"10\",\"N\",\"C\",\"102\"
\"\",\"\",\"approach-retreat\",\"106\",\"836850\",\"0.0-106.0\",\"\",\"\",\"3-5\",\"6675\",\"38\",\"1\",\"Training\",\"Stims/Figures/27-C-30-1.bmp\",\"None\",\"Down\",\"38\",\"7\",\"7\",\"10\",\"N\",\"C\",\"103\"
\"\",\"\",\"approach-retreat\",\"107\",\"843041\",\"0.0-107.0\",\"\",\"\",\"3-5\",\"4680\",\"39\",\"1\",\"Training\",\"Stims/Figures/44-C-30-3.bmp\",\"None\",\"Left\",\"39\",\"7\",\"8\",\"10\",\"N\",\"C\",\"104\"
\"\",\"\",\"approach-retreat\",\"108\",\"849626\",\"0.0-108.0\",\"\",\"\",\"3-5\",\"5078\",\"40\",\"1\",\"Training\",\"Stims/Figures/44-J-10-3.bmp\",\"None\",\"Down\",\"40\",\"7\",\"9\",\"10\",\"N\",\"C\",\"105\"
\"\",\"\",\"approach-retreat\",\"109\",\"856041\",\"0.0-109.0\",\"\",\"\",\"3-5\",\"4907\",\"40\",\"1\",\"Training\",\"Stims/Figures/87-C-20-4.bmp\",\"None\",\"Up\",\"40\",\"7\",\"10\",\"10\",\"N\",\"C\",\"106\"
\"\",\"\",\"approach-retreat\",\"110\",\"861810\",\"0.0-110.0\",\"\",\"\",\"3-5\",\"4260\",\"38\",\"0\",\"Training\",\"Stims/Figures/102-J-10-4.bmp\",\"None\",\"Down\",\"40\",\"7\",\"11\",\"10\",\"N\",\"C\",\"107\"
\"\",\"\",\"approach-retreat\",\"111\",\"867858\",\"0.0-111.0\",\"\",\"\",\"3-5\",\"4538\",\"39\",\"1\",\"Training\",\"Stims/Figures/27-J-0-1.bmp\",\"None\",\"Right\",\"39\",\"7\",\"12\",\"10\",\"N\",\"C\",\"108\"
\"\",\"\",\"approach-retreat\",\"112\",\"874554\",\"0.0-112.0\",\"\",\"\",\"3-5\",\"5188\",\"37\",\"0\",\"Training\",\"Stims/Figures/84-C-20-2.bmp\",\"None\",\"Left\",\"39\",\"7\",\"13\",\"10\",\"N\",\"C\",\"109\"
\"\",\"\",\"approach-retreat\",\"113\",\"880761\",\"0.0-113.0\",\"\",\"\",\"3-5\",\"4700\",\"40\",\"1\",\"Training\",\"Stims/Figures/57-J-0-1.bmp\",\"None\",\"Down\",\"40\",\"7\",\"14\",\"10\",\"N\",\"C\",\"110\"
\"\",\"\",\"approach-retreat\",\"114\",\"887098\",\"0.0-114.0\",\"\",\"\",\"3-5\",\"4830\",\"40\",\"0\",\"Training\",\"Stims/Figures/100-J-10-3.bmp\",\"None\",\"Up\",\"38\",\"7\",\"15\",\"10\",\"N\",\"C\",\"111\"
\"\",\"\",\"approach-retreat\",\"115\",\"892977\",\"0.0-115.0\",\"\",\"\",\"3-5\",\"4369\",\"39\",\"1\",\"Training\",\"Stims/Figures/102-C-20-4.bmp\",\"None\",\"Left\",\"39\",\"7\",\"16\",\"10\",\"N\",\"C\",\"112\"
\"\",\"\",\"approach-retreat\",\"116\",\"898962\",\"0.0-116.0\",\"\",\"\",\"3-5\",\"4477\",\"39\",\"0\",\"Training\",\"Stims/Figures/57-C-30-1.bmp\",\"None\",\"Right\",\"37\",\"8\",\"1\",\"10\",\"N\",\"C\",\"113\"
\"\",\"\",\"approach-retreat\",\"117\",\"905681\",\"0.0-117.0\",\"\",\"\",\"3-5\",\"5213\",\"37\",\"1\",\"Training\",\"Stims/Figures/139-J-0-2.bmp\",\"None\",\"Left\",\"37\",\"8\",\"2\",\"10\",\"N\",\"C\",\"114\"
\"\",\"\",\"approach-retreat\",\"118\",\"914154\",\"0.0-118.0\",\"\",\"\",\"3-5\",\"6965\",\"39\",\"0\",\"Training\",\"Stims/Figures/87-C-20-4.bmp\",\"None\",\"Right\",\"37\",\"8\",\"3\",\"10\",\"N\",\"C\",\"115\"
\"\",\"\",\"approach-retreat\",\"119\",\"920379\",\"0.0-119.0\",\"\",\"\",\"3-5\",\"4716\",\"40\",\"0\",\"Training\",\"Stims/Figures/44-C-30-3.bmp\",\"None\",\"Down\",\"38\",\"8\",\"4\",\"10\",\"N\",\"C\",\"116\"
\"\",\"\",\"approach-retreat\",\"120\",\"928442\",\"0.0-120.0\",\"\",\"\",\"3-5\",\"6557\",\"38\",\"1\",\"Training\",\"Stims/Figures/100-J-10-3.bmp\",\"None\",\"Up\",\"38\",\"8\",\"5\",\"10\",\"N\",\"C\",\"117\"
\"\",\"\",\"approach-retreat\",\"121\",\"934923\",\"0.0-121.0\",\"\",\"\",\"3-5\",\"4975\",\"39\",\"1\",\"Training\",\"Stims/Figures/84-J-0-2.bmp\",\"None\",\"Right\",\"39\",\"8\",\"6\",\"10\",\"N\",\"C\",\"118\"
\"\",\"\",\"approach-retreat\",\"122\",\"940552\",\"0.0-122.0\",\"\",\"\",\"3-5\",\"4124\",\"39\",\"1\",\"Training\",\"Stims/Figures/84-C-20-2.bmp\",\"None\",\"Left\",\"39\",\"8\",\"7\",\"10\",\"N\",\"C\",\"119\"
\"\",\"\",\"approach-retreat\",\"123\",\"946346\",\"0.0-123.0\",\"\",\"\",\"3-5\",\"4287\",\"37\",\"1\",\"Training\",\"Stims/Figures/27-J-0-1.bmp\",\"None\",\"Left\",\"37\",\"8\",\"8\",\"10\",\"N\",\"C\",\"120\"
\"\",\"\",\"approach-retreat\",\"124\",\"952763\",\"0.0-124.0\",\"\",\"\",\"3-5\",\"4909\",\"37\",\"1\",\"Training\",\"Stims/Figures/102-J-10-4.bmp\",\"None\",\"Left\",\"37\",\"8\",\"9\",\"10\",\"N\",\"C\",\"121\"
\"\",\"\",\"approach-retreat\",\"125\",\"958713\",\"0.0-125.0\",\"\",\"\",\"3-5\",\"4443\",\"40\",\"0\",\"Training\",\"Stims/Figures/87-J-10-4.bmp\",\"None\",\"Up\",\"38\",\"8\",\"10\",\"10\",\"N\",\"C\",\"122\"
\"\",\"\",\"approach-retreat\",\"126\",\"964548\",\"0.0-126.0\",\"\",\"\",\"3-5\",\"4326\",\"40\",\"0\",\"Training\",\"Stims/Figures/44-J-10-3.bmp\",\"None\",\"Up\",\"38\",\"8\",\"11\",\"10\",\"N\",\"C\",\"123\"
\"\",\"\",\"approach-retreat\",\"127\",\"971275\",\"0.0-127.0\",\"\",\"\",\"3-5\",\"5219\",\"39\",\"0\",\"Training\",\"Stims/Figures/139-C-20-2.bmp\",\"None\",\"Right\",\"37\",\"8\",\"12\",\"10\",\"N\",\"C\",\"124\"
\"\",\"\",\"approach-retreat\",\"128\",\"977179\",\"0.0-128.0\",\"\",\"\",\"3-5\",\"4397\",\"40\",\"1\",\"Training\",\"Stims/Figures/100-C-30-3.bmp\",\"None\",\"Up\",\"40\",\"8\",\"13\",\"10\",\"N\",\"C\",\"125\"
\"\",\"\",\"approach-retreat\",\"129\",\"982993\",\"0.0-129.0\",\"\",\"\",\"3-5\",\"4307\",\"38\",\"1\",\"Training\",\"Stims/Figures/27-C-30-1.bmp\",\"None\",\"Down\",\"38\",\"8\",\"14\",\"10\",\"N\",\"C\",\"126\"
\"\",\"\",\"approach-retreat\",\"130\",\"989170\",\"0.0-130.0\",\"\",\"\",\"3-5\",\"4669\",\"40\",\"1\",\"Training\",\"Stims/Figures/57-J-0-1.bmp\",\"None\",\"Down\",\"40\",\"8\",\"15\",\"10\",\"N\",\"C\",\"127\"
\"\",\"\",\"approach-retreat\",\"131\",\"996680\",\"0.0-131.0\",\"\",\"\",\"3-5\",\"6003\",\"38\",\"1\",\"Training\",\"Stims/Figures/102-C-20-4.bmp\",\"None\",\"Down\",\"38\",\"8\",\"16\",\"10\",\"N\",\"C\",\"128\"
\"\",\"\",\"approach-retreat\",\"132\",\"1002834\",\"0.0-132.0\",\"\",\"\",\"3-5\",\"4646\",\"40\",\"1\",\"Training\",\"Stims/Figures/87-C-20-4.bmp\",\"None\",\"Up\",\"40\",\"9\",\"1\",\"10\",\"N\",\"C\",\"129\"
\"\",\"\",\"approach-retreat\",\"133\",\"1008850\",\"0.0-133.0\",\"\",\"\",\"3-5\",\"4508\",\"39\",\"1\",\"Training\",\"Stims/Figures/44-C-30-3.bmp\",\"None\",\"Left\",\"39\",\"9\",\"2\",\"10\",\"N\",\"C\",\"130\"
\"\",\"\",\"approach-retreat\",\"134\",\"1015258\",\"0.0-134.0\",\"\",\"\",\"3-5\",\"4901\",\"39\",\"0\",\"Training\",\"Stims/Figures/57-C-30-1.bmp\",\"None\",\"Right\",\"37\",\"9\",\"3\",\"10\",\"N\",\"C\",\"131\"
\"\",\"\",\"approach-retreat\",\"135\",\"1021874\",\"0.0-135.0\",\"\",\"\",\"3-5\",\"5107\",\"39\",\"1\",\"Training\",\"Stims/Figures/139-C-20-2.bmp\",\"None\",\"Left\",\"39\",\"9\",\"4\",\"10\",\"N\",\"C\",\"132\"
\"\",\"\",\"approach-retreat\",\"136\",\"1028730\",\"0.0-136.0\",\"\",\"\",\"3-5\",\"5347\",\"38\",\"0\",\"Training\",\"Stims/Figures/102-C-20-4.bmp\",\"None\",\"Up\",\"40\",\"9\",\"5\",\"10\",\"N\",\"C\",\"133\"
\"\",\"\",\"approach-retreat\",\"137\",\"1035120\",\"0.0-137.0\",\"\",\"\",\"3-5\",\"4886\",\"40\",\"1\",\"Training\",\"Stims/Figures/27-J-0-1.bmp\",\"None\",\"Down\",\"40\",\"9\",\"6\",\"10\",\"N\",\"C\",\"134\"
\"\",\"\",\"approach-retreat\",\"138\",\"1041145\",\"0.0-138.0\",\"\",\"\",\"3-5\",\"4519\",\"38\",\"0\",\"Training\",\"Stims/Figures/44-J-10-3.bmp\",\"None\",\"Down\",\"40\",\"9\",\"7\",\"10\",\"N\",\"C\",\"135\"
\"\",\"\",\"approach-retreat\",\"139\",\"1047201\",\"0.0-139.0\",\"\",\"\",\"3-5\",\"4549\",\"40\",\"1\",\"Training\",\"Stims/Figures/139-J-0-2.bmp\",\"None\",\"Down\",\"40\",\"9\",\"8\",\"10\",\"N\",\"C\",\"136\"
\"\",\"\",\"approach-retreat\",\"140\",\"1053705\",\"0.0-140.0\",\"\",\"\",\"3-5\",\"4997\",\"39\",\"1\",\"Training\",\"Stims/Figures/100-C-30-3.bmp\",\"None\",\"Left\",\"39\",\"9\",\"9\",\"10\",\"N\",\"C\",\"137\"
\"\",\"\",\"approach-retreat\",\"141\",\"1060097\",\"0.0-141.0\",\"\",\"\",\"3-5\",\"4881\",\"40\",\"1\",\"Training\",\"Stims/Figures/84-J-0-2.bmp\",\"None\",\"Down\",\"40\",\"9\",\"10\",\"10\",\"N\",\"C\",\"138\"
\"\",\"\",\"approach-retreat\",\"142\",\"1066497\",\"0.0-142.0\",\"\",\"\",\"3-5\",\"4894\",\"40\",\"0\",\"Training\",\"Stims/Figures/87-J-10-4.bmp\",\"None\",\"Up\",\"38\",\"9\",\"11\",\"10\",\"N\",\"C\",\"139\"
\"\",\"\",\"approach-retreat\",\"143\",\"1073490\",\"0.0-143.0\",\"\",\"\",\"3-5\",\"5487\",\"40\",\"1\",\"Training\",\"Stims/Figures/84-C-20-2.bmp\",\"None\",\"Up\",\"40\",\"9\",\"12\",\"10\",\"N\",\"C\",\"140\"
\"\",\"\",\"approach-retreat\",\"144\",\"1078993\",\"0.0-144.0\",\"\",\"\",\"3-5\",\"3995\",\"37\",\"0\",\"Training\",\"Stims/Figures/102-J-10-4.bmp\",\"None\",\"Right\",\"39\",\"9\",\"13\",\"10\",\"N\",\"C\",\"141\"
\"\",\"\",\"approach-retreat\",\"145\",\"1084745\",\"0.0-145.0\",\"\",\"\",\"3-5\",\"4244\",\"37\",\"0\",\"Training\",\"Stims/Figures/100-J-10-3.bmp\",\"None\",\"Right\",\"39\",\"9\",\"14\",\"10\",\"N\",\"C\",\"142\"
\"\",\"\",\"approach-retreat\",\"146\",\"1090689\",\"0.0-146.0\",\"\",\"\",\"3-5\",\"4437\",\"39\",\"1\",\"Training\",\"Stims/Figures/27-C-30-1.bmp\",\"None\",\"Left\",\"39\",\"9\",\"15\",\"10\",\"N\",\"C\",\"143\"
\"\",\"\",\"approach-retreat\",\"147\",\"1097161\",\"0.0-147.0\",\"\",\"\",\"3-5\",\"4964\",\"39\",\"1\",\"Training\",\"Stims/Figures/57-J-0-1.bmp\",\"None\",\"Right\",\"39\",\"9\",\"16\",\"10\",\"N\",\"C\",\"144\"
\"12370\",\"\",\"instructions\",\"148\",\"1109531\",\"0.0-148.0\",\"[{\"\"page_index\"\":0,\"\"viewing_time\"\":12369}]\",\"\",\"\",\"\",\"\",\"\",\"\",\"\",\"\",\"\",\"\",\"\",\"\",\"\",\"\",\"\",\"\"
\"\",\"\",\"approach-retreat\",\"149\",\"1116377\",\"0.0-149.0\",\"\",\"\",\"3-5\",\"5342\",\"38\",\"1\",\"Testing\",\"Stims/Figures/100-C-30-3.bmp\",\"None\",\"Down\",\"38\",\"1\",\"1\",\"10\",\"N\",\"C\",\"1\"
\"\",\"\",\"approach-retreat\",\"150\",\"1123098\",\"0.0-150.0\",\"\",\"\",\"3-5\",\"5213\",\"39\",\"1\",\"Testing\",\"Stims/Figures/93-J-0-1.bmp\",\"None\",\"Right\",\"39\",\"1\",\"2\",\"10\",\"N\",\"C\",\"2\"
\"\",\"\",\"approach-retreat\",\"151\",\"1129465\",\"0.0-151.0\",\"\",\"\",\"3-5\",\"4859\",\"37\",\"1\",\"Testing\",\"Stims/Figures/84-J-0-2.bmp\",\"None\",\"Left\",\"37\",\"1\",\"3\",\"10\",\"N\",\"C\",\"3\"
\"\",\"\",\"approach-retreat\",\"152\",\"1135513\",\"0.0-152.0\",\"\",\"\",\"3-5\",\"4541\",\"40\",\"1\",\"Testing\",\"Stims/Figures/7-J-10-4.bmp\",\"None\",\"Down\",\"40\",\"1\",\"4\",\"10\",\"N\",\"C\",\"4\"
\"\",\"\",\"approach-retreat\",\"153\",\"1141496\",\"0.0-153.0\",\"\",\"\",\"3-5\",\"4476\",\"39\",\"0\",\"Testing\",\"Stims/Figures/139-C-20-2.bmp\",\"None\",\"Right\",\"37\",\"1\",\"5\",\"10\",\"N\",\"C\",\"5\"
\"\",\"\",\"approach-retreat\",\"154\",\"1149345\",\"0.0-154.0\",\"\",\"\",\"3-5\",\"6342\",\"40\",\"1\",\"Testing\",\"Stims/Figures/7-C-20-4.bmp\",\"None\",\"Up\",\"40\",\"1\",\"6\",\"10\",\"N\",\"C\",\"6\"
\"\",\"\",\"approach-retreat\",\"155\",\"1156184\",\"0.0-155.0\",\"\",\"\",\"3-5\",\"5333\",\"38\",\"1\",\"Testing\",\"Stims/Figures/44-C-30-3.bmp\",\"None\",\"Down\",\"38\",\"1\",\"7\",\"10\",\"N\",\"C\",\"7\"
\"\",\"\",\"approach-retreat\",\"156\",\"1162880\",\"0.0-156.0\",\"\",\"\",\"3-5\",\"5189\",\"39\",\"1\",\"Testing\",\"Stims/Figures/27-C-30-1.bmp\",\"None\",\"Left\",\"39\",\"1\",\"8\",\"10\",\"N\",\"C\",\"8\"
\"\",\"\",\"approach-retreat\",\"157\",\"1169448\",\"0.0-157.0\",\"\",\"\",\"3-5\",\"5061\",\"40\",\"1\",\"Testing\",\"Stims/Figures/100-J-10-3.bmp\",\"None\",\"Down\",\"40\",\"1\",\"9\",\"10\",\"N\",\"C\",\"9\"
\"\",\"\",\"approach-retreat\",\"158\",\"1175377\",\"0.0-158.0\",\"\",\"\",\"3-5\",\"4422\",\"37\",\"1\",\"Testing\",\"Stims/Figures/128-J-10-3.bmp\",\"None\",\"Left\",\"37\",\"1\",\"10\",\"10\",\"N\",\"C\",\"10\"
\"\",\"\",\"approach-retreat\",\"159\",\"1181889\",\"0.0-159.0\",\"\",\"\",\"3-5\",\"5002\",\"37\",\"1\",\"Testing\",\"Stims/Figures/139-J-0-2.bmp\",\"None\",\"Left\",\"37\",\"1\",\"11\",\"10\",\"N\",\"C\",\"11\"
\"\",\"\",\"approach-retreat\",\"160\",\"1188289\",\"0.0-160.0\",\"\",\"\",\"3-5\",\"4894\",\"40\",\"1\",\"Testing\",\"Stims/Figures/118-J-0-2.bmp\",\"None\",\"Down\",\"40\",\"1\",\"12\",\"10\",\"N\",\"C\",\"12\"
\"\",\"\",\"approach-retreat\",\"161\",\"1196776\",\"0.0-161.0\",\"\",\"\",\"3-5\",\"6980\",\"39\",\"1\",\"Testing\",\"Stims/Figures/27-J-0-1.bmp\",\"None\",\"Right\",\"39\",\"1\",\"13\",\"10\",\"N\",\"C\",\"13\"
\"\",\"\",\"approach-retreat\",\"162\",\"1206145\",\"0.0-162.0\",\"\",\"\",\"3-5\",\"7862\",\"40\",\"1\",\"Testing\",\"Stims/Figures/102-C-20-4.bmp\",\"None\",\"Up\",\"40\",\"1\",\"14\",\"10\",\"N\",\"C\",\"14\"
\"\",\"\",\"approach-retreat\",\"163\",\"1212066\",\"0.0-163.0\",\"\",\"\",\"3-5\",\"4412\",\"37\",\"1\",\"Testing\",\"Stims/Figures/128-C-30-3.bmp\",\"None\",\"Right\",\"37\",\"1\",\"15\",\"10\",\"N\",\"C\",\"15\"
\"\",\"\",\"approach-retreat\",\"164\",\"1218642\",\"0.0-164.0\",\"\",\"\",\"3-5\",\"5068\",\"39\",\"0\",\"Testing\",\"Stims/Figures/44-J-10-3.bmp\",\"None\",\"Left\",\"37\",\"1\",\"16\",\"10\",\"N\",\"C\",\"16\"
\"\",\"\",\"approach-retreat\",\"165\",\"1224664\",\"0.0-165.0\",\"\",\"\",\"3-5\",\"4515\",\"37\",\"0\",\"Testing\",\"Stims/Figures/93-C-30-1.bmp\",\"None\",\"Left\",\"39\",\"1\",\"17\",\"10\",\"N\",\"C\",\"17\"
\"\",\"\",\"approach-retreat\",\"166\",\"1230807\",\"0.0-166.0\",\"\",\"\",\"3-5\",\"4636\",\"40\",\"1\",\"Testing\",\"Stims/Figures/57-J-0-1.bmp\",\"None\",\"Down\",\"40\",\"1\",\"18\",\"10\",\"N\",\"C\",\"18\"
\"\",\"\",\"approach-retreat\",\"167\",\"1238745\",\"0.0-167.0\",\"\",\"\",\"3-5\",\"6430\",\"38\",\"0\",\"Testing\",\"Stims/Figures/87-C-20-4.bmp\",\"None\",\"Up\",\"40\",\"1\",\"19\",\"10\",\"N\",\"C\",\"19\"
\"\",\"\",\"approach-retreat\",\"168\",\"1247640\",\"0.0-168.0\",\"\",\"\",\"3-5\",\"7389\",\"39\",\"0\",\"Testing\",\"Stims/Figures/118-C-20-2.bmp\",\"None\",\"Right\",\"37\",\"1\",\"20\",\"10\",\"N\",\"C\",\"20\"
\"\",\"\",\"approach-retreat\",\"169\",\"1254937\",\"0.0-169.0\",\"\",\"\",\"3-5\",\"5789\",\"40\",\"1\",\"Testing\",\"Stims/Figures/84-C-20-2.bmp\",\"None\",\"Up\",\"40\",\"1\",\"21\",\"10\",\"N\",\"C\",\"21\"
\"\",\"\",\"approach-retreat\",\"170\",\"1261801\",\"0.0-170.0\",\"\",\"\",\"3-5\",\"5356\",\"40\",\"0\",\"Testing\",\"Stims/Figures/102-J-10-4.bmp\",\"None\",\"Up\",\"38\",\"1\",\"22\",\"10\",\"N\",\"C\",\"22\"
\"\",\"\",\"approach-retreat\",\"171\",\"1269616\",\"0.0-171.0\",\"\",\"\",\"3-5\",\"6308\",\"39\",\"0\",\"Testing\",\"Stims/Figures/57-C-30-1.bmp\",\"None\",\"Right\",\"37\",\"1\",\"23\",\"10\",\"N\",\"C\",\"23\"
\"\",\"\",\"approach-retreat\",\"172\",\"1276449\",\"0.0-172.0\",\"\",\"\",\"3-5\",\"5326\",\"38\",\"1\",\"Testing\",\"Stims/Figures/87-J-10-4.bmp\",\"None\",\"Up\",\"38\",\"1\",\"24\",\"10\",\"N\",\"C\",\"24\"
\"\",\"\",\"approach-retreat\",\"173\",\"1282464\",\"0.0-173.0\",\"\",\"\",\"3-5\",\"4508\",\"39\",\"1\",\"Testing\",\"Stims/Figures/57-J-0-1.bmp\",\"None\",\"Right\",\"39\",\"2\",\"1\",\"10\",\"N\",\"C\",\"25\"
\"\",\"\",\"approach-retreat\",\"174\",\"1289344\",\"0.0-174.0\",\"\",\"\",\"3-5\",\"5373\",\"39\",\"0\",\"Testing\",\"Stims/Figures/100-C-30-3.bmp\",\"None\",\"Right\",\"37\",\"2\",\"2\",\"10\",\"N\",\"C\",\"26\"
\"\",\"\",\"approach-retreat\",\"175\",\"1295736\",\"0.0-175.0\",\"\",\"\",\"3-5\",\"4885\",\"37\",\"1\",\"Testing\",\"Stims/Figures/102-J-10-4.bmp\",\"None\",\"Left\",\"37\",\"2\",\"3\",\"10\",\"N\",\"C\",\"27\"
\"\",\"\",\"approach-retreat\",\"176\",\"1304482\",\"0.0-176.0\",\"\",\"\",\"3-5\",\"7238\",\"37\",\"1\",\"Testing\",\"Stims/Figures/118-J-0-2.bmp\",\"None\",\"Left\",\"37\",\"2\",\"4\",\"10\",\"N\",\"C\",\"28\"
\"\",\"\",\"approach-retreat\",\"177\",\"1310896\",\"0.0-177.0\",\"\",\"\",\"3-5\",\"4908\",\"37\",\"1\",\"Testing\",\"Stims/Figures/7-J-10-4.bmp\",\"None\",\"Left\",\"37\",\"2\",\"5\",\"10\",\"N\",\"C\",\"29\"
\"\",\"\",\"approach-retreat\",\"178\",\"1318705\",\"0.0-178.0\",\"\",\"\",\"3-5\",\"6302\",\"37\",\"0\",\"Testing\",\"Stims/Figures/118-C-20-2.bmp\",\"None\",\"Left\",\"39\",\"2\",\"6\",\"10\",\"N\",\"C\",\"30\"
\"\",\"\",\"approach-retreat\",\"179\",\"1326609\",\"0.0-179.0\",\"\",\"\",\"3-5\",\"6396\",\"39\",\"1\",\"Testing\",\"Stims/Figures/102-C-20-4.bmp\",\"None\",\"Left\",\"39\",\"2\",\"7\",\"10\",\"N\",\"C\",\"31\"
\"\",\"\",\"approach-retreat\",\"180\",\"1332208\",\"0.0-180.0\",\"\",\"\",\"3-5\",\"4093\",\"38\",\"0\",\"Testing\",\"Stims/Figures/139-C-20-2.bmp\",\"None\",\"Up\",\"40\",\"2\",\"8\",\"10\",\"N\",\"C\",\"32\"
\"\",\"\",\"approach-retreat\",\"181\",\"1338240\",\"0.0-181.0\",\"\",\"\",\"3-5\",\"4524\",\"40\",\"0\",\"Testing\",\"Stims/Figures/44-J-10-3.bmp\",\"None\",\"Up\",\"38\",\"2\",\"9\",\"10\",\"N\",\"C\",\"33\"
\"\",\"\",\"approach-retreat\",\"182\",\"1344722\",\"0.0-182.0\",\"\",\"\",\"3-5\",\"4975\",\"38\",\"0\",\"Testing\",\"Stims/Figures/93-C-30-1.bmp\",\"None\",\"Up\",\"40\",\"2\",\"10\",\"10\",\"N\",\"C\",\"34\"
\"\",\"\",\"approach-retreat\",\"183\",\"1351681\",\"0.0-183.0\",\"\",\"\",\"3-5\",\"5452\",\"39\",\"1\",\"Testing\",\"Stims/Figures/27-J-0-1.bmp\",\"None\",\"Right\",\"39\",\"2\",\"11\",\"10\",\"N\",\"C\",\"35\"
\"\",\"\",\"approach-retreat\",\"184\",\"1358162\",\"0.0-184.0\",\"\",\"\",\"3-5\",\"4972\",\"40\",\"1\",\"Testing\",\"Stims/Figures/93-J-0-1.bmp\",\"None\",\"Down\",\"40\",\"2\",\"12\",\"10\",\"N\",\"C\",\"36\"
\"\",\"\",\"approach-retreat\",\"185\",\"1364936\",\"0.0-185.0\",\"\",\"\",\"3-5\",\"5267\",\"37\",\"1\",\"Testing\",\"Stims/Figures/87-C-20-4.bmp\",\"None\",\"Right\",\"37\",\"2\",\"13\",\"10\",\"N\",\"C\",\"37\"
\"\",\"\",\"approach-retreat\",\"186\",\"1372680\",\"0.0-186.0\",\"\",\"\",\"3-5\",\"6237\",\"40\",\"0\",\"Testing\",\"Stims/Figures/57-C-30-1.bmp\",\"None\",\"Down\",\"38\",\"2\",\"14\",\"10\",\"N\",\"C\",\"38\"
\"\",\"\",\"approach-retreat\",\"187\",\"1382200\",\"0.0-187.0\",\"\",\"\",\"3-5\",\"8011\",\"40\",\"0\",\"Testing\",\"Stims/Figures/128-C-30-3.bmp\",\"None\",\"Down\",\"38\",\"2\",\"15\",\"10\",\"N\",\"C\",\"39\"
\"\",\"\",\"approach-retreat\",\"188\",\"1389224\",\"0.0-188.0\",\"\",\"\",\"3-5\",\"5518\",\"39\",\"0\",\"Testing\",\"Stims/Figures/100-J-10-3.bmp\",\"None\",\"Left\",\"37\",\"2\",\"16\",\"10\",\"N\",\"C\",\"40\"
\"\",\"\",\"approach-retreat\",\"189\",\"1395600\",\"0.0-189.0\",\"\",\"\",\"3-5\",\"4868\",\"40\",\"1\",\"Testing\",\"Stims/Figures/128-J-10-3.bmp\",\"None\",\"Down\",\"40\",\"2\",\"17\",\"10\",\"N\",\"C\",\"41\"
\"\",\"\",\"approach-retreat\",\"190\",\"1402105\",\"0.0-190.0\",\"\",\"\",\"3-5\",\"4996\",\"38\",\"0\",\"Testing\",\"Stims/Figures/7-C-20-4.bmp\",\"None\",\"Up\",\"40\",\"2\",\"18\",\"10\",\"N\",\"C\",\"42\"
\"\",\"\",\"approach-retreat\",\"191\",\"1408727\",\"0.0-191.0\",\"\",\"\",\"3-5\",\"5115\",\"40\",\"0\",\"Testing\",\"Stims/Figures/27-C-30-1.bmp\",\"None\",\"Down\",\"38\",\"2\",\"19\",\"10\",\"N\",\"C\",\"43\"
\"\",\"\",\"approach-retreat\",\"192\",\"1415097\",\"0.0-192.0\",\"\",\"\",\"3-5\",\"4864\",\"40\",\"1\",\"Testing\",\"Stims/Figures/44-C-30-3.bmp\",\"None\",\"Up\",\"40\",\"2\",\"20\",\"10\",\"N\",\"C\",\"44\"
\"\",\"\",\"approach-retreat\",\"193\",\"1421216\",\"0.0-193.0\",\"\",\"\",\"3-5\",\"4611\",\"37\",\"1\",\"Testing\",\"Stims/Figures/84-C-20-2.bmp\",\"None\",\"Right\",\"37\",\"2\",\"21\",\"10\",\"N\",\"C\",\"45\"
\"\",\"\",\"approach-retreat\",\"194\",\"1428369\",\"0.0-194.0\",\"\",\"\",\"3-5\",\"5645\",\"39\",\"1\",\"Testing\",\"Stims/Figures/84-J-0-2.bmp\",\"None\",\"Right\",\"39\",\"2\",\"22\",\"10\",\"N\",\"C\",\"46\"
\"\",\"\",\"approach-retreat\",\"195\",\"1435705\",\"0.0-195.0\",\"\",\"\",\"3-5\",\"5828\",\"38\",\"1\",\"Testing\",\"Stims/Figures/87-J-10-4.bmp\",\"None\",\"Up\",\"38\",\"2\",\"23\",\"10\",\"N\",\"C\",\"47\"
\"\",\"\",\"approach-retreat\",\"196\",\"1441752\",\"0.0-196.0\",\"\",\"\",\"3-5\",\"4540\",\"40\",\"1\",\"Testing\",\"Stims/Figures/139-J-0-2.bmp\",\"None\",\"Down\",\"40\",\"2\",\"24\",\"10\",\"N\",\"C\",\"48\"
\"\",\"\",\"approach-retreat\",\"197\",\"1448401\",\"0.0-197.0\",\"\",\"\",\"3-5\",\"5141\",\"37\",\"1\",\"Testing\",\"Stims/Figures/57-C-30-1.bmp\",\"None\",\"Right\",\"37\",\"3\",\"1\",\"10\",\"N\",\"C\",\"49\"
\"\",\"\",\"approach-retreat\",\"198\",\"1454944\",\"0.0-198.0\",\"\",\"\",\"3-5\",\"5036\",\"38\",\"1\",\"Testing\",\"Stims/Figures/44-C-30-3.bmp\",\"None\",\"Down\",\"38\",\"3\",\"2\",\"10\",\"N\",\"C\",\"50\"
\"\",\"\",\"approach-retreat\",\"199\",\"1462312\",\"0.0-199.0\",\"\",\"\",\"3-5\",\"5861\",\"40\",\"0\",\"Testing\",\"Stims/Figures/128-C-30-3.bmp\",\"None\",\"Down\",\"38\",\"3\",\"3\",\"10\",\"N\",\"C\",\"51\"
\"\",\"\",\"approach-retreat\",\"200\",\"1469513\",\"0.0-200.0\",\"\",\"\",\"3-5\",\"5693\",\"40\",\"1\",\"Testing\",\"Stims/Figures/100-C-30-3.bmp\",\"None\",\"Up\",\"40\",\"3\",\"4\",\"10\",\"N\",\"C\",\"52\"
\"\",\"\",\"approach-retreat\",\"201\",\"1475889\",\"0.0-201.0\",\"\",\"\",\"3-5\",\"4867\",\"38\",\"1\",\"Testing\",\"Stims/Figures/27-J-0-1.bmp\",\"None\",\"Up\",\"38\",\"3\",\"5\",\"10\",\"N\",\"C\",\"53\"
\"\",\"\",\"approach-retreat\",\"202\",\"1483025\",\"0.0-202.0\",\"\",\"\",\"3-5\",\"5628\",\"40\",\"1\",\"Testing\",\"Stims/Figures/84-C-20-2.bmp\",\"None\",\"Up\",\"40\",\"3\",\"6\",\"10\",\"N\",\"C\",\"54\"
\"\",\"\",\"approach-retreat\",\"203\",\"1490063\",\"0.0-203.0\",\"\",\"\",\"3-5\",\"5533\",\"39\",\"1\",\"Testing\",\"Stims/Figures/118-J-0-2.bmp\",\"None\",\"Right\",\"39\",\"3\",\"7\",\"10\",\"N\",\"C\",\"55\"
\"\",\"\",\"approach-retreat\",\"204\",\"1497456\",\"0.0-204.0\",\"\",\"\",\"3-5\",\"5887\",\"40\",\"1\",\"Testing\",\"Stims/Figures/118-C-20-2.bmp\",\"None\",\"Up\",\"40\",\"3\",\"8\",\"10\",\"N\",\"C\",\"56\"
\"\",\"\",\"approach-retreat\",\"205\",\"1503664\",\"0.0-205.0\",\"\",\"\",\"3-5\",\"4700\",\"37\",\"1\",\"Testing\",\"Stims/Figures/128-J-10-3.bmp\",\"None\",\"Left\",\"37\",\"3\",\"9\",\"10\",\"N\",\"C\",\"57\"
\"\",\"\",\"approach-retreat\",\"206\",\"1509769\",\"0.0-206.0\",\"\",\"\",\"3-5\",\"4597\",\"40\",\"1\",\"Testing\",\"Stims/Figures/93-C-30-1.bmp\",\"None\",\"Up\",\"40\",\"3\",\"10\",\"10\",\"N\",\"C\",\"58\"
\"\",\"\",\"approach-retreat\",\"207\",\"1516544\",\"0.0-207.0\",\"\",\"\",\"3-5\",\"5267\",\"40\",\"1\",\"Testing\",\"Stims/Figures/84-J-0-2.bmp\",\"None\",\"Down\",\"40\",\"3\",\"11\",\"10\",\"N\",\"C\",\"59\"
\"\",\"\",\"approach-retreat\",\"208\",\"1523376\",\"0.0-208.0\",\"\",\"\",\"3-5\",\"5324\",\"38\",\"0\",\"Testing\",\"Stims/Figures/100-J-10-3.bmp\",\"None\",\"Down\",\"40\",\"3\",\"12\",\"10\",\"N\",\"C\",\"60\"
\"\",\"\",\"approach-retreat\",\"209\",\"1531271\",\"0.0-209.0\",\"\",\"\",\"3-5\",\"6389\",\"37\",\"1\",\"Testing\",\"Stims/Figures/27-C-30-1.bmp\",\"None\",\"Right\",\"37\",\"3\",\"13\",\"10\",\"N\",\"C\",\"61\"
\"\",\"\",\"approach-retreat\",\"210\",\"1539010\",\"0.0-210.0\",\"\",\"\",\"3-5\",\"6231\",\"39\",\"1\",\"Testing\",\"Stims/Figures/87-J-10-4.bmp\",\"None\",\"Right\",\"39\",\"3\",\"14\",\"10\",\"N\",\"C\",\"62\"
\"\",\"\",\"approach-retreat\",\"211\",\"1546489\",\"0.0-211.0\",\"\",\"\",\"3-5\",\"5971\",\"40\",\"1\",\"Testing\",\"Stims/Figures/102-C-20-4.bmp\",\"None\",\"Up\",\"40\",\"3\",\"15\",\"10\",\"N\",\"C\",\"63\"
\"\",\"\",\"approach-retreat\",\"212\",\"1554176\",\"0.0-212.0\",\"\",\"\",\"3-5\",\"6181\",\"40\",\"0\",\"Testing\",\"Stims/Figures/7-C-20-4.bmp\",\"None\",\"Down\",\"38\",\"3\",\"16\",\"10\",\"N\",\"C\",\"64\"
\"\",\"\",\"approach-retreat\",\"213\",\"1559720\",\"0.0-213.0\",\"\",\"\",\"3-5\",\"4037\",\"37\",\"1\",\"Testing\",\"Stims/Figures/7-J-10-4.bmp\",\"None\",\"Left\",\"37\",\"3\",\"17\",\"10\",\"N\",\"C\",\"65\"
\"\",\"\",\"approach-retreat\",\"214\",\"1565322\",\"0.0-214.0\",\"\",\"\",\"3-5\",\"4094\",\"38\",\"0\",\"Testing\",\"Stims/Figures/44-J-10-3.bmp\",\"None\",\"Down\",\"40\",\"3\",\"18\",\"10\",\"N\",\"C\",\"66\"
\"\",\"\",\"approach-retreat\",\"215\",\"1571161\",\"0.0-215.0\",\"\",\"\",\"3-5\",\"4331\",\"37\",\"1\",\"Testing\",\"Stims/Figures/57-J-0-1.bmp\",\"None\",\"Left\",\"37\",\"3\",\"19\",\"10\",\"N\",\"C\",\"67\"
\"\",\"\",\"approach-retreat\",\"216\",\"1576690\",\"0.0-216.0\",\"\",\"\",\"3-5\",\"4021\",\"37\",\"1\",\"Testing\",\"Stims/Figures/139-J-0-2.bmp\",\"None\",\"Left\",\"37\",\"3\",\"20\",\"10\",\"N\",\"C\",\"68\"
\"\",\"\",\"approach-retreat\",\"217\",\"1582632\",\"0.0-217.0\",\"\",\"\",\"3-5\",\"4435\",\"37\",\"1\",\"Testing\",\"Stims/Figures/102-J-10-4.bmp\",\"None\",\"Left\",\"37\",\"3\",\"21\",\"10\",\"N\",\"C\",\"69\"
\"\",\"\",\"approach-retreat\",\"218\",\"1589120\",\"0.0-218.0\",\"\",\"\",\"3-5\",\"4981\",\"39\",\"0\",\"Testing\",\"Stims/Figures/87-C-20-4.bmp\",\"None\",\"Right\",\"37\",\"3\",\"22\",\"10\",\"N\",\"C\",\"70\"
\"\",\"\",\"approach-retreat\",\"219\",\"1595527\",\"0.0-219.0\",\"\",\"\",\"3-5\",\"4900\",\"39\",\"0\",\"Testing\",\"Stims/Figures/139-C-20-2.bmp\",\"None\",\"Right\",\"37\",\"3\",\"23\",\"10\",\"N\",\"C\",\"71\"
\"\",\"\",\"approach-retreat\",\"220\",\"1602032\",\"0.0-220.0\",\"\",\"\",\"3-5\",\"4999\",\"37\",\"1\",\"Testing\",\"Stims/Figures/93-J-0-1.bmp\",\"None\",\"Left\",\"37\",\"3\",\"24\",\"10\",\"N\",\"C\",\"72\"
\"\",\"\",\"approach-retreat\",\"221\",\"1608033\",\"0.0-221.0\",\"\",\"\",\"3-5\",\"4493\",\"39\",\"0\",\"Testing\",\"Stims/Figures/128-C-30-3.bmp\",\"None\",\"Right\",\"37\",\"4\",\"1\",\"10\",\"N\",\"C\",\"73\"
\"\",\"\",\"approach-retreat\",\"222\",\"1615784\",\"0.0-222.0\",\"\",\"\",\"3-5\",\"6245\",\"40\",\"1\",\"Testing\",\"Stims/Figures/118-J-0-2.bmp\",\"None\",\"Down\",\"40\",\"4\",\"2\",\"10\",\"N\",\"C\",\"74\"
\"\",\"\",\"approach-retreat\",\"223\",\"1621913\",\"0.0-223.0\",\"\",\"\",\"3-5\",\"4620\",\"37\",\"1\",\"Testing\",\"Stims/Figures/57-J-0-1.bmp\",\"None\",\"Left\",\"37\",\"4\",\"3\",\"10\",\"N\",\"C\",\"75\"
\"\",\"\",\"approach-retreat\",\"224\",\"1627648\",\"0.0-224.0\",\"\",\"\",\"3-5\",\"4229\",\"39\",\"0\",\"Testing\",\"Stims/Figures/87-C-20-4.bmp\",\"None\",\"Right\",\"37\",\"4\",\"4\",\"10\",\"N\",\"C\",\"76\"
\"\",\"\",\"approach-retreat\",\"225\",\"1633273\",\"0.0-225.0\",\"\",\"\",\"3-5\",\"4118\",\"40\",\"1\",\"Testing\",\"Stims/Figures/27-J-0-1.bmp\",\"None\",\"Down\",\"40\",\"4\",\"5\",\"10\",\"N\",\"C\",\"77\"
\"\",\"\",\"approach-retreat\",\"226\",\"1639305\",\"0.0-226.0\",\"\",\"\",\"3-5\",\"4526\",\"40\",\"1\",\"Testing\",\"Stims/Figures/93-C-30-1.bmp\",\"None\",\"Up\",\"40\",\"4\",\"6\",\"10\",\"N\",\"C\",\"78\"
\"\",\"\",\"approach-retreat\",\"227\",\"1644920\",\"0.0-227.0\",\"\",\"\",\"3-5\",\"4107\",\"40\",\"1\",\"Testing\",\"Stims/Figures/102-C-20-4.bmp\",\"None\",\"Up\",\"40\",\"4\",\"7\",\"10\",\"N\",\"C\",\"79\"
\"\",\"\",\"approach-retreat\",\"228\",\"1651711\",\"0.0-228.0\",\"\",\"\",\"3-5\",\"5284\",\"39\",\"1\",\"Testing\",\"Stims/Figures/139-C-20-2.bmp\",\"None\",\"Left\",\"39\",\"4\",\"8\",\"10\",\"N\",\"C\",\"80\"
\"\",\"\",\"approach-retreat\",\"229\",\"1657887\",\"0.0-229.0\",\"\",\"\",\"3-5\",\"4668\",\"40\",\"0\",\"Testing\",\"Stims/Figures/102-J-10-4.bmp\",\"None\",\"Up\",\"38\",\"4\",\"9\",\"10\",\"N\",\"C\",\"81\"
\"\",\"\",\"approach-retreat\",\"230\",\"1664755\",\"0.0-230.0\",\"\",\"\",\"3-5\",\"5359\",\"39\",\"1\",\"Testing\",\"Stims/Figures/100-C-30-3.bmp\",\"None\",\"Left\",\"39\",\"4\",\"10\",\"10\",\"N\",\"C\",\"82\"
\"\",\"\",\"approach-retreat\",\"231\",\"1671183\",\"0.0-231.0\",\"\",\"\",\"3-5\",\"4921\",\"37\",\"1\",\"Testing\",\"Stims/Figures/84-C-20-2.bmp\",\"None\",\"Right\",\"37\",\"4\",\"11\",\"10\",\"N\",\"C\",\"83\"
\"\",\"\",\"approach-retreat\",\"232\",\"1676650\",\"0.0-232.0\",\"\",\"\",\"3-5\",\"3959\",\"39\",\"0\",\"Testing\",\"Stims/Figures/87-J-10-4.bmp\",\"None\",\"Left\",\"37\",\"4\",\"12\",\"10\",\"N\",\"C\",\"84\"
\"\",\"\",\"approach-retreat\",\"233\",\"1682777\",\"0.0-233.0\",\"\",\"\",\"3-5\",\"4619\",\"39\",\"1\",\"Testing\",\"Stims/Figures/128-J-10-3.bmp\",\"None\",\"Right\",\"39\",\"4\",\"13\",\"10\",\"N\",\"C\",\"85\"
\"\",\"\",\"approach-retreat\",\"234\",\"1688905\",\"0.0-234.0\",\"\",\"\",\"3-5\",\"4620\",\"40\",\"0\",\"Testing\",\"Stims/Figures/57-C-30-1.bmp\",\"None\",\"Down\",\"38\",\"4\",\"14\",\"10\",\"N\",\"C\",\"86\"
\"\",\"\",\"approach-retreat\",\"235\",\"1694656\",\"0.0-235.0\",\"\",\"\",\"3-5\",\"4246\",\"40\",\"1\",\"Testing\",\"Stims/Figures/139-J-0-2.bmp\",\"None\",\"Down\",\"40\",\"4\",\"15\",\"10\",\"N\",\"C\",\"87\"
\"\",\"\",\"approach-retreat\",\"236\",\"1700689\",\"0.0-236.0\",\"\",\"\",\"3-5\",\"4527\",\"38\",\"1\",\"Testing\",\"Stims/Figures/27-C-30-1.bmp\",\"None\",\"Down\",\"38\",\"4\",\"16\",\"10\",\"N\",\"C\",\"88\"
\"\",\"\",\"approach-retreat\",\"237\",\"1706744\",\"0.0-237.0\",\"\",\"\",\"3-5\",\"4548\",\"39\",\"1\",\"Testing\",\"Stims/Figures/44-C-30-3.bmp\",\"None\",\"Left\",\"39\",\"4\",\"17\",\"10\",\"N\",\"C\",\"89\"
\"\",\"\",\"approach-retreat\",\"238\",\"1712352\",\"0.0-238.0\",\"\",\"\",\"3-5\",\"4104\",\"38\",\"0\",\"Testing\",\"Stims/Figures/7-C-20-4.bmp\",\"None\",\"Up\",\"40\",\"4\",\"18\",\"10\",\"N\",\"C\",\"90\"
\"\",\"\",\"approach-retreat\",\"239\",\"1718623\",\"0.0-239.0\",\"\",\"\",\"3-5\",\"4764\",\"38\",\"1\",\"Testing\",\"Stims/Figures/7-J-10-4.bmp\",\"None\",\"Up\",\"38\",\"4\",\"19\",\"10\",\"N\",\"C\",\"91\"
\"\",\"\",\"approach-retreat\",\"240\",\"1726929\",\"0.0-240.0\",\"\",\"\",\"3-5\",\"6797\",\"37\",\"0\",\"Testing\",\"Stims/Figures/44-J-10-3.bmp\",\"None\",\"Right\",\"39\",\"4\",\"20\",\"10\",\"N\",\"C\",\"92\"
\"\",\"\",\"approach-retreat\",\"241\",\"1734378\",\"0.0-241.0\",\"\",\"\",\"3-5\",\"5940\",\"38\",\"0\",\"Testing\",\"Stims/Figures/118-C-20-2.bmp\",\"None\",\"Up\",\"40\",\"4\",\"21\",\"10\",\"N\",\"C\",\"93\"
\"\",\"\",\"approach-retreat\",\"242\",\"1741017\",\"0.0-242.0\",\"\",\"\",\"3-5\",\"5132\",\"40\",\"1\",\"Testing\",\"Stims/Figures/100-J-10-3.bmp\",\"None\",\"Down\",\"40\",\"4\",\"22\",\"10\",\"N\",\"C\",\"94\"
\"\",\"\",\"approach-retreat\",\"243\",\"1747880\",\"0.0-243.0\",\"\",\"\",\"3-5\",\"5355\",\"39\",\"1\",\"Testing\",\"Stims/Figures/84-J-0-2.bmp\",\"None\",\"Right\",\"39\",\"4\",\"23\",\"10\",\"N\",\"C\",\"95\"
\"\",\"\",\"approach-retreat\",\"244\",\"1754465\",\"0.0-244.0\",\"\",\"\",\"3-5\",\"5077\",\"37\",\"1\",\"Testing\",\"Stims/Figures/93-J-0-1.bmp\",\"None\",\"Left\",\"37\",\"4\",\"24\",\"10\",\"N\",\"C\",\"96\"
\"16393\",\"\",\"survey-text\",\"245\",\"1770864\",\"0.0-245.0\",\"\",\"{\"\"Q0\"\":\"\"PS160030\"\"}\",\"\",\"\",\"\",\"\",\"\",\"\",\"\",\"\",\"\",\"\",\"\",\"\",\"\",\"\",\"\"
