\"rt\",\"key_press\",\"trial_type\",\"trial_index\",\"time_elapsed\",\"internal_node_id\",\"view_history\",\"responses\",\"Id\",\"Rt\",\"ResKeyCode\",\"ResCorr\",\"TrialType2\",\"Image\",\"Label\",\"Location\",\"CorrectResponse\",\"Block\",\"BlockTrial\",\"Condition\",\"LabelType\",\"Subcondition\",\"trialNum\"
\"38555\",\"32\",\"text\",\"0\",\"38560\",\"0.0-0.0-0.0\",\"\",\"\",\"\",\"\",\"\",\"\",\"\",\"\",\"\",\"\",\"\",\"\",\"\",\"\",\"\",\"\",\"\"
\"93801\",\"\",\"instructions\",\"1\",\"132363\",\"0.0-1.0\",\"[{\"\"page_index\"\":0,\"\"viewing_time\"\":93801}]\",\"\",\"\",\"\",\"\",\"\",\"\",\"\",\"\",\"\",\"\",\"\",\"\",\"\",\"\",\"\",\"\"
\"16650\",\"\",\"survey-multi-choice\",\"2\",\"149050\",\"0.0-2.0\",\"\",\"{\"\"Q0\"\":\"\"Da\"\",\"\"Q1\"\":\"\"Da\"\",\"\"Q2\"\":\"\"Da\"\",\"\"Q3\"\":\"\"Da\"\",\"\"Q4\"\":\"\"Da\"\",\"\"Q5\"\":\"\"Da\"\"}\",\"\",\"\",\"\",\"\",\"\",\"\",\"\",\"\",\"\",\"\",\"\",\"\",\"\",\"\",\"\"
\"\",\"\",\"bio\",\"3\",\"154164\",\"0.0-3.0\",\"\",\"{\"\"age\"\":\"\"19\"\",\"\"gender\"\":\"\"f\"\",\"\"specify\"\":\"\"\"\"}\",\"\",\"\",\"\",\"\",\"\",\"\",\"\",\"\",\"\",\"\",\"\",\"\",\"\",\"\",\"\"
\"\",\"\",\"approach-retreat\",\"4\",\"182523\",\"0.0-4.0\",\"\",\"\",\"1-3\",\"26847\",\"40\",\"1\",\"Training\",\"Stims/Figures/7-J-10-4.bmp\",\"ta:paka\",\"Up\",\"40\",\"1\",\"1\",\"1\",\"P\",\"J\",\"1\"
\"\",\"\",\"approach-retreat\",\"5\",\"190609\",\"0.0-5.0\",\"\",\"\",\"1-3\",\"6577\",\"37\",\"0\",\"Training\",\"Stims/Figures/118-J-0-2.bmp\",\"ta:paka\",\"Left\",\"39\",\"1\",\"2\",\"1\",\"P\",\"J\",\"2\"
\"\",\"\",\"approach-retreat\",\"6\",\"198554\",\"0.0-6.0\",\"\",\"\",\"1-3\",\"6438\",\"38\",\"1\",\"Training\",\"Stims/Figures/94-C-20-2.bmp\",\"na:la:la\",\"Up\",\"38\",\"1\",\"3\",\"1\",\"S\",\"J\",\"3\"
\"\",\"\",\"approach-retreat\",\"7\",\"204272\",\"0.0-7.0\",\"\",\"\",\"1-3\",\"4209\",\"40\",\"1\",\"Training\",\"Stims/Figures/111-J-10-3.bmp\",\"ta:paka\",\"Up\",\"40\",\"1\",\"4\",\"1\",\"P\",\"J\",\"4\"
\"\",\"\",\"approach-retreat\",\"8\",\"210256\",\"0.0-8.0\",\"\",\"\",\"1-3\",\"4477\",\"39\",\"1\",\"Training\",\"Stims/Figures/144-J-10-3.bmp\",\"ta:paka\",\"Left\",\"39\",\"1\",\"5\",\"1\",\"P\",\"J\",\"5\"
\"\",\"\",\"approach-retreat\",\"9\",\"216239\",\"0.0-9.0\",\"\",\"\",\"1-3\",\"4476\",\"37\",\"1\",\"Training\",\"Stims/Figures/71-J-0-1.bmp\",\"ta:paka\",\"Right\",\"37\",\"1\",\"6\",\"1\",\"P\",\"J\",\"6\"
\"\",\"\",\"approach-retreat\",\"10\",\"222545\",\"0.0-10.0\",\"\",\"\",\"1-3\",\"4798\",\"37\",\"1\",\"Training\",\"Stims/Figures/74-C-20-4.bmp\",\"na:la:la\",\"Left\",\"37\",\"1\",\"7\",\"1\",\"S\",\"J\",\"7\"
\"\",\"\",\"approach-retreat\",\"11\",\"228566\",\"0.0-11.0\",\"\",\"\",\"1-3\",\"4515\",\"39\",\"1\",\"Training\",\"Stims/Figures/118-C-20-2.bmp\",\"na:la:la\",\"Right\",\"39\",\"1\",\"8\",\"1\",\"S\",\"J\",\"8\"
\"\",\"\",\"approach-retreat\",\"12\",\"234482\",\"0.0-12.0\",\"\",\"\",\"1-3\",\"4407\",\"40\",\"1\",\"Training\",\"Stims/Figures/71-C-30-1.bmp\",\"na:la:la\",\"Down\",\"40\",\"1\",\"9\",\"1\",\"S\",\"J\",\"9\"
\"\",\"\",\"approach-retreat\",\"13\",\"241189\",\"0.0-13.0\",\"\",\"\",\"1-3\",\"5200\",\"39\",\"1\",\"Training\",\"Stims/Figures/7-C-20-4.bmp\",\"na:la:la\",\"Right\",\"39\",\"1\",\"10\",\"1\",\"S\",\"J\",\"10\"
\"\",\"\",\"approach-retreat\",\"14\",\"247006\",\"0.0-14.0\",\"\",\"\",\"1-3\",\"4311\",\"40\",\"1\",\"Training\",\"Stims/Figures/144-C-30-3.bmp\",\"na:la:la\",\"Down\",\"40\",\"1\",\"11\",\"1\",\"S\",\"J\",\"11\"
\"\",\"\",\"approach-retreat\",\"15\",\"252682\",\"0.0-15.0\",\"\",\"\",\"1-3\",\"4168\",\"38\",\"1\",\"Training\",\"Stims/Figures/94-J-0-2.bmp\",\"ta:paka\",\"Down\",\"38\",\"1\",\"12\",\"1\",\"P\",\"J\",\"12\"
\"\",\"\",\"approach-retreat\",\"16\",\"259835\",\"0.0-16.0\",\"\",\"\",\"1-3\",\"5644\",\"37\",\"1\",\"Training\",\"Stims/Figures/93-C-30-1.bmp\",\"na:la:la\",\"Left\",\"37\",\"1\",\"13\",\"1\",\"S\",\"J\",\"13\"
\"\",\"\",\"approach-retreat\",\"17\",\"265771\",\"0.0-17.0\",\"\",\"\",\"1-3\",\"4430\",\"40\",\"1\",\"Training\",\"Stims/Figures/74-J-10-4.bmp\",\"ta:paka\",\"Up\",\"40\",\"1\",\"14\",\"1\",\"P\",\"J\",\"14\"
\"\",\"\",\"approach-retreat\",\"18\",\"279783\",\"0.0-18.0\",\"\",\"\",\"1-3\",\"12504\",\"38\",\"0\",\"Training\",\"Stims/Figures/111-C-30-3.bmp\",\"na:la:la\",\"Down\",\"40\",\"1\",\"15\",\"1\",\"S\",\"J\",\"15\"
\"\",\"\",\"approach-retreat\",\"19\",\"285964\",\"0.0-19.0\",\"\",\"\",\"1-3\",\"4674\",\"37\",\"1\",\"Training\",\"Stims/Figures/93-J-0-1.bmp\",\"ta:paka\",\"Right\",\"37\",\"1\",\"16\",\"1\",\"P\",\"J\",\"16\"
\"\",\"\",\"approach-retreat\",\"20\",\"291854\",\"0.0-20.0\",\"\",\"\",\"1-3\",\"4380\",\"37\",\"1\",\"Training\",\"Stims/Figures/74-C-20-4.bmp\",\"na:la:la\",\"Left\",\"37\",\"2\",\"1\",\"1\",\"S\",\"J\",\"17\"
\"\",\"\",\"approach-retreat\",\"21\",\"297599\",\"0.0-21.0\",\"\",\"\",\"1-3\",\"4237\",\"39\",\"1\",\"Training\",\"Stims/Figures/71-J-0-1.bmp\",\"ta:paka\",\"Left\",\"39\",\"2\",\"2\",\"1\",\"P\",\"J\",\"18\"
\"\",\"\",\"approach-retreat\",\"22\",\"303410\",\"0.0-22.0\",\"\",\"\",\"1-3\",\"4304\",\"38\",\"1\",\"Training\",\"Stims/Figures/144-J-10-3.bmp\",\"ta:paka\",\"Down\",\"38\",\"2\",\"3\",\"1\",\"P\",\"J\",\"19\"
\"\",\"\",\"approach-retreat\",\"23\",\"309216\",\"0.0-23.0\",\"\",\"\",\"1-3\",\"4298\",\"40\",\"1\",\"Training\",\"Stims/Figures/111-J-10-3.bmp\",\"ta:paka\",\"Up\",\"40\",\"2\",\"4\",\"1\",\"P\",\"J\",\"20\"
\"\",\"\",\"approach-retreat\",\"24\",\"315067\",\"0.0-24.0\",\"\",\"\",\"1-3\",\"4344\",\"39\",\"1\",\"Training\",\"Stims/Figures/118-C-20-2.bmp\",\"na:la:la\",\"Right\",\"39\",\"2\",\"5\",\"1\",\"S\",\"J\",\"21\"
\"\",\"\",\"approach-retreat\",\"25\",\"320988\",\"0.0-25.0\",\"\",\"\",\"1-3\",\"4413\",\"38\",\"1\",\"Training\",\"Stims/Figures/144-C-30-3.bmp\",\"na:la:la\",\"Up\",\"38\",\"2\",\"6\",\"1\",\"S\",\"J\",\"22\"
\"\",\"\",\"approach-retreat\",\"26\",\"327171\",\"0.0-26.0\",\"\",\"\",\"1-3\",\"4676\",\"39\",\"1\",\"Training\",\"Stims/Figures/71-C-30-1.bmp\",\"na:la:la\",\"Right\",\"39\",\"2\",\"7\",\"1\",\"S\",\"J\",\"23\"
\"\",\"\",\"approach-retreat\",\"27\",\"332829\",\"0.0-27.0\",\"\",\"\",\"1-3\",\"4151\",\"40\",\"0\",\"Training\",\"Stims/Figures/94-C-20-2.bmp\",\"na:la:la\",\"Up\",\"38\",\"2\",\"8\",\"1\",\"S\",\"J\",\"24\"
\"\",\"\",\"approach-retreat\",\"28\",\"338555\",\"0.0-28.0\",\"\",\"\",\"1-3\",\"4218\",\"38\",\"1\",\"Training\",\"Stims/Figures/94-J-0-2.bmp\",\"ta:paka\",\"Down\",\"38\",\"2\",\"9\",\"1\",\"P\",\"J\",\"25\"
\"\",\"\",\"approach-retreat\",\"29\",\"346078\",\"0.0-29.0\",\"\",\"\",\"1-3\",\"6017\",\"37\",\"1\",\"Training\",\"Stims/Figures/7-C-20-4.bmp\",\"na:la:la\",\"Left\",\"37\",\"2\",\"10\",\"1\",\"S\",\"J\",\"26\"
\"\",\"\",\"approach-retreat\",\"30\",\"352009\",\"0.0-30.0\",\"\",\"\",\"1-3\",\"4422\",\"39\",\"1\",\"Training\",\"Stims/Figures/93-C-30-1.bmp\",\"na:la:la\",\"Right\",\"39\",\"2\",\"11\",\"1\",\"S\",\"J\",\"27\"
\"\",\"\",\"approach-retreat\",\"31\",\"358773\",\"0.0-31.0\",\"\",\"\",\"1-3\",\"5256\",\"39\",\"1\",\"Training\",\"Stims/Figures/7-J-10-4.bmp\",\"ta:paka\",\"Left\",\"39\",\"2\",\"12\",\"1\",\"P\",\"J\",\"28\"
\"\",\"\",\"approach-retreat\",\"32\",\"364847\",\"0.0-32.0\",\"\",\"\",\"1-3\",\"4566\",\"39\",\"1\",\"Training\",\"Stims/Figures/111-C-30-3.bmp\",\"na:la:la\",\"Right\",\"39\",\"2\",\"13\",\"1\",\"S\",\"J\",\"29\"
\"\",\"\",\"approach-retreat\",\"33\",\"370755\",\"0.0-33.0\",\"\",\"\",\"1-3\",\"4399\",\"40\",\"1\",\"Training\",\"Stims/Figures/74-J-10-4.bmp\",\"ta:paka\",\"Up\",\"40\",\"2\",\"14\",\"1\",\"P\",\"J\",\"30\"
\"\",\"\",\"approach-retreat\",\"34\",\"377472\",\"0.0-34.0\",\"\",\"\",\"1-3\",\"5211\",\"38\",\"1\",\"Training\",\"Stims/Figures/93-J-0-1.bmp\",\"ta:paka\",\"Down\",\"38\",\"2\",\"15\",\"1\",\"P\",\"J\",\"31\"
\"\",\"\",\"approach-retreat\",\"35\",\"383647\",\"0.0-35.0\",\"\",\"\",\"1-3\",\"4668\",\"38\",\"1\",\"Training\",\"Stims/Figures/118-J-0-2.bmp\",\"ta:paka\",\"Down\",\"38\",\"2\",\"16\",\"1\",\"P\",\"J\",\"32\"
\"\",\"\",\"approach-retreat\",\"36\",\"389661\",\"0.0-36.0\",\"\",\"\",\"1-3\",\"4506\",\"39\",\"1\",\"Training\",\"Stims/Figures/144-C-30-3.bmp\",\"na:la:la\",\"Right\",\"39\",\"3\",\"1\",\"1\",\"S\",\"J\",\"33\"
\"\",\"\",\"approach-retreat\",\"37\",\"395984\",\"0.0-37.0\",\"\",\"\",\"1-3\",\"4814\",\"37\",\"1\",\"Training\",\"Stims/Figures/7-C-20-4.bmp\",\"na:la:la\",\"Left\",\"37\",\"3\",\"2\",\"1\",\"S\",\"J\",\"34\"
\"\",\"\",\"approach-retreat\",\"38\",\"401707\",\"0.0-38.0\",\"\",\"\",\"1-3\",\"4216\",\"38\",\"1\",\"Training\",\"Stims/Figures/144-J-10-3.bmp\",\"ta:paka\",\"Down\",\"38\",\"3\",\"3\",\"1\",\"P\",\"J\",\"35\"
\"\",\"\",\"approach-retreat\",\"39\",\"407854\",\"0.0-39.0\",\"\",\"\",\"1-3\",\"4640\",\"38\",\"1\",\"Training\",\"Stims/Figures/71-J-0-1.bmp\",\"ta:paka\",\"Down\",\"38\",\"3\",\"4\",\"1\",\"P\",\"J\",\"36\"
\"\",\"\",\"approach-retreat\",\"40\",\"413442\",\"0.0-40.0\",\"\",\"\",\"1-3\",\"4080\",\"38\",\"1\",\"Training\",\"Stims/Figures/74-J-10-4.bmp\",\"ta:paka\",\"Down\",\"38\",\"3\",\"5\",\"1\",\"P\",\"J\",\"37\"
\"\",\"\",\"approach-retreat\",\"41\",\"419518\",\"0.0-41.0\",\"\",\"\",\"1-3\",\"4569\",\"39\",\"1\",\"Training\",\"Stims/Figures/74-C-20-4.bmp\",\"na:la:la\",\"Right\",\"39\",\"3\",\"6\",\"1\",\"S\",\"J\",\"38\"
\"\",\"\",\"approach-retreat\",\"42\",\"425662\",\"0.0-42.0\",\"\",\"\",\"1-3\",\"4636\",\"40\",\"1\",\"Training\",\"Stims/Figures/71-C-30-1.bmp\",\"na:la:la\",\"Down\",\"40\",\"3\",\"7\",\"1\",\"S\",\"J\",\"39\"
\"\",\"\",\"approach-retreat\",\"43\",\"431975\",\"0.0-43.0\",\"\",\"\",\"1-3\",\"4806\",\"40\",\"1\",\"Training\",\"Stims/Figures/94-J-0-2.bmp\",\"ta:paka\",\"Up\",\"40\",\"3\",\"8\",\"1\",\"P\",\"J\",\"40\"
\"\",\"\",\"approach-retreat\",\"44\",\"437626\",\"0.0-44.0\",\"\",\"\",\"1-3\",\"4143\",\"40\",\"1\",\"Training\",\"Stims/Figures/7-J-10-4.bmp\",\"ta:paka\",\"Up\",\"40\",\"3\",\"9\",\"1\",\"P\",\"J\",\"41\"
\"\",\"\",\"approach-retreat\",\"45\",\"443411\",\"0.0-45.0\",\"\",\"\",\"1-3\",\"4279\",\"40\",\"1\",\"Training\",\"Stims/Figures/111-J-10-3.bmp\",\"ta:paka\",\"Up\",\"40\",\"3\",\"10\",\"1\",\"P\",\"J\",\"42\"
\"\",\"\",\"approach-retreat\",\"46\",\"449447\",\"0.0-46.0\",\"\",\"\",\"1-3\",\"4528\",\"37\",\"1\",\"Training\",\"Stims/Figures/94-C-20-2.bmp\",\"na:la:la\",\"Left\",\"37\",\"3\",\"11\",\"1\",\"S\",\"J\",\"43\"
\"\",\"\",\"approach-retreat\",\"47\",\"455219\",\"0.0-47.0\",\"\",\"\",\"1-3\",\"4265\",\"40\",\"1\",\"Training\",\"Stims/Figures/118-J-0-2.bmp\",\"ta:paka\",\"Up\",\"40\",\"3\",\"12\",\"1\",\"P\",\"J\",\"44\"
\"\",\"\",\"approach-retreat\",\"48\",\"461165\",\"0.0-48.0\",\"\",\"\",\"1-3\",\"4438\",\"39\",\"1\",\"Training\",\"Stims/Figures/93-J-0-1.bmp\",\"ta:paka\",\"Left\",\"39\",\"3\",\"13\",\"1\",\"P\",\"J\",\"45\"
\"\",\"\",\"approach-retreat\",\"49\",\"467572\",\"0.0-49.0\",\"\",\"\",\"1-3\",\"4901\",\"39\",\"1\",\"Training\",\"Stims/Figures/118-C-20-2.bmp\",\"na:la:la\",\"Right\",\"39\",\"3\",\"14\",\"1\",\"S\",\"J\",\"46\"
\"\",\"\",\"approach-retreat\",\"50\",\"474246\",\"0.0-50.0\",\"\",\"\",\"1-3\",\"5165\",\"39\",\"1\",\"Training\",\"Stims/Figures/111-C-30-3.bmp\",\"na:la:la\",\"Right\",\"39\",\"3\",\"15\",\"1\",\"S\",\"J\",\"47\"
\"\",\"\",\"approach-retreat\",\"51\",\"480676\",\"0.0-51.0\",\"\",\"\",\"1-3\",\"4922\",\"37\",\"1\",\"Training\",\"Stims/Figures/93-C-30-1.bmp\",\"na:la:la\",\"Left\",\"37\",\"3\",\"16\",\"1\",\"S\",\"J\",\"48\"
\"\",\"\",\"approach-retreat\",\"52\",\"486271\",\"0.0-52.0\",\"\",\"\",\"1-3\",\"4087\",\"37\",\"1\",\"Training\",\"Stims/Figures/74-C-20-4.bmp\",\"na:la:la\",\"Left\",\"37\",\"4\",\"1\",\"1\",\"S\",\"J\",\"49\"
\"\",\"\",\"approach-retreat\",\"53\",\"492188\",\"0.0-53.0\",\"\",\"\",\"1-3\",\"4409\",\"40\",\"1\",\"Training\",\"Stims/Figures/93-C-30-1.bmp\",\"na:la:la\",\"Down\",\"40\",\"4\",\"2\",\"1\",\"S\",\"J\",\"50\"
\"\",\"\",\"approach-retreat\",\"54\",\"498273\",\"0.0-54.0\",\"\",\"\",\"1-3\",\"4577\",\"40\",\"1\",\"Training\",\"Stims/Figures/93-J-0-1.bmp\",\"ta:paka\",\"Up\",\"40\",\"4\",\"3\",\"1\",\"P\",\"J\",\"51\"
\"\",\"\",\"approach-retreat\",\"55\",\"504720\",\"0.0-55.0\",\"\",\"\",\"1-3\",\"4940\",\"37\",\"1\",\"Training\",\"Stims/Figures/118-J-0-2.bmp\",\"ta:paka\",\"Right\",\"37\",\"4\",\"4\",\"1\",\"P\",\"J\",\"52\"
\"\",\"\",\"approach-retreat\",\"56\",\"510297\",\"0.0-56.0\",\"\",\"\",\"1-3\",\"4070\",\"39\",\"1\",\"Training\",\"Stims/Figures/7-C-20-4.bmp\",\"na:la:la\",\"Right\",\"39\",\"4\",\"5\",\"1\",\"S\",\"J\",\"53\"
\"\",\"\",\"approach-retreat\",\"57\",\"516222\",\"0.0-57.0\",\"\",\"\",\"1-3\",\"4416\",\"37\",\"1\",\"Training\",\"Stims/Figures/118-C-20-2.bmp\",\"na:la:la\",\"Left\",\"37\",\"4\",\"6\",\"1\",\"S\",\"J\",\"54\"
\"\",\"\",\"approach-retreat\",\"58\",\"521940\",\"0.0-58.0\",\"\",\"\",\"1-3\",\"4210\",\"38\",\"1\",\"Training\",\"Stims/Figures/94-C-20-2.bmp\",\"na:la:la\",\"Up\",\"38\",\"4\",\"7\",\"1\",\"S\",\"J\",\"55\"
\"\",\"\",\"approach-retreat\",\"59\",\"527591\",\"0.0-59.0\",\"\",\"\",\"1-3\",\"4143\",\"39\",\"1\",\"Training\",\"Stims/Figures/71-C-30-1.bmp\",\"na:la:la\",\"Right\",\"39\",\"4\",\"8\",\"1\",\"S\",\"J\",\"56\"
\"\",\"\",\"approach-retreat\",\"60\",\"533117\",\"0.0-60.0\",\"\",\"\",\"1-3\",\"4018\",\"37\",\"1\",\"Training\",\"Stims/Figures/94-J-0-2.bmp\",\"ta:paka\",\"Right\",\"37\",\"4\",\"9\",\"1\",\"P\",\"J\",\"57\"
\"\",\"\",\"approach-retreat\",\"61\",\"538982\",\"0.0-61.0\",\"\",\"\",\"1-3\",\"4358\",\"39\",\"1\",\"Training\",\"Stims/Figures/144-J-10-3.bmp\",\"ta:paka\",\"Left\",\"39\",\"4\",\"10\",\"1\",\"P\",\"J\",\"58\"
\"\",\"\",\"approach-retreat\",\"62\",\"544793\",\"0.0-62.0\",\"\",\"\",\"1-3\",\"4305\",\"40\",\"1\",\"Training\",\"Stims/Figures/71-J-0-1.bmp\",\"ta:paka\",\"Up\",\"40\",\"4\",\"11\",\"1\",\"P\",\"J\",\"59\"
\"\",\"\",\"approach-retreat\",\"63\",\"550556\",\"0.0-63.0\",\"\",\"\",\"1-3\",\"4255\",\"38\",\"1\",\"Training\",\"Stims/Figures/111-J-10-3.bmp\",\"ta:paka\",\"Down\",\"38\",\"4\",\"12\",\"1\",\"P\",\"J\",\"60\"
\"\",\"\",\"approach-retreat\",\"64\",\"556271\",\"0.0-64.0\",\"\",\"\",\"1-3\",\"4208\",\"38\",\"1\",\"Training\",\"Stims/Figures/74-J-10-4.bmp\",\"ta:paka\",\"Down\",\"38\",\"4\",\"13\",\"1\",\"P\",\"J\",\"61\"
\"\",\"\",\"approach-retreat\",\"65\",\"562033\",\"0.0-65.0\",\"\",\"\",\"1-3\",\"4254\",\"38\",\"1\",\"Training\",\"Stims/Figures/7-J-10-4.bmp\",\"ta:paka\",\"Down\",\"38\",\"4\",\"14\",\"1\",\"P\",\"J\",\"62\"
\"\",\"\",\"approach-retreat\",\"66\",\"567780\",\"0.0-66.0\",\"\",\"\",\"1-3\",\"4238\",\"38\",\"1\",\"Training\",\"Stims/Figures/111-C-30-3.bmp\",\"na:la:la\",\"Up\",\"38\",\"4\",\"15\",\"1\",\"S\",\"J\",\"63\"
\"\",\"\",\"approach-retreat\",\"67\",\"573640\",\"0.0-67.0\",\"\",\"\",\"1-3\",\"4353\",\"37\",\"1\",\"Training\",\"Stims/Figures/144-C-30-3.bmp\",\"na:la:la\",\"Left\",\"37\",\"4\",\"16\",\"1\",\"S\",\"J\",\"64\"
\"\",\"\",\"approach-retreat\",\"68\",\"579470\",\"0.0-68.0\",\"\",\"\",\"1-3\",\"4323\",\"38\",\"1\",\"Training\",\"Stims/Figures/111-J-10-3.bmp\",\"ta:paka\",\"Down\",\"38\",\"5\",\"1\",\"1\",\"P\",\"J\",\"65\"
\"\",\"\",\"approach-retreat\",\"69\",\"585503\",\"0.0-69.0\",\"\",\"\",\"1-3\",\"4525\",\"40\",\"1\",\"Training\",\"Stims/Figures/144-C-30-3.bmp\",\"na:la:la\",\"Down\",\"40\",\"5\",\"2\",\"1\",\"S\",\"J\",\"66\"
\"\",\"\",\"approach-retreat\",\"70\",\"591174\",\"0.0-70.0\",\"\",\"\",\"1-3\",\"4163\",\"39\",\"1\",\"Training\",\"Stims/Figures/93-C-30-1.bmp\",\"na:la:la\",\"Right\",\"39\",\"5\",\"3\",\"1\",\"S\",\"J\",\"67\"
\"\",\"\",\"approach-retreat\",\"71\",\"596952\",\"0.0-71.0\",\"\",\"\",\"1-3\",\"4271\",\"38\",\"1\",\"Training\",\"Stims/Figures/74-C-20-4.bmp\",\"na:la:la\",\"Up\",\"38\",\"5\",\"4\",\"1\",\"S\",\"J\",\"68\"
\"\",\"\",\"approach-retreat\",\"72\",\"602743\",\"0.0-72.0\",\"\",\"\",\"1-3\",\"4283\",\"40\",\"1\",\"Training\",\"Stims/Figures/118-J-0-2.bmp\",\"ta:paka\",\"Up\",\"40\",\"5\",\"5\",\"1\",\"P\",\"J\",\"69\"
\"\",\"\",\"approach-retreat\",\"73\",\"608395\",\"0.0-73.0\",\"\",\"\",\"1-3\",\"4144\",\"37\",\"1\",\"Training\",\"Stims/Figures/111-C-30-3.bmp\",\"na:la:la\",\"Left\",\"37\",\"5\",\"6\",\"1\",\"S\",\"J\",\"70\"
\"\",\"\",\"approach-retreat\",\"74\",\"614611\",\"0.0-74.0\",\"\",\"\",\"1-3\",\"4708\",\"40\",\"1\",\"Training\",\"Stims/Figures/7-J-10-4.bmp\",\"ta:paka\",\"Up\",\"40\",\"5\",\"7\",\"1\",\"P\",\"J\",\"71\"
\"\",\"\",\"approach-retreat\",\"75\",\"620438\",\"0.0-75.0\",\"\",\"\",\"1-3\",\"4319\",\"38\",\"1\",\"Training\",\"Stims/Figures/144-J-10-3.bmp\",\"ta:paka\",\"Down\",\"38\",\"5\",\"8\",\"1\",\"P\",\"J\",\"72\"
\"\",\"\",\"approach-retreat\",\"76\",\"626147\",\"0.0-76.0\",\"\",\"\",\"1-3\",\"4202\",\"37\",\"1\",\"Training\",\"Stims/Figures/118-C-20-2.bmp\",\"na:la:la\",\"Left\",\"37\",\"5\",\"9\",\"1\",\"S\",\"J\",\"73\"
\"\",\"\",\"approach-retreat\",\"77\",\"631906\",\"0.0-77.0\",\"\",\"\",\"1-3\",\"4253\",\"39\",\"1\",\"Training\",\"Stims/Figures/74-J-10-4.bmp\",\"ta:paka\",\"Left\",\"39\",\"5\",\"10\",\"1\",\"P\",\"J\",\"74\"
\"\",\"\",\"approach-retreat\",\"78\",\"637670\",\"0.0-78.0\",\"\",\"\",\"1-3\",\"4258\",\"38\",\"1\",\"Training\",\"Stims/Figures/93-J-0-1.bmp\",\"ta:paka\",\"Down\",\"38\",\"5\",\"11\",\"1\",\"P\",\"J\",\"75\"
\"\",\"\",\"approach-retreat\",\"79\",\"643754\",\"0.0-79.0\",\"\",\"\",\"1-3\",\"4578\",\"38\",\"1\",\"Training\",\"Stims/Figures/71-C-30-1.bmp\",\"na:la:la\",\"Up\",\"38\",\"5\",\"12\",\"1\",\"S\",\"J\",\"76\"
\"\",\"\",\"approach-retreat\",\"80\",\"649352\",\"0.0-80.0\",\"\",\"\",\"1-3\",\"4089\",\"37\",\"1\",\"Training\",\"Stims/Figures/71-J-0-1.bmp\",\"ta:paka\",\"Right\",\"37\",\"5\",\"13\",\"1\",\"P\",\"J\",\"77\"
\"\",\"\",\"approach-retreat\",\"81\",\"655118\",\"0.0-81.0\",\"\",\"\",\"1-3\",\"4258\",\"37\",\"1\",\"Training\",\"Stims/Figures/7-C-20-4.bmp\",\"na:la:la\",\"Left\",\"37\",\"5\",\"14\",\"1\",\"S\",\"J\",\"78\"
\"\",\"\",\"approach-retreat\",\"82\",\"660582\",\"0.0-82.0\",\"\",\"\",\"1-3\",\"3958\",\"37\",\"0\",\"Training\",\"Stims/Figures/94-C-20-2.bmp\",\"na:la:la\",\"Right\",\"39\",\"5\",\"15\",\"1\",\"S\",\"J\",\"79\"
\"\",\"\",\"approach-retreat\",\"83\",\"666192\",\"0.0-83.0\",\"\",\"\",\"1-3\",\"4102\",\"37\",\"1\",\"Training\",\"Stims/Figures/94-J-0-2.bmp\",\"ta:paka\",\"Right\",\"37\",\"5\",\"16\",\"1\",\"P\",\"J\",\"80\"
\"\",\"\",\"approach-retreat\",\"84\",\"673265\",\"0.0-84.0\",\"\",\"\",\"1-3\",\"5563\",\"40\",\"1\",\"Training\",\"Stims/Figures/111-C-30-3.bmp\",\"na:la:la\",\"Down\",\"40\",\"6\",\"1\",\"1\",\"S\",\"J\",\"81\"
\"\",\"\",\"approach-retreat\",\"85\",\"678955\",\"0.0-85.0\",\"\",\"\",\"1-3\",\"4180\",\"39\",\"1\",\"Training\",\"Stims/Figures/93-J-0-1.bmp\",\"ta:paka\",\"Left\",\"39\",\"6\",\"2\",\"1\",\"P\",\"J\",\"82\"
\"\",\"\",\"approach-retreat\",\"86\",\"685521\",\"0.0-86.0\",\"\",\"\",\"1-3\",\"5055\",\"39\",\"1\",\"Training\",\"Stims/Figures/118-C-20-2.bmp\",\"na:la:la\",\"Right\",\"39\",\"6\",\"3\",\"1\",\"S\",\"J\",\"83\"
\"\",\"\",\"approach-retreat\",\"87\",\"692832\",\"0.0-87.0\",\"\",\"\",\"1-3\",\"5804\",\"40\",\"1\",\"Training\",\"Stims/Figures/94-C-20-2.bmp\",\"na:la:la\",\"Down\",\"40\",\"6\",\"4\",\"1\",\"S\",\"J\",\"84\"
\"\",\"\",\"approach-retreat\",\"88\",\"698945\",\"0.0-88.0\",\"\",\"\",\"1-3\",\"4605\",\"38\",\"1\",\"Training\",\"Stims/Figures/74-C-20-4.bmp\",\"na:la:la\",\"Up\",\"38\",\"6\",\"5\",\"1\",\"S\",\"J\",\"85\"
\"\",\"\",\"approach-retreat\",\"89\",\"704754\",\"0.0-89.0\",\"\",\"\",\"1-3\",\"4300\",\"38\",\"1\",\"Training\",\"Stims/Figures/111-J-10-3.bmp\",\"ta:paka\",\"Down\",\"38\",\"6\",\"6\",\"1\",\"P\",\"J\",\"86\"
\"\",\"\",\"approach-retreat\",\"90\",\"710483\",\"0.0-90.0\",\"\",\"\",\"1-3\",\"4220\",\"40\",\"1\",\"Training\",\"Stims/Figures/74-J-10-4.bmp\",\"ta:paka\",\"Up\",\"40\",\"6\",\"7\",\"1\",\"P\",\"J\",\"87\"
\"\",\"\",\"approach-retreat\",\"91\",\"716060\",\"0.0-91.0\",\"\",\"\",\"1-3\",\"4071\",\"39\",\"1\",\"Training\",\"Stims/Figures/71-J-0-1.bmp\",\"ta:paka\",\"Left\",\"39\",\"6\",\"8\",\"1\",\"P\",\"J\",\"88\"
\"\",\"\",\"approach-retreat\",\"92\",\"722111\",\"0.0-92.0\",\"\",\"\",\"1-3\",\"4542\",\"39\",\"1\",\"Training\",\"Stims/Figures/93-C-30-1.bmp\",\"na:la:la\",\"Right\",\"39\",\"6\",\"9\",\"1\",\"S\",\"J\",\"89\"
\"\",\"\",\"approach-retreat\",\"93\",\"727797\",\"0.0-93.0\",\"\",\"\",\"1-3\",\"4178\",\"38\",\"1\",\"Training\",\"Stims/Figures/71-C-30-1.bmp\",\"na:la:la\",\"Up\",\"38\",\"6\",\"10\",\"1\",\"S\",\"J\",\"90\"
\"\",\"\",\"approach-retreat\",\"94\",\"736644\",\"0.0-94.0\",\"\",\"\",\"1-3\",\"7340\",\"39\",\"1\",\"Training\",\"Stims/Figures/7-J-10-4.bmp\",\"ta:paka\",\"Left\",\"39\",\"6\",\"11\",\"1\",\"P\",\"J\",\"91\"
\"\",\"\",\"approach-retreat\",\"95\",\"742324\",\"0.0-95.0\",\"\",\"\",\"1-3\",\"4176\",\"39\",\"1\",\"Training\",\"Stims/Figures/118-J-0-2.bmp\",\"ta:paka\",\"Left\",\"39\",\"6\",\"12\",\"1\",\"P\",\"J\",\"92\"
\"\",\"\",\"approach-retreat\",\"96\",\"751518\",\"0.0-96.0\",\"\",\"\",\"1-3\",\"7687\",\"37\",\"1\",\"Training\",\"Stims/Figures/94-J-0-2.bmp\",\"ta:paka\",\"Right\",\"37\",\"6\",\"13\",\"1\",\"P\",\"J\",\"93\"
\"\",\"\",\"approach-retreat\",\"97\",\"757153\",\"0.0-97.0\",\"\",\"\",\"1-3\",\"4127\",\"39\",\"1\",\"Training\",\"Stims/Figures/144-C-30-3.bmp\",\"na:la:la\",\"Right\",\"39\",\"6\",\"14\",\"1\",\"S\",\"J\",\"94\"
\"\",\"\",\"approach-retreat\",\"98\",\"762878\",\"0.0-98.0\",\"\",\"\",\"1-3\",\"4218\",\"38\",\"1\",\"Training\",\"Stims/Figures/144-J-10-3.bmp\",\"ta:paka\",\"Down\",\"38\",\"6\",\"15\",\"1\",\"P\",\"J\",\"95\"
\"\",\"\",\"approach-retreat\",\"99\",\"768782\",\"0.0-99.0\",\"\",\"\",\"1-3\",\"4398\",\"38\",\"1\",\"Training\",\"Stims/Figures/7-C-20-4.bmp\",\"na:la:la\",\"Up\",\"38\",\"6\",\"16\",\"1\",\"S\",\"J\",\"96\"
\"\",\"\",\"approach-retreat\",\"100\",\"775142\",\"0.0-100.0\",\"\",\"\",\"1-3\",\"4852\",\"40\",\"1\",\"Training\",\"Stims/Figures/93-C-30-1.bmp\",\"na:la:la\",\"Down\",\"40\",\"7\",\"1\",\"1\",\"S\",\"J\",\"97\"
\"\",\"\",\"approach-retreat\",\"101\",\"781077\",\"0.0-101.0\",\"\",\"\",\"1-3\",\"4428\",\"40\",\"1\",\"Training\",\"Stims/Figures/111-C-30-3.bmp\",\"na:la:la\",\"Down\",\"40\",\"7\",\"2\",\"1\",\"S\",\"J\",\"98\"
\"\",\"\",\"approach-retreat\",\"102\",\"786666\",\"0.0-102.0\",\"\",\"\",\"1-3\",\"4082\",\"38\",\"1\",\"Training\",\"Stims/Figures/74-C-20-4.bmp\",\"na:la:la\",\"Up\",\"38\",\"7\",\"3\",\"1\",\"S\",\"J\",\"99\"
\"\",\"\",\"approach-retreat\",\"103\",\"792378\",\"0.0-103.0\",\"\",\"\",\"1-3\",\"4203\",\"40\",\"1\",\"Training\",\"Stims/Figures/93-J-0-1.bmp\",\"ta:paka\",\"Up\",\"40\",\"7\",\"4\",\"1\",\"P\",\"J\",\"100\"
\"\",\"\",\"approach-retreat\",\"104\",\"798262\",\"0.0-104.0\",\"\",\"\",\"1-3\",\"4378\",\"37\",\"1\",\"Training\",\"Stims/Figures/94-J-0-2.bmp\",\"ta:paka\",\"Right\",\"37\",\"7\",\"5\",\"1\",\"P\",\"J\",\"101\"
\"\",\"\",\"approach-retreat\",\"105\",\"803933\",\"0.0-105.0\",\"\",\"\",\"1-3\",\"4163\",\"40\",\"1\",\"Training\",\"Stims/Figures/111-J-10-3.bmp\",\"ta:paka\",\"Up\",\"40\",\"7\",\"6\",\"1\",\"P\",\"J\",\"102\"
\"\",\"\",\"approach-retreat\",\"106\",\"810406\",\"0.0-106.0\",\"\",\"\",\"1-3\",\"4966\",\"40\",\"1\",\"Training\",\"Stims/Figures/118-C-20-2.bmp\",\"na:la:la\",\"Down\",\"40\",\"7\",\"7\",\"1\",\"S\",\"J\",\"103\"
\"\",\"\",\"approach-retreat\",\"107\",\"816401\",\"0.0-107.0\",\"\",\"\",\"1-3\",\"4487\",\"37\",\"1\",\"Training\",\"Stims/Figures/71-C-30-1.bmp\",\"na:la:la\",\"Left\",\"37\",\"7\",\"8\",\"1\",\"S\",\"J\",\"104\"
\"\",\"\",\"approach-retreat\",\"108\",\"822673\",\"0.0-108.0\",\"\",\"\",\"1-3\",\"4764\",\"40\",\"1\",\"Training\",\"Stims/Figures/74-J-10-4.bmp\",\"ta:paka\",\"Up\",\"40\",\"7\",\"9\",\"1\",\"P\",\"J\",\"105\"
\"\",\"\",\"approach-retreat\",\"109\",\"828354\",\"0.0-109.0\",\"\",\"\",\"1-3\",\"4174\",\"38\",\"1\",\"Training\",\"Stims/Figures/7-J-10-4.bmp\",\"ta:paka\",\"Down\",\"38\",\"7\",\"10\",\"1\",\"P\",\"J\",\"106\"
\"\",\"\",\"approach-retreat\",\"110\",\"834049\",\"0.0-110.0\",\"\",\"\",\"1-3\",\"4185\",\"37\",\"1\",\"Training\",\"Stims/Figures/7-C-20-4.bmp\",\"na:la:la\",\"Left\",\"37\",\"7\",\"11\",\"1\",\"S\",\"J\",\"107\"
\"\",\"\",\"approach-retreat\",\"111\",\"839625\",\"0.0-111.0\",\"\",\"\",\"1-3\",\"4068\",\"37\",\"1\",\"Training\",\"Stims/Figures/71-J-0-1.bmp\",\"ta:paka\",\"Right\",\"37\",\"7\",\"12\",\"1\",\"P\",\"J\",\"108\"
\"\",\"\",\"approach-retreat\",\"112\",\"845559\",\"0.0-112.0\",\"\",\"\",\"1-3\",\"4423\",\"37\",\"1\",\"Training\",\"Stims/Figures/94-C-20-2.bmp\",\"na:la:la\",\"Left\",\"37\",\"7\",\"13\",\"1\",\"S\",\"J\",\"109\"
\"\",\"\",\"approach-retreat\",\"113\",\"851641\",\"0.0-113.0\",\"\",\"\",\"1-3\",\"4573\",\"39\",\"1\",\"Training\",\"Stims/Figures/144-J-10-3.bmp\",\"ta:paka\",\"Left\",\"39\",\"7\",\"14\",\"1\",\"P\",\"J\",\"110\"
\"\",\"\",\"approach-retreat\",\"114\",\"863102\",\"0.0-114.0\",\"\",\"\",\"1-3\",\"9953\",\"37\",\"1\",\"Training\",\"Stims/Figures/118-J-0-2.bmp\",\"ta:paka\",\"Right\",\"37\",\"7\",\"15\",\"1\",\"P\",\"J\",\"111\"
\"\",\"\",\"approach-retreat\",\"115\",\"868900\",\"0.0-115.0\",\"\",\"\",\"1-3\",\"4292\",\"39\",\"1\",\"Training\",\"Stims/Figures/144-C-30-3.bmp\",\"na:la:la\",\"Right\",\"39\",\"7\",\"16\",\"1\",\"S\",\"J\",\"112\"
\"\",\"\",\"approach-retreat\",\"116\",\"874529\",\"0.0-116.0\",\"\",\"\",\"1-3\",\"4120\",\"38\",\"1\",\"Training\",\"Stims/Figures/93-C-30-1.bmp\",\"na:la:la\",\"Up\",\"38\",\"8\",\"1\",\"1\",\"S\",\"J\",\"113\"
\"\",\"\",\"approach-retreat\",\"117\",\"880466\",\"0.0-117.0\",\"\",\"\",\"1-3\",\"4431\",\"39\",\"1\",\"Training\",\"Stims/Figures/94-J-0-2.bmp\",\"ta:paka\",\"Left\",\"39\",\"8\",\"2\",\"1\",\"P\",\"J\",\"114\"
\"\",\"\",\"approach-retreat\",\"118\",\"886905\",\"0.0-118.0\",\"\",\"\",\"1-3\",\"4930\",\"40\",\"1\",\"Training\",\"Stims/Figures/111-C-30-3.bmp\",\"na:la:la\",\"Down\",\"40\",\"8\",\"3\",\"1\",\"S\",\"J\",\"115\"
\"\",\"\",\"approach-retreat\",\"119\",\"892538\",\"0.0-119.0\",\"\",\"\",\"1-3\",\"4126\",\"37\",\"1\",\"Training\",\"Stims/Figures/118-J-0-2.bmp\",\"ta:paka\",\"Right\",\"37\",\"8\",\"4\",\"1\",\"P\",\"J\",\"116\"
\"\",\"\",\"approach-retreat\",\"120\",\"898169\",\"0.0-120.0\",\"\",\"\",\"1-3\",\"4124\",\"38\",\"1\",\"Training\",\"Stims/Figures/71-J-0-1.bmp\",\"ta:paka\",\"Down\",\"38\",\"8\",\"5\",\"1\",\"P\",\"J\",\"117\"
\"\",\"\",\"approach-retreat\",\"121\",\"903787\",\"0.0-121.0\",\"\",\"\",\"1-3\",\"4110\",\"37\",\"1\",\"Training\",\"Stims/Figures/71-C-30-1.bmp\",\"na:la:la\",\"Left\",\"37\",\"8\",\"6\",\"1\",\"S\",\"J\",\"118\"
\"\",\"\",\"approach-retreat\",\"122\",\"909391\",\"0.0-122.0\",\"\",\"\",\"1-3\",\"4097\",\"37\",\"1\",\"Training\",\"Stims/Figures/7-J-10-4.bmp\",\"ta:paka\",\"Right\",\"37\",\"8\",\"7\",\"1\",\"P\",\"J\",\"119\"
\"\",\"\",\"approach-retreat\",\"123\",\"915083\",\"0.0-123.0\",\"\",\"\",\"1-3\",\"4184\",\"37\",\"1\",\"Training\",\"Stims/Figures/93-J-0-1.bmp\",\"ta:paka\",\"Right\",\"37\",\"8\",\"8\",\"1\",\"P\",\"J\",\"120\"
\"\",\"\",\"approach-retreat\",\"124\",\"920699\",\"0.0-124.0\",\"\",\"\",\"1-3\",\"4109\",\"40\",\"1\",\"Training\",\"Stims/Figures/144-J-10-3.bmp\",\"ta:paka\",\"Up\",\"40\",\"8\",\"9\",\"1\",\"P\",\"J\",\"121\"
\"\",\"\",\"approach-retreat\",\"125\",\"928519\",\"0.0-125.0\",\"\",\"\",\"1-3\",\"6314\",\"38\",\"1\",\"Training\",\"Stims/Figures/74-C-20-4.bmp\",\"na:la:la\",\"Up\",\"38\",\"8\",\"10\",\"1\",\"S\",\"J\",\"122\"
\"\",\"\",\"approach-retreat\",\"126\",\"936633\",\"0.0-126.0\",\"\",\"\",\"1-3\",\"6606\",\"40\",\"1\",\"Training\",\"Stims/Figures/144-C-30-3.bmp\",\"na:la:la\",\"Down\",\"40\",\"8\",\"11\",\"1\",\"S\",\"J\",\"123\"
\"\",\"\",\"approach-retreat\",\"127\",\"942180\",\"0.0-127.0\",\"\",\"\",\"1-3\",\"4039\",\"38\",\"1\",\"Training\",\"Stims/Figures/111-J-10-3.bmp\",\"ta:paka\",\"Down\",\"38\",\"8\",\"12\",\"1\",\"P\",\"J\",\"124\"
\"\",\"\",\"approach-retreat\",\"128\",\"947969\",\"0.0-128.0\",\"\",\"\",\"1-3\",\"4283\",\"37\",\"1\",\"Training\",\"Stims/Figures/7-C-20-4.bmp\",\"na:la:la\",\"Left\",\"37\",\"8\",\"13\",\"1\",\"S\",\"J\",\"125\"
\"\",\"\",\"approach-retreat\",\"129\",\"954082\",\"0.0-129.0\",\"\",\"\",\"1-3\",\"4605\",\"37\",\"1\",\"Training\",\"Stims/Figures/118-C-20-2.bmp\",\"na:la:la\",\"Left\",\"37\",\"8\",\"14\",\"1\",\"S\",\"J\",\"126\"
\"\",\"\",\"approach-retreat\",\"130\",\"959697\",\"0.0-130.0\",\"\",\"\",\"1-3\",\"4108\",\"37\",\"1\",\"Training\",\"Stims/Figures/74-J-10-4.bmp\",\"ta:paka\",\"Right\",\"37\",\"8\",\"15\",\"1\",\"P\",\"J\",\"127\"
\"\",\"\",\"approach-retreat\",\"131\",\"965924\",\"0.0-131.0\",\"\",\"\",\"1-3\",\"4718\",\"38\",\"1\",\"Training\",\"Stims/Figures/94-C-20-2.bmp\",\"na:la:la\",\"Up\",\"38\",\"8\",\"16\",\"1\",\"S\",\"J\",\"128\"
\"\",\"\",\"approach-retreat\",\"132\",\"971632\",\"0.0-132.0\",\"\",\"\",\"1-3\",\"4200\",\"37\",\"1\",\"Training\",\"Stims/Figures/7-C-20-4.bmp\",\"na:la:la\",\"Left\",\"37\",\"9\",\"1\",\"1\",\"S\",\"J\",\"129\"
\"\",\"\",\"approach-retreat\",\"133\",\"977563\",\"0.0-133.0\",\"\",\"\",\"1-3\",\"4424\",\"39\",\"1\",\"Training\",\"Stims/Figures/74-C-20-4.bmp\",\"na:la:la\",\"Right\",\"39\",\"9\",\"2\",\"1\",\"S\",\"J\",\"130\"
\"\",\"\",\"approach-retreat\",\"134\",\"983179\",\"0.0-134.0\",\"\",\"\",\"1-3\",\"4111\",\"39\",\"1\",\"Training\",\"Stims/Figures/93-C-30-1.bmp\",\"na:la:la\",\"Right\",\"39\",\"9\",\"3\",\"1\",\"S\",\"J\",\"131\"
\"\",\"\",\"approach-retreat\",\"135\",\"989225\",\"0.0-135.0\",\"\",\"\",\"1-3\",\"4538\",\"38\",\"1\",\"Training\",\"Stims/Figures/71-C-30-1.bmp\",\"na:la:la\",\"Up\",\"38\",\"9\",\"4\",\"1\",\"S\",\"J\",\"132\"
\"\",\"\",\"approach-retreat\",\"136\",\"995523\",\"0.0-136.0\",\"\",\"\",\"1-3\",\"4790\",\"39\",\"1\",\"Training\",\"Stims/Figures/94-C-20-2.bmp\",\"na:la:la\",\"Right\",\"39\",\"9\",\"5\",\"1\",\"S\",\"J\",\"133\"
\"\",\"\",\"approach-retreat\",\"137\",\"1001459\",\"0.0-137.0\",\"\",\"\",\"1-3\",\"4429\",\"37\",\"0\",\"Training\",\"Stims/Figures/144-J-10-3.bmp\",\"ta:paka\",\"Left\",\"39\",\"9\",\"6\",\"1\",\"P\",\"J\",\"134\"
\"\",\"\",\"approach-retreat\",\"138\",\"1007770\",\"0.0-138.0\",\"\",\"\",\"1-3\",\"4804\",\"40\",\"1\",\"Training\",\"Stims/Figures/118-J-0-2.bmp\",\"ta:paka\",\"Up\",\"40\",\"9\",\"7\",\"1\",\"P\",\"J\",\"135\"
\"\",\"\",\"approach-retreat\",\"139\",\"1013669\",\"0.0-139.0\",\"\",\"\",\"1-3\",\"4391\",\"39\",\"1\",\"Training\",\"Stims/Figures/144-C-30-3.bmp\",\"na:la:la\",\"Right\",\"39\",\"9\",\"8\",\"1\",\"S\",\"J\",\"136\"
\"\",\"\",\"approach-retreat\",\"140\",\"1021386\",\"0.0-140.0\",\"\",\"\",\"1-3\",\"6210\",\"38\",\"1\",\"Training\",\"Stims/Figures/111-C-30-3.bmp\",\"na:la:la\",\"Up\",\"38\",\"9\",\"9\",\"1\",\"S\",\"J\",\"137\"
\"\",\"\",\"approach-retreat\",\"141\",\"1027388\",\"0.0-141.0\",\"\",\"\",\"1-3\",\"4495\",\"38\",\"1\",\"Training\",\"Stims/Figures/74-J-10-4.bmp\",\"ta:paka\",\"Down\",\"38\",\"9\",\"10\",\"1\",\"P\",\"J\",\"138\"
\"\",\"\",\"approach-retreat\",\"142\",\"1033460\",\"0.0-142.0\",\"\",\"\",\"1-3\",\"4565\",\"38\",\"1\",\"Training\",\"Stims/Figures/93-J-0-1.bmp\",\"ta:paka\",\"Down\",\"38\",\"9\",\"11\",\"1\",\"P\",\"J\",\"139\"
\"\",\"\",\"approach-retreat\",\"143\",\"1039663\",\"0.0-143.0\",\"\",\"\",\"1-3\",\"4699\",\"40\",\"0\",\"Training\",\"Stims/Figures/111-J-10-3.bmp\",\"ta:paka\",\"Down\",\"38\",\"9\",\"12\",\"1\",\"P\",\"J\",\"140\"
\"\",\"\",\"approach-retreat\",\"144\",\"1045499\",\"0.0-144.0\",\"\",\"\",\"1-3\",\"4329\",\"40\",\"1\",\"Training\",\"Stims/Figures/94-J-0-2.bmp\",\"ta:paka\",\"Up\",\"40\",\"9\",\"13\",\"1\",\"P\",\"J\",\"141\"
\"\",\"\",\"approach-retreat\",\"145\",\"1051686\",\"0.0-145.0\",\"\",\"\",\"1-3\",\"4679\",\"39\",\"1\",\"Training\",\"Stims/Figures/7-J-10-4.bmp\",\"ta:paka\",\"Left\",\"39\",\"9\",\"14\",\"1\",\"P\",\"J\",\"142\"
\"\",\"\",\"approach-retreat\",\"146\",\"1057777\",\"0.0-146.0\",\"\",\"\",\"1-3\",\"4583\",\"37\",\"1\",\"Training\",\"Stims/Figures/118-C-20-2.bmp\",\"na:la:la\",\"Left\",\"37\",\"9\",\"15\",\"1\",\"S\",\"J\",\"143\"
\"\",\"\",\"approach-retreat\",\"147\",\"1064645\",\"0.0-147.0\",\"\",\"\",\"1-3\",\"5359\",\"38\",\"1\",\"Training\",\"Stims/Figures/71-J-0-1.bmp\",\"ta:paka\",\"Down\",\"38\",\"9\",\"16\",\"1\",\"P\",\"J\",\"144\"
\"15654\",\"\",\"instructions\",\"148\",\"1080299\",\"0.0-148.0\",\"[{\"\"page_index\"\":0,\"\"viewing_time\"\":15653}]\",\"\",\"\",\"\",\"\",\"\",\"\",\"\",\"\",\"\",\"\",\"\",\"\",\"\",\"\",\"\",\"\"
\"\",\"\",\"approach-retreat\",\"149\",\"1090174\",\"0.0-149.0\",\"\",\"\",\"1-3\",\"8367\",\"38\",\"1\",\"Testing\",\"Stims/Figures/100-J-10-3.bmp\",\"ta:paka\",\"Down\",\"38\",\"1\",\"1\",\"1\",\"P\",\"J\",\"1\"
\"\",\"\",\"approach-retreat\",\"150\",\"1096440\",\"0.0-150.0\",\"\",\"\",\"1-3\",\"4759\",\"40\",\"1\",\"Testing\",\"Stims/Figures/93-C-30-1.bmp\",\"na:la:la\",\"Down\",\"40\",\"1\",\"2\",\"1\",\"S\",\"J\",\"2\"
\"\",\"\",\"approach-retreat\",\"151\",\"1102272\",\"0.0-151.0\",\"\",\"\",\"1-3\",\"4325\",\"40\",\"1\",\"Testing\",\"Stims/Figures/144-C-30-3.bmp\",\"na:la:la\",\"Down\",\"40\",\"1\",\"3\",\"1\",\"S\",\"J\",\"3\"
\"\",\"\",\"approach-retreat\",\"152\",\"1108044\",\"0.0-152.0\",\"\",\"\",\"1-3\",\"4266\",\"39\",\"1\",\"Testing\",\"Stims/Figures/93-J-0-1.bmp\",\"ta:paka\",\"Left\",\"39\",\"1\",\"4\",\"1\",\"P\",\"J\",\"4\"
\"\",\"\",\"approach-retreat\",\"153\",\"1113807\",\"0.0-153.0\",\"\",\"\",\"1-3\",\"4256\",\"39\",\"1\",\"Testing\",\"Stims/Figures/71-C-30-1.bmp\",\"na:la:la\",\"Right\",\"39\",\"1\",\"5\",\"1\",\"S\",\"J\",\"5\"
\"\",\"\",\"approach-retreat\",\"154\",\"1119489\",\"0.0-154.0\",\"\",\"\",\"1-3\",\"4176\",\"37\",\"1\",\"Testing\",\"Stims/Figures/94-C-20-2.bmp\",\"na:la:la\",\"Left\",\"37\",\"1\",\"6\",\"1\",\"S\",\"J\",\"6\"
\"\",\"\",\"approach-retreat\",\"155\",\"1126634\",\"0.0-155.0\",\"\",\"\",\"1-3\",\"5639\",\"39\",\"1\",\"Testing\",\"Stims/Figures/74-J-10-4.bmp\",\"ta:paka\",\"Left\",\"39\",\"1\",\"7\",\"1\",\"P\",\"J\",\"7\"
\"\",\"\",\"approach-retreat\",\"156\",\"1150835\",\"0.0-156.0\",\"\",\"\",\"1-3\",\"22694\",\"39\",\"1\",\"Testing\",\"Stims/Figures/139-C-20-2.bmp\",\"na:la:la\",\"Right\",\"39\",\"1\",\"8\",\"1\",\"S\",\"J\",\"8\"
\"\",\"\",\"approach-retreat\",\"157\",\"1159149\",\"0.0-157.0\",\"\",\"\",\"1-3\",\"6809\",\"40\",\"1\",\"Testing\",\"Stims/Figures/111-J-10-3.bmp\",\"ta:paka\",\"Up\",\"40\",\"1\",\"9\",\"1\",\"P\",\"J\",\"9\"
\"\",\"\",\"approach-retreat\",\"158\",\"1164839\",\"0.0-158.0\",\"\",\"\",\"1-3\",\"4182\",\"40\",\"1\",\"Testing\",\"Stims/Figures/118-J-0-2.bmp\",\"ta:paka\",\"Up\",\"40\",\"1\",\"10\",\"1\",\"P\",\"J\",\"10\"
\"\",\"\",\"approach-retreat\",\"159\",\"1176004\",\"0.0-159.0\",\"\",\"\",\"1-3\",\"9659\",\"38\",\"1\",\"Testing\",\"Stims/Figures/7-C-20-4.bmp\",\"na:la:la\",\"Up\",\"38\",\"1\",\"11\",\"1\",\"S\",\"J\",\"11\"
\"\",\"\",\"approach-retreat\",\"160\",\"1181678\",\"0.0-160.0\",\"\",\"\",\"1-3\",\"4168\",\"38\",\"1\",\"Testing\",\"Stims/Figures/71-J-0-1.bmp\",\"ta:paka\",\"Down\",\"38\",\"1\",\"12\",\"1\",\"P\",\"J\",\"12\"
\"\",\"\",\"approach-retreat\",\"161\",\"1187414\",\"0.0-161.0\",\"\",\"\",\"1-3\",\"4229\",\"39\",\"1\",\"Testing\",\"Stims/Figures/118-C-20-2.bmp\",\"na:la:la\",\"Right\",\"39\",\"1\",\"13\",\"1\",\"S\",\"J\",\"13\"
\"\",\"\",\"approach-retreat\",\"162\",\"1193172\",\"0.0-162.0\",\"\",\"\",\"1-3\",\"4252\",\"40\",\"1\",\"Testing\",\"Stims/Figures/94-J-0-2.bmp\",\"ta:paka\",\"Up\",\"40\",\"1\",\"14\",\"1\",\"P\",\"J\",\"14\"
\"\",\"\",\"approach-retreat\",\"163\",\"1198884\",\"0.0-163.0\",\"\",\"\",\"1-3\",\"4205\",\"37\",\"1\",\"Testing\",\"Stims/Figures/139-J-0-2.bmp\",\"ta:paka\",\"Right\",\"37\",\"1\",\"15\",\"1\",\"P\",\"J\",\"15\"
\"\",\"\",\"approach-retreat\",\"164\",\"1204494\",\"0.0-164.0\",\"\",\"\",\"1-3\",\"4104\",\"37\",\"1\",\"Testing\",\"Stims/Figures/100-C-30-3.bmp\",\"na:la:la\",\"Left\",\"37\",\"1\",\"16\",\"1\",\"S\",\"J\",\"16\"
\"\",\"\",\"approach-retreat\",\"165\",\"1214240\",\"0.0-165.0\",\"\",\"\",\"1-3\",\"8237\",\"39\",\"1\",\"Testing\",\"Stims/Figures/19-J-10-4.bmp\",\"ta:paka\",\"Left\",\"39\",\"1\",\"17\",\"1\",\"P\",\"J\",\"17\"
\"\",\"\",\"approach-retreat\",\"166\",\"1220159\",\"0.0-166.0\",\"\",\"\",\"1-3\",\"4414\",\"38\",\"1\",\"Testing\",\"Stims/Figures/74-C-20-4.bmp\",\"na:la:la\",\"Up\",\"38\",\"1\",\"18\",\"1\",\"S\",\"J\",\"18\"
\"\",\"\",\"approach-retreat\",\"167\",\"1229195\",\"0.0-167.0\",\"\",\"\",\"1-3\",\"7525\",\"40\",\"1\",\"Testing\",\"Stims/Figures/19-C-20-4.bmp\",\"na:la:la\",\"Down\",\"40\",\"1\",\"19\",\"1\",\"S\",\"J\",\"19\"
\"\",\"\",\"approach-retreat\",\"168\",\"1234950\",\"0.0-168.0\",\"\",\"\",\"1-3\",\"4247\",\"39\",\"0\",\"Testing\",\"Stims/Figures/7-J-10-4.bmp\",\"ta:paka\",\"Right\",\"37\",\"1\",\"20\",\"1\",\"P\",\"J\",\"20\"
\"\",\"\",\"approach-retreat\",\"169\",\"1240564\",\"0.0-169.0\",\"\",\"\",\"1-3\",\"4108\",\"37\",\"1\",\"Testing\",\"Stims/Figures/111-C-30-3.bmp\",\"na:la:la\",\"Left\",\"37\",\"1\",\"21\",\"1\",\"S\",\"J\",\"21\"
\"\",\"\",\"approach-retreat\",\"170\",\"1246308\",\"0.0-170.0\",\"\",\"\",\"1-3\",\"4236\",\"38\",\"1\",\"Testing\",\"Stims/Figures/144-J-10-3.bmp\",\"ta:paka\",\"Down\",\"38\",\"1\",\"22\",\"1\",\"P\",\"J\",\"22\"
\"\",\"\",\"approach-retreat\",\"171\",\"1251913\",\"0.0-171.0\",\"\",\"\",\"1-3\",\"4099\",\"37\",\"1\",\"Testing\",\"Stims/Figures/86-J-0-1.bmp\",\"ta:paka\",\"Right\",\"37\",\"1\",\"23\",\"1\",\"P\",\"J\",\"23\"
\"\",\"\",\"approach-retreat\",\"172\",\"1257958\",\"0.0-172.0\",\"\",\"\",\"1-3\",\"4537\",\"38\",\"1\",\"Testing\",\"Stims/Figures/86-C-30-1.bmp\",\"na:la:la\",\"Up\",\"38\",\"1\",\"24\",\"1\",\"S\",\"J\",\"24\"
\"\",\"\",\"approach-retreat\",\"173\",\"1263618\",\"0.0-173.0\",\"\",\"\",\"1-3\",\"4154\",\"39\",\"1\",\"Testing\",\"Stims/Figures/100-C-30-3.bmp\",\"na:la:la\",\"Right\",\"39\",\"2\",\"1\",\"1\",\"S\",\"J\",\"25\"
\"\",\"\",\"approach-retreat\",\"174\",\"1269168\",\"0.0-174.0\",\"\",\"\",\"1-3\",\"4046\",\"39\",\"1\",\"Testing\",\"Stims/Figures/74-J-10-4.bmp\",\"ta:paka\",\"Left\",\"39\",\"2\",\"2\",\"1\",\"P\",\"J\",\"26\"
\"\",\"\",\"approach-retreat\",\"175\",\"1275547\",\"0.0-175.0\",\"\",\"\",\"1-3\",\"4871\",\"37\",\"1\",\"Testing\",\"Stims/Figures/144-J-10-3.bmp\",\"ta:paka\",\"Right\",\"37\",\"2\",\"3\",\"1\",\"P\",\"J\",\"27\"
\"\",\"\",\"approach-retreat\",\"176\",\"1283156\",\"0.0-176.0\",\"\",\"\",\"1-3\",\"6103\",\"37\",\"1\",\"Testing\",\"Stims/Figures/139-C-20-2.bmp\",\"na:la:la\",\"Left\",\"37\",\"2\",\"4\",\"1\",\"S\",\"J\",\"28\"
\"\",\"\",\"approach-retreat\",\"177\",\"1297511\",\"0.0-177.0\",\"\",\"\",\"1-3\",\"12848\",\"37\",\"1\",\"Testing\",\"Stims/Figures/7-C-20-4.bmp\",\"na:la:la\",\"Left\",\"37\",\"2\",\"5\",\"1\",\"S\",\"J\",\"29\"
\"\",\"\",\"approach-retreat\",\"178\",\"1303144\",\"0.0-178.0\",\"\",\"\",\"1-3\",\"4127\",\"39\",\"1\",\"Testing\",\"Stims/Figures/74-C-20-4.bmp\",\"na:la:la\",\"Right\",\"39\",\"2\",\"6\",\"1\",\"S\",\"J\",\"30\"
\"\",\"\",\"approach-retreat\",\"179\",\"1308897\",\"0.0-179.0\",\"\",\"\",\"1-3\",\"4245\",\"38\",\"1\",\"Testing\",\"Stims/Figures/94-J-0-2.bmp\",\"ta:paka\",\"Down\",\"38\",\"2\",\"7\",\"1\",\"P\",\"J\",\"31\"
\"\",\"\",\"approach-retreat\",\"180\",\"1314730\",\"0.0-180.0\",\"\",\"\",\"1-3\",\"4327\",\"39\",\"1\",\"Testing\",\"Stims/Figures/118-C-20-2.bmp\",\"na:la:la\",\"Right\",\"39\",\"2\",\"8\",\"1\",\"S\",\"J\",\"32\"
\"\",\"\",\"approach-retreat\",\"181\",\"1320446\",\"0.0-181.0\",\"\",\"\",\"1-3\",\"4209\",\"40\",\"1\",\"Testing\",\"Stims/Figures/86-J-0-1.bmp\",\"ta:paka\",\"Up\",\"40\",\"2\",\"9\",\"1\",\"P\",\"J\",\"33\"
\"\",\"\",\"approach-retreat\",\"182\",\"1326113\",\"0.0-182.0\",\"\",\"\",\"1-3\",\"4162\",\"38\",\"1\",\"Testing\",\"Stims/Figures/93-J-0-1.bmp\",\"ta:paka\",\"Down\",\"38\",\"2\",\"10\",\"1\",\"P\",\"J\",\"34\"
\"\",\"\",\"approach-retreat\",\"183\",\"1332098\",\"0.0-183.0\",\"\",\"\",\"1-3\",\"4478\",\"38\",\"1\",\"Testing\",\"Stims/Figures/100-J-10-3.bmp\",\"ta:paka\",\"Down\",\"38\",\"2\",\"11\",\"1\",\"P\",\"J\",\"35\"
\"\",\"\",\"approach-retreat\",\"184\",\"1338039\",\"0.0-184.0\",\"\",\"\",\"1-3\",\"4435\",\"40\",\"1\",\"Testing\",\"Stims/Figures/86-C-30-1.bmp\",\"na:la:la\",\"Down\",\"40\",\"2\",\"12\",\"1\",\"S\",\"J\",\"36\"
\"\",\"\",\"approach-retreat\",\"185\",\"1343805\",\"0.0-185.0\",\"\",\"\",\"1-3\",\"4261\",\"40\",\"1\",\"Testing\",\"Stims/Figures/71-C-30-1.bmp\",\"na:la:la\",\"Down\",\"40\",\"2\",\"13\",\"1\",\"S\",\"J\",\"37\"
\"\",\"\",\"approach-retreat\",\"186\",\"1349348\",\"0.0-186.0\",\"\",\"\",\"1-3\",\"4036\",\"39\",\"1\",\"Testing\",\"Stims/Figures/94-C-20-2.bmp\",\"na:la:la\",\"Right\",\"39\",\"2\",\"14\",\"1\",\"S\",\"J\",\"38\"
\"\",\"\",\"approach-retreat\",\"187\",\"1354893\",\"0.0-187.0\",\"\",\"\",\"1-3\",\"4040\",\"37\",\"1\",\"Testing\",\"Stims/Figures/111-J-10-3.bmp\",\"ta:paka\",\"Right\",\"37\",\"2\",\"15\",\"1\",\"P\",\"J\",\"39\"
\"\",\"\",\"approach-retreat\",\"188\",\"1360566\",\"0.0-188.0\",\"\",\"\",\"1-3\",\"4166\",\"38\",\"1\",\"Testing\",\"Stims/Figures/93-C-30-1.bmp\",\"na:la:la\",\"Up\",\"38\",\"2\",\"16\",\"1\",\"S\",\"J\",\"40\"
\"\",\"\",\"approach-retreat\",\"189\",\"1366376\",\"0.0-189.0\",\"\",\"\",\"1-3\",\"4303\",\"39\",\"1\",\"Testing\",\"Stims/Figures/7-J-10-4.bmp\",\"ta:paka\",\"Left\",\"39\",\"2\",\"17\",\"1\",\"P\",\"J\",\"41\"
\"\",\"\",\"approach-retreat\",\"190\",\"1372895\",\"0.0-190.0\",\"\",\"\",\"1-3\",\"5014\",\"38\",\"1\",\"Testing\",\"Stims/Figures/144-C-30-3.bmp\",\"na:la:la\",\"Up\",\"38\",\"2\",\"18\",\"1\",\"S\",\"J\",\"42\"
\"\",\"\",\"approach-retreat\",\"191\",\"1379109\",\"0.0-191.0\",\"\",\"\",\"1-3\",\"4709\",\"40\",\"0\",\"Testing\",\"Stims/Figures/19-C-20-4.bmp\",\"na:la:la\",\"Up\",\"38\",\"2\",\"19\",\"1\",\"S\",\"J\",\"43\"
\"\",\"\",\"approach-retreat\",\"192\",\"1384705\",\"0.0-192.0\",\"\",\"\",\"1-3\",\"4091\",\"39\",\"1\",\"Testing\",\"Stims/Figures/118-J-0-2.bmp\",\"ta:paka\",\"Left\",\"39\",\"2\",\"20\",\"1\",\"P\",\"J\",\"44\"
\"\",\"\",\"approach-retreat\",\"193\",\"1390266\",\"0.0-193.0\",\"\",\"\",\"1-3\",\"4054\",\"39\",\"1\",\"Testing\",\"Stims/Figures/19-J-10-4.bmp\",\"ta:paka\",\"Left\",\"39\",\"2\",\"21\",\"1\",\"P\",\"J\",\"45\"
\"\",\"\",\"approach-retreat\",\"194\",\"1395989\",\"0.0-194.0\",\"\",\"\",\"1-3\",\"4216\",\"40\",\"1\",\"Testing\",\"Stims/Figures/71-J-0-1.bmp\",\"ta:paka\",\"Up\",\"40\",\"2\",\"22\",\"1\",\"P\",\"J\",\"46\"
\"\",\"\",\"approach-retreat\",\"195\",\"1401701\",\"0.0-195.0\",\"\",\"\",\"1-3\",\"4206\",\"40\",\"1\",\"Testing\",\"Stims/Figures/111-C-30-3.bmp\",\"na:la:la\",\"Down\",\"40\",\"2\",\"23\",\"1\",\"S\",\"J\",\"47\"
\"\",\"\",\"approach-retreat\",\"196\",\"1407508\",\"0.0-196.0\",\"\",\"\",\"1-3\",\"4301\",\"40\",\"1\",\"Testing\",\"Stims/Figures/139-J-0-2.bmp\",\"ta:paka\",\"Up\",\"40\",\"2\",\"24\",\"1\",\"P\",\"J\",\"48\"
\"\",\"\",\"approach-retreat\",\"197\",\"1413728\",\"0.0-197.0\",\"\",\"\",\"1-3\",\"4714\",\"38\",\"1\",\"Testing\",\"Stims/Figures/86-J-0-1.bmp\",\"ta:paka\",\"Down\",\"38\",\"3\",\"1\",\"1\",\"P\",\"J\",\"49\"
\"\",\"\",\"approach-retreat\",\"198\",\"1419981\",\"0.0-198.0\",\"\",\"\",\"1-3\",\"4745\",\"37\",\"1\",\"Testing\",\"Stims/Figures/100-C-30-3.bmp\",\"na:la:la\",\"Left\",\"37\",\"3\",\"2\",\"1\",\"S\",\"J\",\"50\"
\"\",\"\",\"approach-retreat\",\"199\",\"1425802\",\"0.0-199.0\",\"\",\"\",\"1-3\",\"4316\",\"38\",\"1\",\"Testing\",\"Stims/Figures/144-C-30-3.bmp\",\"na:la:la\",\"Up\",\"38\",\"3\",\"3\",\"1\",\"S\",\"J\",\"51\"
\"\",\"\",\"approach-retreat\",\"200\",\"1431607\",\"0.0-200.0\",\"\",\"\",\"1-3\",\"4297\",\"39\",\"1\",\"Testing\",\"Stims/Figures/100-J-10-3.bmp\",\"ta:paka\",\"Left\",\"39\",\"3\",\"4\",\"1\",\"P\",\"J\",\"52\"
\"\",\"\",\"approach-retreat\",\"201\",\"1437759\",\"0.0-201.0\",\"\",\"\",\"1-3\",\"4645\",\"40\",\"1\",\"Testing\",\"Stims/Figures/94-C-20-2.bmp\",\"na:la:la\",\"Down\",\"40\",\"3\",\"5\",\"1\",\"S\",\"J\",\"53\"
\"\",\"\",\"approach-retreat\",\"202\",\"1444040\",\"0.0-202.0\",\"\",\"\",\"1-3\",\"4777\",\"40\",\"1\",\"Testing\",\"Stims/Figures/139-J-0-2.bmp\",\"ta:paka\",\"Up\",\"40\",\"3\",\"6\",\"1\",\"P\",\"J\",\"54\"
\"\",\"\",\"approach-retreat\",\"203\",\"1449838\",\"0.0-203.0\",\"\",\"\",\"1-3\",\"4291\",\"37\",\"1\",\"Testing\",\"Stims/Figures/93-C-30-1.bmp\",\"na:la:la\",\"Left\",\"37\",\"3\",\"7\",\"1\",\"S\",\"J\",\"55\"
\"\",\"\",\"approach-retreat\",\"204\",\"1456026\",\"0.0-204.0\",\"\",\"\",\"1-3\",\"4682\",\"40\",\"1\",\"Testing\",\"Stims/Figures/74-C-20-4.bmp\",\"na:la:la\",\"Down\",\"40\",\"3\",\"8\",\"1\",\"S\",\"J\",\"56\"
\"\",\"\",\"approach-retreat\",\"205\",\"1461762\",\"0.0-205.0\",\"\",\"\",\"1-3\",\"4231\",\"39\",\"1\",\"Testing\",\"Stims/Figures/7-C-20-4.bmp\",\"na:la:la\",\"Right\",\"39\",\"3\",\"9\",\"1\",\"S\",\"J\",\"57\"
\"\",\"\",\"approach-retreat\",\"206\",\"1467655\",\"0.0-206.0\",\"\",\"\",\"1-3\",\"4386\",\"39\",\"1\",\"Testing\",\"Stims/Figures/94-J-0-2.bmp\",\"ta:paka\",\"Left\",\"39\",\"3\",\"10\",\"1\",\"P\",\"J\",\"58\"
\"\",\"\",\"approach-retreat\",\"207\",\"1473545\",\"0.0-207.0\",\"\",\"\",\"1-3\",\"4384\",\"37\",\"1\",\"Testing\",\"Stims/Figures/7-J-10-4.bmp\",\"ta:paka\",\"Right\",\"37\",\"3\",\"11\",\"1\",\"P\",\"J\",\"59\"
\"\",\"\",\"approach-retreat\",\"208\",\"1479161\",\"0.0-208.0\",\"\",\"\",\"1-3\",\"4107\",\"40\",\"1\",\"Testing\",\"Stims/Figures/71-J-0-1.bmp\",\"ta:paka\",\"Up\",\"40\",\"3\",\"12\",\"1\",\"P\",\"J\",\"60\"
\"\",\"\",\"approach-retreat\",\"209\",\"1484871\",\"0.0-209.0\",\"\",\"\",\"1-3\",\"4207\",\"37\",\"1\",\"Testing\",\"Stims/Figures/139-C-20-2.bmp\",\"na:la:la\",\"Left\",\"37\",\"3\",\"13\",\"1\",\"S\",\"J\",\"61\"
\"\",\"\",\"approach-retreat\",\"210\",\"1490552\",\"0.0-210.0\",\"\",\"\",\"1-3\",\"4175\",\"40\",\"1\",\"Testing\",\"Stims/Figures/93-J-0-1.bmp\",\"ta:paka\",\"Up\",\"40\",\"3\",\"14\",\"1\",\"P\",\"J\",\"62\"
\"\",\"\",\"approach-retreat\",\"211\",\"1496813\",\"0.0-211.0\",\"\",\"\",\"1-3\",\"4754\",\"37\",\"1\",\"Testing\",\"Stims/Figures/86-C-30-1.bmp\",\"na:la:la\",\"Left\",\"37\",\"3\",\"15\",\"1\",\"S\",\"J\",\"63\"
\"\",\"\",\"approach-retreat\",\"212\",\"1502711\",\"0.0-212.0\",\"\",\"\",\"1-3\",\"4391\",\"39\",\"1\",\"Testing\",\"Stims/Figures/71-C-30-1.bmp\",\"na:la:la\",\"Right\",\"39\",\"3\",\"16\",\"1\",\"S\",\"J\",\"64\"
\"\",\"\",\"approach-retreat\",\"213\",\"1508534\",\"0.0-213.0\",\"\",\"\",\"1-3\",\"4318\",\"37\",\"1\",\"Testing\",\"Stims/Figures/118-J-0-2.bmp\",\"ta:paka\",\"Right\",\"37\",\"3\",\"17\",\"1\",\"P\",\"J\",\"65\"
\"\",\"\",\"approach-retreat\",\"214\",\"1514588\",\"0.0-214.0\",\"\",\"\",\"1-3\",\"4547\",\"40\",\"1\",\"Testing\",\"Stims/Figures/111-C-30-3.bmp\",\"na:la:la\",\"Down\",\"40\",\"3\",\"18\",\"1\",\"S\",\"J\",\"66\"
\"\",\"\",\"approach-retreat\",\"215\",\"1520154\",\"0.0-215.0\",\"\",\"\",\"1-3\",\"4061\",\"37\",\"1\",\"Testing\",\"Stims/Figures/74-J-10-4.bmp\",\"ta:paka\",\"Right\",\"37\",\"3\",\"19\",\"1\",\"P\",\"J\",\"67\"
\"\",\"\",\"approach-retreat\",\"216\",\"1529320\",\"0.0-216.0\",\"\",\"\",\"1-3\",\"7660\",\"40\",\"1\",\"Testing\",\"Stims/Figures/118-C-20-2.bmp\",\"na:la:la\",\"Down\",\"40\",\"3\",\"20\",\"1\",\"S\",\"J\",\"68\"
\"\",\"\",\"approach-retreat\",\"217\",\"1535609\",\"0.0-217.0\",\"\",\"\",\"1-3\",\"4782\",\"38\",\"1\",\"Testing\",\"Stims/Figures/144-J-10-3.bmp\",\"ta:paka\",\"Down\",\"38\",\"3\",\"21\",\"1\",\"P\",\"J\",\"69\"
\"\",\"\",\"approach-retreat\",\"218\",\"1541560\",\"0.0-218.0\",\"\",\"\",\"1-3\",\"4444\",\"40\",\"0\",\"Testing\",\"Stims/Figures/19-C-20-4.bmp\",\"na:la:la\",\"Up\",\"38\",\"3\",\"22\",\"1\",\"S\",\"J\",\"70\"
\"\",\"\",\"approach-retreat\",\"219\",\"1547203\",\"0.0-219.0\",\"\",\"\",\"1-3\",\"4139\",\"37\",\"1\",\"Testing\",\"Stims/Figures/111-J-10-3.bmp\",\"ta:paka\",\"Right\",\"37\",\"3\",\"23\",\"1\",\"P\",\"J\",\"71\"
\"\",\"\",\"approach-retreat\",\"220\",\"1553207\",\"0.0-220.0\",\"\",\"\",\"1-3\",\"4498\",\"40\",\"1\",\"Testing\",\"Stims/Figures/19-J-10-4.bmp\",\"ta:paka\",\"Up\",\"40\",\"3\",\"24\",\"1\",\"P\",\"J\",\"72\"
\"\",\"\",\"approach-retreat\",\"221\",\"1559626\",\"0.0-221.0\",\"\",\"\",\"1-3\",\"4913\",\"37\",\"1\",\"Testing\",\"Stims/Figures/144-C-30-3.bmp\",\"na:la:la\",\"Left\",\"37\",\"4\",\"1\",\"1\",\"S\",\"J\",\"73\"
\"\",\"\",\"approach-retreat\",\"222\",\"1565772\",\"0.0-222.0\",\"\",\"\",\"1-3\",\"4639\",\"37\",\"1\",\"Testing\",\"Stims/Figures/118-J-0-2.bmp\",\"ta:paka\",\"Right\",\"37\",\"4\",\"2\",\"1\",\"P\",\"J\",\"74\"
\"\",\"\",\"approach-retreat\",\"223\",\"1572715\",\"0.0-223.0\",\"\",\"\",\"1-3\",\"5437\",\"39\",\"1\",\"Testing\",\"Stims/Figures/100-J-10-3.bmp\",\"ta:paka\",\"Left\",\"39\",\"4\",\"3\",\"1\",\"P\",\"J\",\"75\"
\"\",\"\",\"approach-retreat\",\"224\",\"1579291\",\"0.0-224.0\",\"\",\"\",\"1-3\",\"5070\",\"39\",\"1\",\"Testing\",\"Stims/Figures/139-C-20-2.bmp\",\"na:la:la\",\"Right\",\"39\",\"4\",\"4\",\"1\",\"S\",\"J\",\"76\"
\"\",\"\",\"approach-retreat\",\"225\",\"1585345\",\"0.0-225.0\",\"\",\"\",\"1-3\",\"4546\",\"40\",\"1\",\"Testing\",\"Stims/Figures/118-C-20-2.bmp\",\"na:la:la\",\"Down\",\"40\",\"4\",\"5\",\"1\",\"S\",\"J\",\"77\"
\"\",\"\",\"approach-retreat\",\"226\",\"1591898\",\"0.0-226.0\",\"\",\"\",\"1-3\",\"5047\",\"39\",\"1\",\"Testing\",\"Stims/Figures/86-C-30-1.bmp\",\"na:la:la\",\"Right\",\"39\",\"4\",\"6\",\"1\",\"S\",\"J\",\"78\"
\"\",\"\",\"approach-retreat\",\"227\",\"1597467\",\"0.0-227.0\",\"\",\"\",\"1-3\",\"4063\",\"40\",\"1\",\"Testing\",\"Stims/Figures/111-J-10-3.bmp\",\"ta:paka\",\"Up\",\"40\",\"4\",\"7\",\"1\",\"P\",\"J\",\"79\"
\"\",\"\",\"approach-retreat\",\"228\",\"1604363\",\"0.0-228.0\",\"\",\"\",\"1-3\",\"5390\",\"39\",\"1\",\"Testing\",\"Stims/Figures/74-J-10-4.bmp\",\"ta:paka\",\"Left\",\"39\",\"4\",\"8\",\"1\",\"P\",\"J\",\"80\"
\"\",\"\",\"approach-retreat\",\"229\",\"1610275\",\"0.0-229.0\",\"\",\"\",\"1-3\",\"4405\",\"38\",\"1\",\"Testing\",\"Stims/Figures/19-J-10-4.bmp\",\"ta:paka\",\"Down\",\"38\",\"4\",\"9\",\"1\",\"P\",\"J\",\"81\"
\"\",\"\",\"approach-retreat\",\"230\",\"1616727\",\"0.0-230.0\",\"\",\"\",\"1-3\",\"4945\",\"38\",\"1\",\"Testing\",\"Stims/Figures/71-C-30-1.bmp\",\"na:la:la\",\"Up\",\"38\",\"4\",\"10\",\"1\",\"S\",\"J\",\"82\"
\"\",\"\",\"approach-retreat\",\"231\",\"1622753\",\"0.0-231.0\",\"\",\"\",\"1-3\",\"4518\",\"39\",\"1\",\"Testing\",\"Stims/Figures/93-C-30-1.bmp\",\"na:la:la\",\"Right\",\"39\",\"4\",\"11\",\"1\",\"S\",\"J\",\"83\"
\"\",\"\",\"approach-retreat\",\"232\",\"1628892\",\"0.0-232.0\",\"\",\"\",\"1-3\",\"4634\",\"37\",\"1\",\"Testing\",\"Stims/Figures/94-J-0-2.bmp\",\"ta:paka\",\"Right\",\"37\",\"4\",\"12\",\"1\",\"P\",\"J\",\"84\"
\"\",\"\",\"approach-retreat\",\"233\",\"1634994\",\"0.0-233.0\",\"\",\"\",\"1-3\",\"4593\",\"38\",\"1\",\"Testing\",\"Stims/Figures/139-J-0-2.bmp\",\"ta:paka\",\"Down\",\"38\",\"4\",\"13\",\"1\",\"P\",\"J\",\"85\"
\"\",\"\",\"approach-retreat\",\"234\",\"1641210\",\"0.0-234.0\",\"\",\"\",\"1-3\",\"4711\",\"38\",\"1\",\"Testing\",\"Stims/Figures/74-C-20-4.bmp\",\"na:la:la\",\"Up\",\"38\",\"4\",\"14\",\"1\",\"S\",\"J\",\"86\"
\"\",\"\",\"approach-retreat\",\"235\",\"1647429\",\"0.0-235.0\",\"\",\"\",\"1-3\",\"4713\",\"38\",\"1\",\"Testing\",\"Stims/Figures/94-C-20-2.bmp\",\"na:la:la\",\"Up\",\"38\",\"4\",\"15\",\"1\",\"S\",\"J\",\"87\"
\"\",\"\",\"approach-retreat\",\"236\",\"1653440\",\"0.0-236.0\",\"\",\"\",\"1-3\",\"4505\",\"38\",\"1\",\"Testing\",\"Stims/Figures/86-J-0-1.bmp\",\"ta:paka\",\"Down\",\"38\",\"4\",\"16\",\"1\",\"P\",\"J\",\"88\"
\"\",\"\",\"approach-retreat\",\"237\",\"1660206\",\"0.0-237.0\",\"\",\"\",\"1-3\",\"5260\",\"39\",\"1\",\"Testing\",\"Stims/Figures/7-C-20-4.bmp\",\"na:la:la\",\"Right\",\"39\",\"4\",\"17\",\"1\",\"S\",\"J\",\"89\"
\"\",\"\",\"approach-retreat\",\"238\",\"1666449\",\"0.0-238.0\",\"\",\"\",\"1-3\",\"4734\",\"40\",\"1\",\"Testing\",\"Stims/Figures/71-J-0-1.bmp\",\"ta:paka\",\"Up\",\"40\",\"4\",\"18\",\"1\",\"P\",\"J\",\"90\"
\"\",\"\",\"approach-retreat\",\"239\",\"1673291\",\"0.0-239.0\",\"\",\"\",\"1-3\",\"5337\",\"39\",\"1\",\"Testing\",\"Stims/Figures/93-J-0-1.bmp\",\"ta:paka\",\"Left\",\"39\",\"4\",\"19\",\"1\",\"P\",\"J\",\"91\"
\"\",\"\",\"approach-retreat\",\"240\",\"1679200\",\"0.0-240.0\",\"\",\"\",\"1-3\",\"4403\",\"38\",\"1\",\"Testing\",\"Stims/Figures/19-C-20-4.bmp\",\"na:la:la\",\"Up\",\"38\",\"4\",\"20\",\"1\",\"S\",\"J\",\"92\"
\"\",\"\",\"approach-retreat\",\"241\",\"1685031\",\"0.0-241.0\",\"\",\"\",\"1-3\",\"4325\",\"38\",\"0\",\"Testing\",\"Stims/Figures/100-C-30-3.bmp\",\"na:la:la\",\"Down\",\"40\",\"4\",\"21\",\"1\",\"S\",\"J\",\"93\"
\"\",\"\",\"approach-retreat\",\"242\",\"1690605\",\"0.0-242.0\",\"\",\"\",\"1-3\",\"4069\",\"38\",\"1\",\"Testing\",\"Stims/Figures/144-J-10-3.bmp\",\"ta:paka\",\"Down\",\"38\",\"4\",\"22\",\"1\",\"P\",\"J\",\"94\"
\"\",\"\",\"approach-retreat\",\"243\",\"1696201\",\"0.0-243.0\",\"\",\"\",\"1-3\",\"4091\",\"39\",\"1\",\"Testing\",\"Stims/Figures/7-J-10-4.bmp\",\"ta:paka\",\"Left\",\"39\",\"4\",\"23\",\"1\",\"P\",\"J\",\"95\"
\"\",\"\",\"approach-retreat\",\"244\",\"1701852\",\"0.0-244.0\",\"\",\"\",\"1-3\",\"4144\",\"37\",\"1\",\"Testing\",\"Stims/Figures/111-C-30-3.bmp\",\"na:la:la\",\"Left\",\"37\",\"4\",\"24\",\"1\",\"S\",\"J\",\"96\"
\"21047\",\"\",\"survey-text\",\"245\",\"1722905\",\"0.0-245.0\",\"\",\"{\"\"Q0\"\":\"\"PS170087\"\"}\",\"\",\"\",\"\",\"\",\"\",\"\",\"\",\"\",\"\",\"\",\"\",\"\",\"\",\"\",\"\"
