\"rt\",\"key_press\",\"trial_type\",\"trial_index\",\"time_elapsed\",\"internal_node_id\",\"view_history\",\"responses\",\"Id\",\"Rt\",\"ResKeyCode\",\"ResCorr\",\"TrialType2\",\"Image\",\"Label\",\"Location\",\"CorrectResponse\",\"Block\",\"BlockTrial\",\"Condition\",\"LabelType\",\"Subcondition\",\"trialNum\"
\"28046\",\"32\",\"text\",\"0\",\"28052\",\"0.0-0.0-0.0\",\"\",\"\",\"\",\"\",\"\",\"\",\"\",\"\",\"\",\"\",\"\",\"\",\"\",\"\",\"\",\"\",\"\"
\"37498\",\"\",\"instructions\",\"1\",\"65554\",\"0.0-1.0\",\"[{\"\"page_index\"\":0,\"\"viewing_time\"\":37496}]\",\"\",\"\",\"\",\"\",\"\",\"\",\"\",\"\",\"\",\"\",\"\",\"\",\"\",\"\",\"\",\"\"
\"19596\",\"\",\"survey-multi-choice\",\"2\",\"85198\",\"0.0-2.0\",\"\",\"{\"\"Q0\"\":\"\"Da\"\",\"\"Q1\"\":\"\"Da\"\",\"\"Q2\"\":\"\"Da\"\",\"\"Q3\"\":\"\"Da\"\",\"\"Q4\"\":\"\"Da\"\",\"\"Q5\"\":\"\"Da\"\"}\",\"\",\"\",\"\",\"\",\"\",\"\",\"\",\"\",\"\",\"\",\"\",\"\",\"\",\"\",\"\"
\"\",\"\",\"bio\",\"3\",\"91260\",\"0.0-3.0\",\"\",\"{\"\"age\"\":\"\"23\"\",\"\"gender\"\":\"\"m\"\",\"\"specify\"\":\"\"\"\"}\",\"\",\"\",\"\",\"\",\"\",\"\",\"\",\"\",\"\",\"\",\"\",\"\",\"\",\"\",\"\"
\"\",\"\",\"approach-retreat\",\"4\",\"99668\",\"0.0-4.0\",\"\",\"\",\"1-5\",\"6894\",\"37\",\"0\",\"Training\",\"Stims/Figures/84-C-20-2.bmp\",\"mamana\",\"Right\",\"39\",\"1\",\"1\",\"4\",\"S\",\"J\",\"1\"
\"\",\"\",\"approach-retreat\",\"5\",\"105920\",\"0.0-5.0\",\"\",\"\",\"1-5\",\"4738\",\"39\",\"0\",\"Training\",\"Stims/Figures/19-C-20-4.bmp\",\"ma:lala\",\"Left\",\"37\",\"1\",\"2\",\"4\",\"S\",\"J\",\"2\"
\"\",\"\",\"approach-retreat\",\"6\",\"112488\",\"0.0-6.0\",\"\",\"\",\"1-5\",\"5060\",\"37\",\"1\",\"Training\",\"Stims/Figures/27-C-30-1.bmp\",\"nalana\",\"Left\",\"37\",\"1\",\"3\",\"4\",\"S\",\"J\",\"3\"
\"\",\"\",\"approach-retreat\",\"7\",\"118600\",\"0.0-7.0\",\"\",\"\",\"1-5\",\"4604\",\"39\",\"1\",\"Training\",\"Stims/Figures/111-J-10-3.bmp\",\"pa:ka:ta\",\"Left\",\"39\",\"1\",\"4\",\"4\",\"P\",\"J\",\"4\"
\"\",\"\",\"approach-retreat\",\"8\",\"126372\",\"0.0-8.0\",\"\",\"\",\"1-5\",\"6260\",\"38\",\"0\",\"Training\",\"Stims/Figures/71-C-30-1.bmp\",\"na:mana\",\"Down\",\"40\",\"1\",\"5\",\"4\",\"S\",\"J\",\"5\"
\"\",\"\",\"approach-retreat\",\"9\",\"133192\",\"0.0-9.0\",\"\",\"\",\"1-5\",\"5312\",\"40\",\"1\",\"Training\",\"Stims/Figures/118-J-0-2.bmp\",\"tapa:ta\",\"Up\",\"40\",\"1\",\"6\",\"4\",\"P\",\"J\",\"6\"
\"\",\"\",\"approach-retreat\",\"10\",\"139162\",\"0.0-10.0\",\"\",\"\",\"1-5\",\"4452\",\"37\",\"0\",\"Training\",\"Stims/Figures/111-C-30-3.bmp\",\"mama:na\",\"Right\",\"39\",\"1\",\"7\",\"4\",\"S\",\"J\",\"7\"
\"\",\"\",\"approach-retreat\",\"11\",\"145266\",\"0.0-11.0\",\"\",\"\",\"1-5\",\"4596\",\"38\",\"1\",\"Training\",\"Stims/Figures/27-J-0-1.bmp\",\"ta:pata\",\"Down\",\"38\",\"1\",\"8\",\"4\",\"P\",\"J\",\"8\"
\"\",\"\",\"approach-retreat\",\"12\",\"151282\",\"0.0-12.0\",\"\",\"\",\"1-5\",\"4498\",\"39\",\"0\",\"Training\",\"Stims/Figures/128-J-10-3.bmp\",\"pa:kaka\",\"Right\",\"37\",\"1\",\"9\",\"4\",\"P\",\"J\",\"9\"
\"\",\"\",\"approach-retreat\",\"13\",\"157304\",\"0.0-13.0\",\"\",\"\",\"1-5\",\"4516\",\"40\",\"1\",\"Training\",\"Stims/Figures/118-C-20-2.bmp\",\"nalala\",\"Down\",\"40\",\"1\",\"10\",\"4\",\"S\",\"J\",\"10\"
\"\",\"\",\"approach-retreat\",\"14\",\"165534\",\"0.0-14.0\",\"\",\"\",\"1-5\",\"6716\",\"40\",\"0\",\"Training\",\"Stims/Figures/87-J-10-4.bmp\",\"tapaka\",\"Down\",\"38\",\"1\",\"11\",\"4\",\"P\",\"J\",\"11\"
\"\",\"\",\"approach-retreat\",\"15\",\"172738\",\"0.0-15.0\",\"\",\"\",\"1-5\",\"5694\",\"40\",\"0\",\"Training\",\"Stims/Figures/128-C-30-3.bmp\",\"na:la:la\",\"Up\",\"38\",\"1\",\"12\",\"4\",\"S\",\"J\",\"12\"
\"\",\"\",\"approach-retreat\",\"16\",\"179310\",\"0.0-16.0\",\"\",\"\",\"1-5\",\"5060\",\"38\",\"0\",\"Training\",\"Stims/Figures/84-J-0-2.bmp\",\"pakaka\",\"Up\",\"40\",\"1\",\"13\",\"4\",\"P\",\"J\",\"13\"
\"\",\"\",\"approach-retreat\",\"17\",\"188064\",\"0.0-17.0\",\"\",\"\",\"1-5\",\"7240\",\"38\",\"0\",\"Training\",\"Stims/Figures/71-J-0-1.bmp\",\"tapa:ka\",\"Up\",\"40\",\"1\",\"14\",\"4\",\"P\",\"J\",\"14\"
\"\",\"\",\"approach-retreat\",\"18\",\"195736\",\"0.0-18.0\",\"\",\"\",\"1-5\",\"6158\",\"37\",\"0\",\"Training\",\"Stims/Figures/19-J-10-4.bmp\",\"tapata\",\"Left\",\"39\",\"1\",\"15\",\"4\",\"P\",\"J\",\"15\"
\"\",\"\",\"approach-retreat\",\"19\",\"201440\",\"0.0-19.0\",\"\",\"\",\"1-5\",\"4196\",\"39\",\"1\",\"Training\",\"Stims/Figures/87-C-20-4.bmp\",\"nala:na\",\"Right\",\"39\",\"1\",\"16\",\"4\",\"S\",\"J\",\"16\"
\"\",\"\",\"approach-retreat\",\"20\",\"207608\",\"0.0-20.0\",\"\",\"\",\"1-5\",\"4662\",\"38\",\"1\",\"Training\",\"Stims/Figures/84-C-20-2.bmp\",\"mamana\",\"Up\",\"38\",\"2\",\"1\",\"4\",\"S\",\"J\",\"17\"
\"\",\"\",\"approach-retreat\",\"21\",\"213184\",\"0.0-21.0\",\"\",\"\",\"1-5\",\"4068\",\"37\",\"1\",\"Training\",\"Stims/Figures/111-J-10-3.bmp\",\"pa:ka:ta\",\"Right\",\"37\",\"2\",\"2\",\"4\",\"P\",\"J\",\"18\"
\"\",\"\",\"approach-retreat\",\"22\",\"219038\",\"0.0-22.0\",\"\",\"\",\"1-5\",\"4348\",\"38\",\"1\",\"Training\",\"Stims/Figures/27-J-0-1.bmp\",\"ta:pata\",\"Down\",\"38\",\"2\",\"3\",\"4\",\"P\",\"J\",\"19\"
\"\",\"\",\"approach-retreat\",\"23\",\"226736\",\"0.0-23.0\",\"\",\"\",\"1-5\",\"6190\",\"38\",\"0\",\"Training\",\"Stims/Figures/128-J-10-3.bmp\",\"pa:kaka\",\"Up\",\"40\",\"2\",\"4\",\"4\",\"P\",\"J\",\"20\"
\"\",\"\",\"approach-retreat\",\"24\",\"233770\",\"0.0-24.0\",\"\",\"\",\"1-5\",\"5518\",\"40\",\"0\",\"Training\",\"Stims/Figures/128-C-30-3.bmp\",\"na:la:la\",\"Up\",\"38\",\"2\",\"5\",\"4\",\"S\",\"J\",\"21\"
\"\",\"\",\"approach-retreat\",\"25\",\"240222\",\"0.0-25.0\",\"\",\"\",\"1-5\",\"4946\",\"40\",\"1\",\"Training\",\"Stims/Figures/87-C-20-4.bmp\",\"nala:na\",\"Down\",\"40\",\"2\",\"6\",\"4\",\"S\",\"J\",\"22\"
\"\",\"\",\"approach-retreat\",\"26\",\"246112\",\"0.0-26.0\",\"\",\"\",\"1-5\",\"4384\",\"40\",\"0\",\"Training\",\"Stims/Figures/19-J-10-4.bmp\",\"tapata\",\"Down\",\"38\",\"2\",\"7\",\"4\",\"P\",\"J\",\"23\"
\"\",\"\",\"approach-retreat\",\"27\",\"253142\",\"0.0-27.0\",\"\",\"\",\"1-5\",\"5526\",\"39\",\"1\",\"Training\",\"Stims/Figures/84-J-0-2.bmp\",\"pakaka\",\"Left\",\"39\",\"2\",\"8\",\"4\",\"P\",\"J\",\"24\"
\"\",\"\",\"approach-retreat\",\"28\",\"259918\",\"0.0-28.0\",\"\",\"\",\"1-5\",\"5270\",\"40\",\"1\",\"Training\",\"Stims/Figures/71-J-0-1.bmp\",\"tapa:ka\",\"Up\",\"40\",\"2\",\"9\",\"4\",\"P\",\"J\",\"25\"
\"\",\"\",\"approach-retreat\",\"29\",\"266074\",\"0.0-29.0\",\"\",\"\",\"1-5\",\"4648\",\"39\",\"0\",\"Training\",\"Stims/Figures/87-J-10-4.bmp\",\"tapaka\",\"Right\",\"37\",\"2\",\"10\",\"4\",\"P\",\"J\",\"26\"
\"\",\"\",\"approach-retreat\",\"30\",\"272110\",\"0.0-30.0\",\"\",\"\",\"1-5\",\"4532\",\"37\",\"1\",\"Training\",\"Stims/Figures/71-C-30-1.bmp\",\"na:mana\",\"Left\",\"37\",\"2\",\"11\",\"4\",\"S\",\"J\",\"27\"
\"\",\"\",\"approach-retreat\",\"31\",\"277816\",\"0.0-31.0\",\"\",\"\",\"1-5\",\"4200\",\"37\",\"0\",\"Training\",\"Stims/Figures/19-C-20-4.bmp\",\"ma:lala\",\"Right\",\"39\",\"2\",\"12\",\"4\",\"S\",\"J\",\"28\"
\"\",\"\",\"approach-retreat\",\"32\",\"283862\",\"0.0-32.0\",\"\",\"\",\"1-5\",\"4540\",\"39\",\"1\",\"Training\",\"Stims/Figures/118-J-0-2.bmp\",\"tapa:ta\",\"Left\",\"39\",\"2\",\"13\",\"4\",\"P\",\"J\",\"29\"
\"\",\"\",\"approach-retreat\",\"33\",\"289774\",\"0.0-33.0\",\"\",\"\",\"1-5\",\"4398\",\"38\",\"0\",\"Training\",\"Stims/Figures/27-C-30-1.bmp\",\"nalana\",\"Down\",\"40\",\"2\",\"14\",\"4\",\"S\",\"J\",\"30\"
\"\",\"\",\"approach-retreat\",\"34\",\"295254\",\"0.0-34.0\",\"\",\"\",\"1-5\",\"3974\",\"39\",\"1\",\"Training\",\"Stims/Figures/118-C-20-2.bmp\",\"nalala\",\"Right\",\"39\",\"2\",\"15\",\"4\",\"S\",\"J\",\"31\"
\"\",\"\",\"approach-retreat\",\"35\",\"301202\",\"0.0-35.0\",\"\",\"\",\"1-5\",\"4438\",\"39\",\"0\",\"Training\",\"Stims/Figures/111-C-30-3.bmp\",\"mama:na\",\"Left\",\"37\",\"2\",\"16\",\"4\",\"S\",\"J\",\"32\"
\"\",\"\",\"approach-retreat\",\"36\",\"307158\",\"0.0-36.0\",\"\",\"\",\"1-5\",\"4452\",\"37\",\"1\",\"Training\",\"Stims/Figures/128-C-30-3.bmp\",\"na:la:la\",\"Left\",\"37\",\"3\",\"1\",\"4\",\"S\",\"J\",\"33\"
\"\",\"\",\"approach-retreat\",\"37\",\"315390\",\"0.0-37.0\",\"\",\"\",\"1-5\",\"6718\",\"40\",\"1\",\"Training\",\"Stims/Figures/27-J-0-1.bmp\",\"ta:pata\",\"Up\",\"40\",\"3\",\"2\",\"4\",\"P\",\"J\",\"34\"
\"\",\"\",\"approach-retreat\",\"38\",\"321488\",\"0.0-38.0\",\"\",\"\",\"1-5\",\"4588\",\"37\",\"0\",\"Training\",\"Stims/Figures/19-J-10-4.bmp\",\"tapata\",\"Left\",\"39\",\"3\",\"3\",\"4\",\"P\",\"J\",\"35\"
\"\",\"\",\"approach-retreat\",\"39\",\"329558\",\"0.0-39.0\",\"\",\"\",\"1-5\",\"6564\",\"39\",\"1\",\"Training\",\"Stims/Figures/27-C-30-1.bmp\",\"nalana\",\"Right\",\"39\",\"3\",\"4\",\"4\",\"S\",\"J\",\"36\"
\"\",\"\",\"approach-retreat\",\"40\",\"334966\",\"0.0-40.0\",\"\",\"\",\"1-5\",\"3902\",\"39\",\"1\",\"Training\",\"Stims/Figures/87-C-20-4.bmp\",\"nala:na\",\"Right\",\"39\",\"3\",\"5\",\"4\",\"S\",\"J\",\"37\"
\"\",\"\",\"approach-retreat\",\"41\",\"341774\",\"0.0-41.0\",\"\",\"\",\"1-5\",\"5300\",\"39\",\"0\",\"Training\",\"Stims/Figures/19-C-20-4.bmp\",\"ma:lala\",\"Left\",\"37\",\"3\",\"6\",\"4\",\"S\",\"J\",\"38\"
\"\",\"\",\"approach-retreat\",\"42\",\"347486\",\"0.0-42.0\",\"\",\"\",\"1-5\",\"4206\",\"40\",\"1\",\"Training\",\"Stims/Figures/84-C-20-2.bmp\",\"mamana\",\"Down\",\"40\",\"3\",\"7\",\"4\",\"S\",\"J\",\"39\"
\"\",\"\",\"approach-retreat\",\"43\",\"353162\",\"0.0-43.0\",\"\",\"\",\"1-5\",\"4166\",\"37\",\"0\",\"Training\",\"Stims/Figures/128-J-10-3.bmp\",\"pa:kaka\",\"Left\",\"39\",\"3\",\"8\",\"4\",\"P\",\"J\",\"40\"
\"\",\"\",\"approach-retreat\",\"44\",\"358862\",\"0.0-44.0\",\"\",\"\",\"1-5\",\"4194\",\"40\",\"0\",\"Training\",\"Stims/Figures/111-J-10-3.bmp\",\"pa:ka:ta\",\"Down\",\"38\",\"3\",\"9\",\"4\",\"P\",\"J\",\"41\"
\"\",\"\",\"approach-retreat\",\"45\",\"364644\",\"0.0-45.0\",\"\",\"\",\"1-5\",\"4278\",\"40\",\"1\",\"Training\",\"Stims/Figures/71-J-0-1.bmp\",\"tapa:ka\",\"Up\",\"40\",\"3\",\"10\",\"4\",\"P\",\"J\",\"42\"
\"\",\"\",\"approach-retreat\",\"46\",\"370404\",\"0.0-46.0\",\"\",\"\",\"1-5\",\"4254\",\"38\",\"1\",\"Training\",\"Stims/Figures/84-J-0-2.bmp\",\"pakaka\",\"Down\",\"38\",\"3\",\"11\",\"4\",\"P\",\"J\",\"43\"
\"\",\"\",\"approach-retreat\",\"47\",\"375910\",\"0.0-47.0\",\"\",\"\",\"1-5\",\"3992\",\"39\",\"0\",\"Training\",\"Stims/Figures/118-J-0-2.bmp\",\"tapa:ta\",\"Right\",\"37\",\"3\",\"12\",\"4\",\"P\",\"J\",\"44\"
\"\",\"\",\"approach-retreat\",\"48\",\"381372\",\"0.0-48.0\",\"\",\"\",\"1-5\",\"3950\",\"37\",\"0\",\"Training\",\"Stims/Figures/71-C-30-1.bmp\",\"na:mana\",\"Right\",\"39\",\"3\",\"13\",\"4\",\"S\",\"J\",\"45\"
\"\",\"\",\"approach-retreat\",\"49\",\"387020\",\"0.0-49.0\",\"\",\"\",\"1-5\",\"4144\",\"40\",\"0\",\"Training\",\"Stims/Figures/118-C-20-2.bmp\",\"nalala\",\"Up\",\"38\",\"3\",\"14\",\"4\",\"S\",\"J\",\"46\"
\"\",\"\",\"approach-retreat\",\"50\",\"392956\",\"0.0-50.0\",\"\",\"\",\"1-5\",\"4432\",\"38\",\"1\",\"Training\",\"Stims/Figures/87-J-10-4.bmp\",\"tapaka\",\"Down\",\"38\",\"3\",\"15\",\"4\",\"P\",\"J\",\"47\"
\"\",\"\",\"approach-retreat\",\"51\",\"398680\",\"0.0-51.0\",\"\",\"\",\"1-5\",\"4214\",\"40\",\"0\",\"Training\",\"Stims/Figures/111-C-30-3.bmp\",\"mama:na\",\"Up\",\"38\",\"3\",\"16\",\"4\",\"S\",\"J\",\"48\"
\"\",\"\",\"approach-retreat\",\"52\",\"405156\",\"0.0-52.0\",\"\",\"\",\"1-5\",\"4972\",\"39\",\"1\",\"Training\",\"Stims/Figures/71-C-30-1.bmp\",\"na:mana\",\"Right\",\"39\",\"4\",\"1\",\"4\",\"S\",\"J\",\"49\"
\"\",\"\",\"approach-retreat\",\"53\",\"412412\",\"0.0-53.0\",\"\",\"\",\"1-5\",\"5752\",\"40\",\"1\",\"Training\",\"Stims/Figures/111-J-10-3.bmp\",\"pa:ka:ta\",\"Up\",\"40\",\"4\",\"2\",\"4\",\"P\",\"J\",\"50\"
\"\",\"\",\"approach-retreat\",\"54\",\"418484\",\"0.0-54.0\",\"\",\"\",\"1-5\",\"4568\",\"38\",\"1\",\"Training\",\"Stims/Figures/71-J-0-1.bmp\",\"tapa:ka\",\"Down\",\"38\",\"4\",\"3\",\"4\",\"P\",\"J\",\"51\"
\"\",\"\",\"approach-retreat\",\"55\",\"423708\",\"0.0-55.0\",\"\",\"\",\"1-5\",\"3720\",\"39\",\"1\",\"Training\",\"Stims/Figures/128-J-10-3.bmp\",\"pa:kaka\",\"Left\",\"39\",\"4\",\"4\",\"4\",\"P\",\"J\",\"52\"
\"\",\"\",\"approach-retreat\",\"56\",\"429528\",\"0.0-56.0\",\"\",\"\",\"1-5\",\"4312\",\"39\",\"0\",\"Training\",\"Stims/Figures/118-J-0-2.bmp\",\"tapa:ta\",\"Right\",\"37\",\"4\",\"5\",\"4\",\"P\",\"J\",\"53\"
\"\",\"\",\"approach-retreat\",\"57\",\"436244\",\"0.0-57.0\",\"\",\"\",\"1-5\",\"5212\",\"38\",\"1\",\"Training\",\"Stims/Figures/84-C-20-2.bmp\",\"mamana\",\"Up\",\"38\",\"4\",\"6\",\"4\",\"S\",\"J\",\"54\"
\"\",\"\",\"approach-retreat\",\"58\",\"442212\",\"0.0-58.0\",\"\",\"\",\"1-5\",\"4464\",\"40\",\"0\",\"Training\",\"Stims/Figures/27-J-0-1.bmp\",\"ta:pata\",\"Down\",\"38\",\"4\",\"7\",\"4\",\"P\",\"J\",\"55\"
\"\",\"\",\"approach-retreat\",\"59\",\"448350\",\"0.0-59.0\",\"\",\"\",\"1-5\",\"4632\",\"40\",\"0\",\"Training\",\"Stims/Figures/19-C-20-4.bmp\",\"ma:lala\",\"Up\",\"38\",\"4\",\"8\",\"4\",\"S\",\"J\",\"56\"
\"\",\"\",\"approach-retreat\",\"60\",\"453998\",\"0.0-60.0\",\"\",\"\",\"1-5\",\"4140\",\"39\",\"0\",\"Training\",\"Stims/Figures/128-C-30-3.bmp\",\"na:la:la\",\"Left\",\"37\",\"4\",\"9\",\"4\",\"S\",\"J\",\"57\"
\"\",\"\",\"approach-retreat\",\"61\",\"460980\",\"0.0-61.0\",\"\",\"\",\"1-5\",\"5478\",\"38\",\"1\",\"Training\",\"Stims/Figures/27-C-30-1.bmp\",\"nalana\",\"Up\",\"38\",\"4\",\"10\",\"4\",\"S\",\"J\",\"58\"
\"\",\"\",\"approach-retreat\",\"62\",\"466544\",\"0.0-62.0\",\"\",\"\",\"1-5\",\"4054\",\"37\",\"0\",\"Training\",\"Stims/Figures/87-J-10-4.bmp\",\"tapaka\",\"Left\",\"39\",\"4\",\"11\",\"4\",\"P\",\"J\",\"59\"
\"\",\"\",\"approach-retreat\",\"63\",\"472668\",\"0.0-63.0\",\"\",\"\",\"1-5\",\"4616\",\"38\",\"0\",\"Training\",\"Stims/Figures/118-C-20-2.bmp\",\"nalala\",\"Down\",\"40\",\"4\",\"12\",\"4\",\"S\",\"J\",\"60\"
\"\",\"\",\"approach-retreat\",\"64\",\"480030\",\"0.0-64.0\",\"\",\"\",\"1-5\",\"5854\",\"39\",\"1\",\"Training\",\"Stims/Figures/84-J-0-2.bmp\",\"pakaka\",\"Left\",\"39\",\"4\",\"13\",\"4\",\"P\",\"J\",\"61\"
\"\",\"\",\"approach-retreat\",\"65\",\"486606\",\"0.0-65.0\",\"\",\"\",\"1-5\",\"5068\",\"39\",\"0\",\"Training\",\"Stims/Figures/19-J-10-4.bmp\",\"tapata\",\"Right\",\"37\",\"4\",\"14\",\"4\",\"P\",\"J\",\"62\"
\"\",\"\",\"approach-retreat\",\"66\",\"492442\",\"0.0-66.0\",\"\",\"\",\"1-5\",\"4330\",\"40\",\"1\",\"Training\",\"Stims/Figures/87-C-20-4.bmp\",\"nala:na\",\"Down\",\"40\",\"4\",\"15\",\"4\",\"S\",\"J\",\"63\"
\"\",\"\",\"approach-retreat\",\"67\",\"498066\",\"0.0-67.0\",\"\",\"\",\"1-5\",\"4120\",\"39\",\"1\",\"Training\",\"Stims/Figures/111-C-30-3.bmp\",\"mama:na\",\"Right\",\"39\",\"4\",\"16\",\"4\",\"S\",\"J\",\"64\"
\"\",\"\",\"approach-retreat\",\"68\",\"506100\",\"0.0-68.0\",\"\",\"\",\"1-5\",\"6528\",\"39\",\"1\",\"Training\",\"Stims/Figures/87-C-20-4.bmp\",\"nala:na\",\"Right\",\"39\",\"5\",\"1\",\"4\",\"S\",\"J\",\"65\"
\"\",\"\",\"approach-retreat\",\"69\",\"512154\",\"0.0-69.0\",\"\",\"\",\"1-5\",\"4550\",\"38\",\"0\",\"Training\",\"Stims/Figures/118-J-0-2.bmp\",\"tapa:ta\",\"Up\",\"40\",\"5\",\"2\",\"4\",\"P\",\"J\",\"66\"
\"\",\"\",\"approach-retreat\",\"70\",\"518010\",\"0.0-70.0\",\"\",\"\",\"1-5\",\"4352\",\"40\",\"1\",\"Training\",\"Stims/Figures/118-C-20-2.bmp\",\"nalala\",\"Down\",\"40\",\"5\",\"3\",\"4\",\"S\",\"J\",\"67\"
\"\",\"\",\"approach-retreat\",\"71\",\"523746\",\"0.0-71.0\",\"\",\"\",\"1-5\",\"4232\",\"37\",\"1\",\"Training\",\"Stims/Figures/71-J-0-1.bmp\",\"tapa:ka\",\"Right\",\"37\",\"5\",\"4\",\"4\",\"P\",\"J\",\"68\"
\"\",\"\",\"approach-retreat\",\"72\",\"529442\",\"0.0-72.0\",\"\",\"\",\"1-5\",\"4190\",\"39\",\"1\",\"Training\",\"Stims/Figures/27-C-30-1.bmp\",\"nalana\",\"Right\",\"39\",\"5\",\"5\",\"4\",\"S\",\"J\",\"69\"
\"\",\"\",\"approach-retreat\",\"73\",\"535162\",\"0.0-73.0\",\"\",\"\",\"1-5\",\"4214\",\"37\",\"1\",\"Training\",\"Stims/Figures/71-C-30-1.bmp\",\"na:mana\",\"Left\",\"37\",\"5\",\"6\",\"4\",\"S\",\"J\",\"70\"
\"\",\"\",\"approach-retreat\",\"74\",\"540974\",\"0.0-74.0\",\"\",\"\",\"1-5\",\"4304\",\"39\",\"0\",\"Training\",\"Stims/Figures/84-C-20-2.bmp\",\"mamana\",\"Left\",\"37\",\"5\",\"7\",\"4\",\"S\",\"J\",\"71\"
\"\",\"\",\"approach-retreat\",\"75\",\"546786\",\"0.0-75.0\",\"\",\"\",\"1-5\",\"4306\",\"40\",\"0\",\"Training\",\"Stims/Figures/19-C-20-4.bmp\",\"ma:lala\",\"Up\",\"38\",\"5\",\"8\",\"4\",\"S\",\"J\",\"72\"
\"\",\"\",\"approach-retreat\",\"76\",\"552434\",\"0.0-76.0\",\"\",\"\",\"1-5\",\"4142\",\"40\",\"1\",\"Training\",\"Stims/Figures/84-J-0-2.bmp\",\"pakaka\",\"Up\",\"40\",\"5\",\"9\",\"4\",\"P\",\"J\",\"73\"
\"\",\"\",\"approach-retreat\",\"77\",\"558450\",\"0.0-77.0\",\"\",\"\",\"1-5\",\"4512\",\"38\",\"1\",\"Training\",\"Stims/Figures/128-J-10-3.bmp\",\"pa:kaka\",\"Down\",\"38\",\"5\",\"10\",\"4\",\"P\",\"J\",\"74\"
\"\",\"\",\"approach-retreat\",\"78\",\"564378\",\"0.0-78.0\",\"\",\"\",\"1-5\",\"4424\",\"38\",\"1\",\"Training\",\"Stims/Figures/27-J-0-1.bmp\",\"ta:pata\",\"Down\",\"38\",\"5\",\"11\",\"4\",\"P\",\"J\",\"75\"
\"\",\"\",\"approach-retreat\",\"79\",\"570426\",\"0.0-79.0\",\"\",\"\",\"1-5\",\"4544\",\"37\",\"1\",\"Training\",\"Stims/Figures/111-C-30-3.bmp\",\"mama:na\",\"Left\",\"37\",\"5\",\"12\",\"4\",\"S\",\"J\",\"76\"
\"\",\"\",\"approach-retreat\",\"80\",\"576530\",\"0.0-80.0\",\"\",\"\",\"1-5\",\"4600\",\"38\",\"0\",\"Training\",\"Stims/Figures/19-J-10-4.bmp\",\"tapata\",\"Up\",\"40\",\"5\",\"13\",\"4\",\"P\",\"J\",\"77\"
\"\",\"\",\"approach-retreat\",\"81\",\"582538\",\"0.0-81.0\",\"\",\"\",\"1-5\",\"4502\",\"37\",\"1\",\"Training\",\"Stims/Figures/128-C-30-3.bmp\",\"na:la:la\",\"Left\",\"37\",\"5\",\"14\",\"4\",\"S\",\"J\",\"78\"
\"\",\"\",\"approach-retreat\",\"82\",\"588314\",\"0.0-82.0\",\"\",\"\",\"1-5\",\"4270\",\"40\",\"0\",\"Training\",\"Stims/Figures/87-J-10-4.bmp\",\"tapaka\",\"Down\",\"38\",\"5\",\"15\",\"4\",\"P\",\"J\",\"79\"
\"\",\"\",\"approach-retreat\",\"83\",\"594298\",\"0.0-83.0\",\"\",\"\",\"1-5\",\"4478\",\"37\",\"1\",\"Training\",\"Stims/Figures/111-J-10-3.bmp\",\"pa:ka:ta\",\"Right\",\"37\",\"5\",\"16\",\"4\",\"P\",\"J\",\"80\"
\"\",\"\",\"approach-retreat\",\"84\",\"599866\",\"0.0-84.0\",\"\",\"\",\"1-5\",\"4062\",\"39\",\"1\",\"Training\",\"Stims/Figures/19-C-20-4.bmp\",\"ma:lala\",\"Right\",\"39\",\"6\",\"1\",\"4\",\"S\",\"J\",\"81\"
\"\",\"\",\"approach-retreat\",\"85\",\"605490\",\"0.0-85.0\",\"\",\"\",\"1-5\",\"4118\",\"39\",\"1\",\"Training\",\"Stims/Figures/84-J-0-2.bmp\",\"pakaka\",\"Left\",\"39\",\"6\",\"2\",\"4\",\"P\",\"J\",\"82\"
\"\",\"\",\"approach-retreat\",\"86\",\"611586\",\"0.0-86.0\",\"\",\"\",\"1-5\",\"4590\",\"37\",\"1\",\"Training\",\"Stims/Figures/27-J-0-1.bmp\",\"ta:pata\",\"Right\",\"37\",\"6\",\"3\",\"4\",\"P\",\"J\",\"83\"
\"\",\"\",\"approach-retreat\",\"87\",\"617258\",\"0.0-87.0\",\"\",\"\",\"1-5\",\"4166\",\"40\",\"0\",\"Training\",\"Stims/Figures/111-J-10-3.bmp\",\"pa:ka:ta\",\"Down\",\"38\",\"6\",\"4\",\"4\",\"P\",\"J\",\"84\"
\"\",\"\",\"approach-retreat\",\"88\",\"623160\",\"0.0-88.0\",\"\",\"\",\"1-5\",\"4392\",\"39\",\"1\",\"Training\",\"Stims/Figures/27-C-30-1.bmp\",\"nalana\",\"Right\",\"39\",\"6\",\"5\",\"4\",\"S\",\"J\",\"85\"
\"\",\"\",\"approach-retreat\",\"89\",\"629080\",\"0.0-89.0\",\"\",\"\",\"1-5\",\"4404\",\"40\",\"0\",\"Training\",\"Stims/Figures/118-C-20-2.bmp\",\"nalala\",\"Up\",\"38\",\"6\",\"6\",\"4\",\"S\",\"J\",\"86\"
\"\",\"\",\"approach-retreat\",\"90\",\"634864\",\"0.0-90.0\",\"\",\"\",\"1-5\",\"4280\",\"37\",\"1\",\"Training\",\"Stims/Figures/128-C-30-3.bmp\",\"na:la:la\",\"Left\",\"37\",\"6\",\"7\",\"4\",\"S\",\"J\",\"87\"
\"\",\"\",\"approach-retreat\",\"91\",\"640804\",\"0.0-91.0\",\"\",\"\",\"1-5\",\"4430\",\"40\",\"0\",\"Training\",\"Stims/Figures/71-J-0-1.bmp\",\"tapa:ka\",\"Down\",\"38\",\"6\",\"8\",\"4\",\"P\",\"J\",\"88\"
\"\",\"\",\"approach-retreat\",\"92\",\"646674\",\"0.0-92.0\",\"\",\"\",\"1-5\",\"4362\",\"38\",\"0\",\"Training\",\"Stims/Figures/19-J-10-4.bmp\",\"tapata\",\"Up\",\"40\",\"6\",\"9\",\"4\",\"P\",\"J\",\"89\"
\"\",\"\",\"approach-retreat\",\"93\",\"652334\",\"0.0-93.0\",\"\",\"\",\"1-5\",\"4150\",\"37\",\"0\",\"Training\",\"Stims/Figures/118-J-0-2.bmp\",\"tapa:ta\",\"Left\",\"39\",\"6\",\"10\",\"4\",\"P\",\"J\",\"90\"
\"\",\"\",\"approach-retreat\",\"94\",\"658184\",\"0.0-94.0\",\"\",\"\",\"1-5\",\"4338\",\"39\",\"0\",\"Training\",\"Stims/Figures/128-J-10-3.bmp\",\"pa:kaka\",\"Right\",\"37\",\"6\",\"11\",\"4\",\"P\",\"J\",\"91\"
\"\",\"\",\"approach-retreat\",\"95\",\"664026\",\"0.0-95.0\",\"\",\"\",\"1-5\",\"4336\",\"38\",\"0\",\"Training\",\"Stims/Figures/84-C-20-2.bmp\",\"mamana\",\"Down\",\"40\",\"6\",\"12\",\"4\",\"S\",\"J\",\"92\"
\"\",\"\",\"approach-retreat\",\"96\",\"669744\",\"0.0-96.0\",\"\",\"\",\"1-5\",\"4214\",\"37\",\"1\",\"Training\",\"Stims/Figures/111-C-30-3.bmp\",\"mama:na\",\"Left\",\"37\",\"6\",\"13\",\"4\",\"S\",\"J\",\"93\"
\"\",\"\",\"approach-retreat\",\"97\",\"675496\",\"0.0-97.0\",\"\",\"\",\"1-5\",\"4240\",\"38\",\"0\",\"Training\",\"Stims/Figures/87-J-10-4.bmp\",\"tapaka\",\"Up\",\"40\",\"6\",\"14\",\"4\",\"P\",\"J\",\"94\"
\"\",\"\",\"approach-retreat\",\"98\",\"682190\",\"0.0-98.0\",\"\",\"\",\"1-5\",\"5184\",\"40\",\"0\",\"Training\",\"Stims/Figures/87-C-20-4.bmp\",\"nala:na\",\"Up\",\"38\",\"6\",\"15\",\"4\",\"S\",\"J\",\"95\"
\"\",\"\",\"approach-retreat\",\"99\",\"687878\",\"0.0-99.0\",\"\",\"\",\"1-5\",\"4176\",\"38\",\"0\",\"Training\",\"Stims/Figures/71-C-30-1.bmp\",\"na:mana\",\"Down\",\"40\",\"6\",\"16\",\"4\",\"S\",\"J\",\"96\"
\"\",\"\",\"approach-retreat\",\"100\",\"694888\",\"0.0-100.0\",\"\",\"\",\"1-5\",\"5494\",\"37\",\"0\",\"Training\",\"Stims/Figures/27-J-0-1.bmp\",\"ta:pata\",\"Left\",\"39\",\"7\",\"1\",\"4\",\"P\",\"J\",\"97\"
\"\",\"\",\"approach-retreat\",\"101\",\"700696\",\"0.0-101.0\",\"\",\"\",\"1-5\",\"4304\",\"39\",\"1\",\"Training\",\"Stims/Figures/84-J-0-2.bmp\",\"pakaka\",\"Left\",\"39\",\"7\",\"2\",\"4\",\"P\",\"J\",\"98\"
\"\",\"\",\"approach-retreat\",\"102\",\"706424\",\"0.0-102.0\",\"\",\"\",\"1-5\",\"4224\",\"39\",\"1\",\"Training\",\"Stims/Figures/111-C-30-3.bmp\",\"mama:na\",\"Right\",\"39\",\"7\",\"3\",\"4\",\"S\",\"J\",\"99\"
\"\",\"\",\"approach-retreat\",\"103\",\"712258\",\"0.0-103.0\",\"\",\"\",\"1-5\",\"4326\",\"38\",\"0\",\"Training\",\"Stims/Figures/128-C-30-3.bmp\",\"na:la:la\",\"Down\",\"40\",\"7\",\"4\",\"4\",\"S\",\"J\",\"100\"
\"\",\"\",\"approach-retreat\",\"104\",\"717880\",\"0.0-104.0\",\"\",\"\",\"1-5\",\"4118\",\"40\",\"1\",\"Training\",\"Stims/Figures/71-J-0-1.bmp\",\"tapa:ka\",\"Up\",\"40\",\"7\",\"5\",\"4\",\"P\",\"J\",\"101\"
\"\",\"\",\"approach-retreat\",\"105\",\"725272\",\"0.0-105.0\",\"\",\"\",\"1-5\",\"5878\",\"39\",\"0\",\"Training\",\"Stims/Figures/19-J-10-4.bmp\",\"tapata\",\"Right\",\"37\",\"7\",\"6\",\"4\",\"P\",\"J\",\"102\"
\"\",\"\",\"approach-retreat\",\"106\",\"730962\",\"0.0-106.0\",\"\",\"\",\"1-5\",\"4182\",\"38\",\"0\",\"Training\",\"Stims/Figures/71-C-30-1.bmp\",\"na:mana\",\"Down\",\"40\",\"7\",\"7\",\"4\",\"S\",\"J\",\"103\"
\"\",\"\",\"approach-retreat\",\"107\",\"736508\",\"0.0-107.0\",\"\",\"\",\"1-5\",\"4040\",\"40\",\"0\",\"Training\",\"Stims/Figures/27-C-30-1.bmp\",\"nalana\",\"Up\",\"38\",\"7\",\"8\",\"4\",\"S\",\"J\",\"104\"
\"\",\"\",\"approach-retreat\",\"108\",\"742384\",\"0.0-108.0\",\"\",\"\",\"1-5\",\"4370\",\"38\",\"1\",\"Training\",\"Stims/Figures/118-J-0-2.bmp\",\"tapa:ta\",\"Down\",\"38\",\"7\",\"9\",\"4\",\"P\",\"J\",\"105\"
\"\",\"\",\"approach-retreat\",\"109\",\"748080\",\"0.0-109.0\",\"\",\"\",\"1-5\",\"4190\",\"39\",\"1\",\"Training\",\"Stims/Figures/111-J-10-3.bmp\",\"pa:ka:ta\",\"Left\",\"39\",\"7\",\"10\",\"4\",\"P\",\"J\",\"106\"
\"\",\"\",\"approach-retreat\",\"110\",\"754408\",\"0.0-110.0\",\"\",\"\",\"1-5\",\"4822\",\"39\",\"1\",\"Training\",\"Stims/Figures/118-C-20-2.bmp\",\"nalala\",\"Right\",\"39\",\"7\",\"11\",\"4\",\"S\",\"J\",\"107\"
\"\",\"\",\"approach-retreat\",\"111\",\"760222\",\"0.0-111.0\",\"\",\"\",\"1-5\",\"4310\",\"40\",\"1\",\"Training\",\"Stims/Figures/128-J-10-3.bmp\",\"pa:kaka\",\"Up\",\"40\",\"7\",\"12\",\"4\",\"P\",\"J\",\"108\"
\"\",\"\",\"approach-retreat\",\"112\",\"765956\",\"0.0-112.0\",\"\",\"\",\"1-5\",\"4224\",\"39\",\"0\",\"Training\",\"Stims/Figures/87-C-20-4.bmp\",\"nala:na\",\"Left\",\"37\",\"7\",\"13\",\"4\",\"S\",\"J\",\"109\"
\"\",\"\",\"approach-retreat\",\"113\",\"771598\",\"0.0-113.0\",\"\",\"\",\"1-5\",\"4138\",\"40\",\"1\",\"Training\",\"Stims/Figures/87-J-10-4.bmp\",\"tapaka\",\"Up\",\"40\",\"7\",\"14\",\"4\",\"P\",\"J\",\"110\"
\"\",\"\",\"approach-retreat\",\"114\",\"780170\",\"0.0-114.0\",\"\",\"\",\"1-5\",\"7058\",\"38\",\"0\",\"Training\",\"Stims/Figures/19-C-20-4.bmp\",\"ma:lala\",\"Down\",\"40\",\"7\",\"15\",\"4\",\"S\",\"J\",\"111\"
\"\",\"\",\"approach-retreat\",\"115\",\"786212\",\"0.0-115.0\",\"\",\"\",\"1-5\",\"4532\",\"37\",\"0\",\"Training\",\"Stims/Figures/84-C-20-2.bmp\",\"mamana\",\"Right\",\"39\",\"7\",\"16\",\"4\",\"S\",\"J\",\"112\"
\"\",\"\",\"approach-retreat\",\"116\",\"791942\",\"0.0-116.0\",\"\",\"\",\"1-5\",\"4226\",\"39\",\"1\",\"Training\",\"Stims/Figures/111-J-10-3.bmp\",\"pa:ka:ta\",\"Left\",\"39\",\"8\",\"1\",\"4\",\"P\",\"J\",\"113\"
\"\",\"\",\"approach-retreat\",\"117\",\"797558\",\"0.0-117.0\",\"\",\"\",\"1-5\",\"4112\",\"39\",\"1\",\"Training\",\"Stims/Figures/87-J-10-4.bmp\",\"tapaka\",\"Left\",\"39\",\"8\",\"2\",\"4\",\"P\",\"J\",\"114\"
\"\",\"\",\"approach-retreat\",\"118\",\"803310\",\"0.0-118.0\",\"\",\"\",\"1-5\",\"4248\",\"40\",\"1\",\"Training\",\"Stims/Figures/118-J-0-2.bmp\",\"tapa:ta\",\"Up\",\"40\",\"8\",\"3\",\"4\",\"P\",\"J\",\"115\"
\"\",\"\",\"approach-retreat\",\"119\",\"809414\",\"0.0-119.0\",\"\",\"\",\"1-5\",\"4600\",\"38\",\"1\",\"Training\",\"Stims/Figures/27-J-0-1.bmp\",\"ta:pata\",\"Down\",\"38\",\"8\",\"4\",\"4\",\"P\",\"J\",\"116\"
\"\",\"\",\"approach-retreat\",\"120\",\"815078\",\"0.0-120.0\",\"\",\"\",\"1-5\",\"4152\",\"40\",\"0\",\"Training\",\"Stims/Figures/128-J-10-3.bmp\",\"pa:kaka\",\"Down\",\"38\",\"8\",\"5\",\"4\",\"P\",\"J\",\"117\"
\"\",\"\",\"approach-retreat\",\"121\",\"820798\",\"0.0-121.0\",\"\",\"\",\"1-5\",\"4218\",\"40\",\"1\",\"Training\",\"Stims/Figures/84-J-0-2.bmp\",\"pakaka\",\"Up\",\"40\",\"8\",\"6\",\"4\",\"P\",\"J\",\"118\"
\"\",\"\",\"approach-retreat\",\"122\",\"826726\",\"0.0-122.0\",\"\",\"\",\"1-5\",\"4420\",\"37\",\"0\",\"Training\",\"Stims/Figures/118-C-20-2.bmp\",\"nalala\",\"Right\",\"39\",\"8\",\"7\",\"4\",\"S\",\"J\",\"119\"
\"\",\"\",\"approach-retreat\",\"123\",\"832486\",\"0.0-123.0\",\"\",\"\",\"1-5\",\"4248\",\"39\",\"0\",\"Training\",\"Stims/Figures/84-C-20-2.bmp\",\"mamana\",\"Left\",\"37\",\"8\",\"8\",\"4\",\"S\",\"J\",\"120\"
\"\",\"\",\"approach-retreat\",\"124\",\"838306\",\"0.0-124.0\",\"\",\"\",\"1-5\",\"4312\",\"37\",\"0\",\"Training\",\"Stims/Figures/19-J-10-4.bmp\",\"tapata\",\"Left\",\"39\",\"8\",\"9\",\"4\",\"P\",\"J\",\"121\"
\"\",\"\",\"approach-retreat\",\"125\",\"844228\",\"0.0-125.0\",\"\",\"\",\"1-5\",\"4410\",\"40\",\"0\",\"Training\",\"Stims/Figures/71-C-30-1.bmp\",\"na:mana\",\"Up\",\"38\",\"8\",\"10\",\"4\",\"S\",\"J\",\"122\"
\"\",\"\",\"approach-retreat\",\"126\",\"849918\",\"0.0-126.0\",\"\",\"\",\"1-5\",\"4184\",\"39\",\"1\",\"Training\",\"Stims/Figures/87-C-20-4.bmp\",\"nala:na\",\"Right\",\"39\",\"8\",\"11\",\"4\",\"S\",\"J\",\"123\"
\"\",\"\",\"approach-retreat\",\"127\",\"855750\",\"0.0-127.0\",\"\",\"\",\"1-5\",\"4320\",\"38\",\"0\",\"Training\",\"Stims/Figures/111-C-30-3.bmp\",\"mama:na\",\"Down\",\"40\",\"8\",\"12\",\"4\",\"S\",\"J\",\"124\"
\"\",\"\",\"approach-retreat\",\"128\",\"861416\",\"0.0-128.0\",\"\",\"\",\"1-5\",\"4158\",\"38\",\"0\",\"Training\",\"Stims/Figures/19-C-20-4.bmp\",\"ma:lala\",\"Down\",\"40\",\"8\",\"13\",\"4\",\"S\",\"J\",\"125\"
\"\",\"\",\"approach-retreat\",\"129\",\"867246\",\"0.0-129.0\",\"\",\"\",\"1-5\",\"4324\",\"38\",\"1\",\"Training\",\"Stims/Figures/27-C-30-1.bmp\",\"nalana\",\"Up\",\"38\",\"8\",\"14\",\"4\",\"S\",\"J\",\"126\"
\"\",\"\",\"approach-retreat\",\"130\",\"873278\",\"0.0-130.0\",\"\",\"\",\"1-5\",\"4526\",\"37\",\"1\",\"Training\",\"Stims/Figures/71-J-0-1.bmp\",\"tapa:ka\",\"Right\",\"37\",\"8\",\"15\",\"4\",\"P\",\"J\",\"127\"
\"\",\"\",\"approach-retreat\",\"131\",\"880430\",\"0.0-131.0\",\"\",\"\",\"1-5\",\"5646\",\"39\",\"1\",\"Training\",\"Stims/Figures/128-C-30-3.bmp\",\"na:la:la\",\"Right\",\"39\",\"8\",\"16\",\"4\",\"S\",\"J\",\"128\"
\"\",\"\",\"approach-retreat\",\"132\",\"890942\",\"0.0-132.0\",\"\",\"\",\"1-5\",\"9004\",\"38\",\"1\",\"Training\",\"Stims/Figures/87-J-10-4.bmp\",\"tapaka\",\"Down\",\"38\",\"9\",\"1\",\"4\",\"P\",\"J\",\"129\"
\"\",\"\",\"approach-retreat\",\"133\",\"896596\",\"0.0-133.0\",\"\",\"\",\"1-5\",\"4150\",\"38\",\"1\",\"Training\",\"Stims/Figures/19-J-10-4.bmp\",\"tapata\",\"Down\",\"38\",\"9\",\"2\",\"4\",\"P\",\"J\",\"130\"
\"\",\"\",\"approach-retreat\",\"134\",\"902884\",\"0.0-134.0\",\"\",\"\",\"1-5\",\"4778\",\"39\",\"0\",\"Training\",\"Stims/Figures/111-J-10-3.bmp\",\"pa:ka:ta\",\"Right\",\"37\",\"9\",\"3\",\"4\",\"P\",\"J\",\"131\"
\"\",\"\",\"approach-retreat\",\"135\",\"908806\",\"0.0-135.0\",\"\",\"\",\"1-5\",\"4416\",\"39\",\"1\",\"Training\",\"Stims/Figures/118-C-20-2.bmp\",\"nalala\",\"Right\",\"39\",\"9\",\"4\",\"4\",\"S\",\"J\",\"132\"
\"\",\"\",\"approach-retreat\",\"136\",\"914716\",\"0.0-136.0\",\"\",\"\",\"1-5\",\"4406\",\"40\",\"1\",\"Training\",\"Stims/Figures/84-J-0-2.bmp\",\"pakaka\",\"Up\",\"40\",\"9\",\"5\",\"4\",\"P\",\"J\",\"133\"
\"\",\"\",\"approach-retreat\",\"137\",\"921244\",\"0.0-137.0\",\"\",\"\",\"1-5\",\"5024\",\"39\",\"1\",\"Training\",\"Stims/Figures/111-C-30-3.bmp\",\"mama:na\",\"Right\",\"39\",\"9\",\"6\",\"4\",\"S\",\"J\",\"134\"
\"\",\"\",\"approach-retreat\",\"138\",\"926996\",\"0.0-138.0\",\"\",\"\",\"1-5\",\"4248\",\"38\",\"1\",\"Training\",\"Stims/Figures/71-J-0-1.bmp\",\"tapa:ka\",\"Down\",\"38\",\"9\",\"7\",\"4\",\"P\",\"J\",\"135\"
\"\",\"\",\"approach-retreat\",\"139\",\"932804\",\"0.0-139.0\",\"\",\"\",\"1-5\",\"4298\",\"40\",\"1\",\"Training\",\"Stims/Figures/27-C-30-1.bmp\",\"nalana\",\"Down\",\"40\",\"9\",\"8\",\"4\",\"S\",\"J\",\"136\"
\"\",\"\",\"approach-retreat\",\"140\",\"938564\",\"0.0-140.0\",\"\",\"\",\"1-5\",\"4252\",\"39\",\"1\",\"Training\",\"Stims/Figures/128-C-30-3.bmp\",\"na:la:la\",\"Right\",\"39\",\"9\",\"9\",\"4\",\"S\",\"J\",\"137\"
\"\",\"\",\"approach-retreat\",\"141\",\"944804\",\"0.0-141.0\",\"\",\"\",\"1-5\",\"4736\",\"40\",\"1\",\"Training\",\"Stims/Figures/128-J-10-3.bmp\",\"pa:kaka\",\"Up\",\"40\",\"9\",\"10\",\"4\",\"P\",\"J\",\"138\"
\"\",\"\",\"approach-retreat\",\"142\",\"950762\",\"0.0-142.0\",\"\",\"\",\"1-5\",\"4448\",\"37\",\"0\",\"Training\",\"Stims/Figures/27-J-0-1.bmp\",\"ta:pata\",\"Left\",\"39\",\"9\",\"11\",\"4\",\"P\",\"J\",\"139\"
\"\",\"\",\"approach-retreat\",\"143\",\"956676\",\"0.0-143.0\",\"\",\"\",\"1-5\",\"4408\",\"38\",\"1\",\"Training\",\"Stims/Figures/71-C-30-1.bmp\",\"na:mana\",\"Up\",\"38\",\"9\",\"12\",\"4\",\"S\",\"J\",\"140\"
\"\",\"\",\"approach-retreat\",\"144\",\"962932\",\"0.0-144.0\",\"\",\"\",\"1-5\",\"4752\",\"38\",\"0\",\"Training\",\"Stims/Figures/118-J-0-2.bmp\",\"tapa:ta\",\"Up\",\"40\",\"9\",\"13\",\"4\",\"P\",\"J\",\"141\"
\"\",\"\",\"approach-retreat\",\"145\",\"968700\",\"0.0-145.0\",\"\",\"\",\"1-5\",\"4262\",\"37\",\"1\",\"Training\",\"Stims/Figures/84-C-20-2.bmp\",\"mamana\",\"Left\",\"37\",\"9\",\"14\",\"4\",\"S\",\"J\",\"142\"
\"\",\"\",\"approach-retreat\",\"146\",\"974652\",\"0.0-146.0\",\"\",\"\",\"1-5\",\"4446\",\"37\",\"1\",\"Training\",\"Stims/Figures/87-C-20-4.bmp\",\"nala:na\",\"Left\",\"37\",\"9\",\"15\",\"4\",\"S\",\"J\",\"143\"
\"\",\"\",\"approach-retreat\",\"147\",\"980396\",\"0.0-147.0\",\"\",\"\",\"1-5\",\"4238\",\"37\",\"1\",\"Training\",\"Stims/Figures/19-C-20-4.bmp\",\"ma:lala\",\"Left\",\"37\",\"9\",\"16\",\"4\",\"S\",\"J\",\"144\"
\"15884\",\"\",\"instructions\",\"148\",\"996280\",\"0.0-148.0\",\"[{\"\"page_index\"\":0,\"\"viewing_time\"\":15884}]\",\"\",\"\",\"\",\"\",\"\",\"\",\"\",\"\",\"\",\"\",\"\",\"\",\"\",\"\",\"\",\"\"
\"\",\"\",\"approach-retreat\",\"149\",\"1004652\",\"0.0-149.0\",\"\",\"\",\"1-5\",\"6854\",\"38\",\"1\",\"Testing\",\"Stims/Figures/94-J-0-2.bmp\",\"ta:ka:ta\",\"Down\",\"38\",\"1\",\"1\",\"4\",\"P\",\"J\",\"1\"
\"\",\"\",\"approach-retreat\",\"150\",\"1013362\",\"0.0-150.0\",\"\",\"\",\"1-5\",\"7198\",\"37\",\"1\",\"Testing\",\"Stims/Figures/87-J-10-4.bmp\",\"tapaka\",\"Right\",\"37\",\"1\",\"2\",\"4\",\"P\",\"J\",\"2\"
\"\",\"\",\"approach-retreat\",\"151\",\"1021246\",\"0.0-151.0\",\"\",\"\",\"1-5\",\"6376\",\"38\",\"0\",\"Testing\",\"Stims/Figures/128-J-10-3.bmp\",\"pa:kaka\",\"Up\",\"40\",\"1\",\"3\",\"4\",\"P\",\"J\",\"3\"
\"\",\"\",\"approach-retreat\",\"152\",\"1027772\",\"0.0-152.0\",\"\",\"\",\"1-5\",\"5020\",\"39\",\"1\",\"Testing\",\"Stims/Figures/71-C-30-1.bmp\",\"na:mana\",\"Right\",\"39\",\"1\",\"4\",\"4\",\"S\",\"J\",\"4\"
\"\",\"\",\"approach-retreat\",\"153\",\"1033952\",\"0.0-153.0\",\"\",\"\",\"1-5\",\"4670\",\"39\",\"0\",\"Testing\",\"Stims/Figures/128-C-30-3.bmp\",\"na:la:la\",\"Left\",\"37\",\"1\",\"5\",\"4\",\"S\",\"J\",\"5\"
\"\",\"\",\"approach-retreat\",\"154\",\"1039652\",\"0.0-154.0\",\"\",\"\",\"1-5\",\"4194\",\"38\",\"0\",\"Testing\",\"Stims/Figures/86-C-30-1.bmp\",\"ma:mala\",\"Down\",\"40\",\"1\",\"6\",\"4\",\"S\",\"J\",\"6\"
\"\",\"\",\"approach-retreat\",\"155\",\"1046732\",\"0.0-155.0\",\"\",\"\",\"1-5\",\"5574\",\"39\",\"1\",\"Testing\",\"Stims/Figures/27-C-30-1.bmp\",\"nalana\",\"Right\",\"39\",\"1\",\"7\",\"4\",\"S\",\"J\",\"7\"
\"\",\"\",\"approach-retreat\",\"156\",\"1052738\",\"0.0-156.0\",\"\",\"\",\"1-5\",\"4502\",\"37\",\"0\",\"Testing\",\"Stims/Figures/144-C-30-3.bmp\",\"nala:la\",\"Right\",\"39\",\"1\",\"8\",\"4\",\"S\",\"J\",\"8\"
\"\",\"\",\"approach-retreat\",\"157\",\"1063492\",\"0.0-157.0\",\"\",\"\",\"1-5\",\"9238\",\"39\",\"0\",\"Testing\",\"Stims/Figures/102-J-10-4.bmp\",\"ta:kata\",\"Right\",\"37\",\"1\",\"9\",\"4\",\"P\",\"J\",\"9\"
\"\",\"\",\"approach-retreat\",\"158\",\"1071292\",\"0.0-158.0\",\"\",\"\",\"1-5\",\"6294\",\"37\",\"1\",\"Testing\",\"Stims/Figures/84-C-20-2.bmp\",\"mamana\",\"Left\",\"37\",\"1\",\"10\",\"4\",\"S\",\"J\",\"10\"
\"\",\"\",\"approach-retreat\",\"159\",\"1077302\",\"0.0-159.0\",\"\",\"\",\"1-5\",\"4502\",\"38\",\"1\",\"Testing\",\"Stims/Figures/19-C-20-4.bmp\",\"ma:lala\",\"Up\",\"38\",\"1\",\"11\",\"4\",\"S\",\"J\",\"11\"
\"\",\"\",\"approach-retreat\",\"160\",\"1083244\",\"0.0-160.0\",\"\",\"\",\"1-5\",\"4428\",\"38\",\"1\",\"Testing\",\"Stims/Figures/102-C-20-4.bmp\",\"malana\",\"Up\",\"38\",\"1\",\"12\",\"4\",\"S\",\"J\",\"12\"
\"\",\"\",\"approach-retreat\",\"161\",\"1092326\",\"0.0-161.0\",\"\",\"\",\"1-5\",\"7574\",\"38\",\"0\",\"Testing\",\"Stims/Figures/111-J-10-3.bmp\",\"pa:ka:ta\",\"Up\",\"40\",\"1\",\"13\",\"4\",\"P\",\"J\",\"13\"
\"\",\"\",\"approach-retreat\",\"162\",\"1097920\",\"0.0-162.0\",\"\",\"\",\"1-5\",\"4082\",\"37\",\"0\",\"Testing\",\"Stims/Figures/118-C-20-2.bmp\",\"nalala\",\"Right\",\"39\",\"1\",\"14\",\"4\",\"S\",\"J\",\"14\"
\"\",\"\",\"approach-retreat\",\"163\",\"1103722\",\"0.0-163.0\",\"\",\"\",\"1-5\",\"4288\",\"40\",\"1\",\"Testing\",\"Stims/Figures/87-C-20-4.bmp\",\"nala:na\",\"Down\",\"40\",\"1\",\"15\",\"4\",\"S\",\"J\",\"15\"
\"\",\"\",\"approach-retreat\",\"164\",\"1109130\",\"0.0-164.0\",\"\",\"\",\"1-5\",\"3902\",\"40\",\"0\",\"Testing\",\"Stims/Figures/84-J-0-2.bmp\",\"pakaka\",\"Down\",\"38\",\"1\",\"16\",\"4\",\"P\",\"J\",\"16\"
\"\",\"\",\"approach-retreat\",\"165\",\"1114804\",\"0.0-165.0\",\"\",\"\",\"1-5\",\"4166\",\"39\",\"1\",\"Testing\",\"Stims/Figures/19-J-10-4.bmp\",\"tapata\",\"Left\",\"39\",\"1\",\"17\",\"4\",\"P\",\"J\",\"17\"
\"\",\"\",\"approach-retreat\",\"166\",\"1120494\",\"0.0-166.0\",\"\",\"\",\"1-5\",\"4180\",\"40\",\"1\",\"Testing\",\"Stims/Figures/27-J-0-1.bmp\",\"ta:pata\",\"Up\",\"40\",\"1\",\"18\",\"4\",\"P\",\"J\",\"18\"
\"\",\"\",\"approach-retreat\",\"167\",\"1126094\",\"0.0-167.0\",\"\",\"\",\"1-5\",\"4090\",\"37\",\"0\",\"Testing\",\"Stims/Figures/118-J-0-2.bmp\",\"tapa:ta\",\"Left\",\"39\",\"1\",\"19\",\"4\",\"P\",\"J\",\"19\"
\"\",\"\",\"approach-retreat\",\"168\",\"1131862\",\"0.0-168.0\",\"\",\"\",\"1-5\",\"4256\",\"39\",\"0\",\"Testing\",\"Stims/Figures/111-C-30-3.bmp\",\"mama:na\",\"Left\",\"37\",\"1\",\"20\",\"4\",\"S\",\"J\",\"20\"
\"\",\"\",\"approach-retreat\",\"169\",\"1137542\",\"0.0-169.0\",\"\",\"\",\"1-5\",\"4170\",\"38\",\"1\",\"Testing\",\"Stims/Figures/94-C-20-2.bmp\",\"ma:ma:na\",\"Up\",\"38\",\"1\",\"21\",\"4\",\"S\",\"J\",\"21\"
\"\",\"\",\"approach-retreat\",\"170\",\"1143362\",\"0.0-170.0\",\"\",\"\",\"1-5\",\"4312\",\"38\",\"1\",\"Testing\",\"Stims/Figures/144-J-10-3.bmp\",\"pa:ka:ka\",\"Down\",\"38\",\"1\",\"22\",\"4\",\"P\",\"J\",\"22\"
\"\",\"\",\"approach-retreat\",\"171\",\"1148992\",\"0.0-171.0\",\"\",\"\",\"1-5\",\"4118\",\"38\",\"1\",\"Testing\",\"Stims/Figures/71-J-0-1.bmp\",\"tapa:ka\",\"Down\",\"38\",\"1\",\"23\",\"4\",\"P\",\"J\",\"23\"
\"\",\"\",\"approach-retreat\",\"172\",\"1154602\",\"0.0-172.0\",\"\",\"\",\"1-5\",\"4102\",\"37\",\"0\",\"Testing\",\"Stims/Figures/86-J-0-1.bmp\",\"papa:ka\",\"Left\",\"39\",\"1\",\"24\",\"4\",\"P\",\"J\",\"24\"
\"\",\"\",\"approach-retreat\",\"173\",\"1160232\",\"0.0-173.0\",\"\",\"\",\"1-5\",\"4118\",\"38\",\"0\",\"Testing\",\"Stims/Figures/102-J-10-4.bmp\",\"ta:kata\",\"Up\",\"40\",\"2\",\"1\",\"4\",\"P\",\"J\",\"25\"
\"\",\"\",\"approach-retreat\",\"174\",\"1166356\",\"0.0-174.0\",\"\",\"\",\"1-5\",\"4616\",\"40\",\"0\",\"Testing\",\"Stims/Figures/94-C-20-2.bmp\",\"ma:ma:na\",\"Up\",\"38\",\"2\",\"2\",\"4\",\"S\",\"J\",\"26\"
\"\",\"\",\"approach-retreat\",\"175\",\"1172598\",\"0.0-175.0\",\"\",\"\",\"1-5\",\"4732\",\"37\",\"1\",\"Testing\",\"Stims/Figures/87-J-10-4.bmp\",\"tapaka\",\"Right\",\"37\",\"2\",\"3\",\"4\",\"P\",\"J\",\"27\"
\"\",\"\",\"approach-retreat\",\"176\",\"1178498\",\"0.0-176.0\",\"\",\"\",\"1-5\",\"4394\",\"37\",\"0\",\"Testing\",\"Stims/Figures/128-J-10-3.bmp\",\"pa:kaka\",\"Left\",\"39\",\"2\",\"4\",\"4\",\"P\",\"J\",\"28\"
\"\",\"\",\"approach-retreat\",\"177\",\"1184860\",\"0.0-177.0\",\"\",\"\",\"1-5\",\"4854\",\"39\",\"0\",\"Testing\",\"Stims/Figures/84-J-0-2.bmp\",\"pakaka\",\"Right\",\"37\",\"2\",\"5\",\"4\",\"P\",\"J\",\"29\"
\"\",\"\",\"approach-retreat\",\"178\",\"1190560\",\"0.0-178.0\",\"\",\"\",\"1-5\",\"4188\",\"39\",\"1\",\"Testing\",\"Stims/Figures/27-J-0-1.bmp\",\"ta:pata\",\"Left\",\"39\",\"2\",\"6\",\"4\",\"P\",\"J\",\"30\"
\"\",\"\",\"approach-retreat\",\"179\",\"1200500\",\"0.0-179.0\",\"\",\"\",\"1-5\",\"8432\",\"38\",\"1\",\"Testing\",\"Stims/Figures/111-C-30-3.bmp\",\"mama:na\",\"Up\",\"38\",\"2\",\"7\",\"4\",\"S\",\"J\",\"31\"
\"\",\"\",\"approach-retreat\",\"180\",\"1207412\",\"0.0-180.0\",\"\",\"\",\"1-5\",\"5404\",\"38\",\"1\",\"Testing\",\"Stims/Figures/94-J-0-2.bmp\",\"ta:ka:ta\",\"Down\",\"38\",\"2\",\"8\",\"4\",\"P\",\"J\",\"32\"
\"\",\"\",\"approach-retreat\",\"181\",\"1213092\",\"0.0-181.0\",\"\",\"\",\"1-5\",\"4172\",\"39\",\"1\",\"Testing\",\"Stims/Figures/84-C-20-2.bmp\",\"mamana\",\"Right\",\"39\",\"2\",\"9\",\"4\",\"S\",\"J\",\"33\"
\"\",\"\",\"approach-retreat\",\"182\",\"1218860\",\"0.0-182.0\",\"\",\"\",\"1-5\",\"4262\",\"38\",\"1\",\"Testing\",\"Stims/Figures/71-J-0-1.bmp\",\"tapa:ka\",\"Down\",\"38\",\"2\",\"10\",\"4\",\"P\",\"J\",\"34\"
\"\",\"\",\"approach-retreat\",\"183\",\"1224484\",\"0.0-183.0\",\"\",\"\",\"1-5\",\"4116\",\"40\",\"1\",\"Testing\",\"Stims/Figures/118-C-20-2.bmp\",\"nalala\",\"Down\",\"40\",\"2\",\"11\",\"4\",\"S\",\"J\",\"35\"
\"\",\"\",\"approach-retreat\",\"184\",\"1230008\",\"0.0-184.0\",\"\",\"\",\"1-5\",\"4018\",\"40\",\"1\",\"Testing\",\"Stims/Figures/102-C-20-4.bmp\",\"malana\",\"Down\",\"40\",\"2\",\"12\",\"4\",\"S\",\"J\",\"36\"
\"\",\"\",\"approach-retreat\",\"185\",\"1235848\",\"0.0-185.0\",\"\",\"\",\"1-5\",\"4330\",\"40\",\"0\",\"Testing\",\"Stims/Figures/128-C-30-3.bmp\",\"na:la:la\",\"Up\",\"38\",\"2\",\"13\",\"4\",\"S\",\"J\",\"37\"
\"\",\"\",\"approach-retreat\",\"186\",\"1245708\",\"0.0-186.0\",\"\",\"\",\"1-5\",\"8350\",\"38\",\"0\",\"Testing\",\"Stims/Figures/144-C-30-3.bmp\",\"nala:la\",\"Down\",\"40\",\"2\",\"14\",\"4\",\"S\",\"J\",\"38\"
\"\",\"\",\"approach-retreat\",\"187\",\"1252038\",\"0.0-187.0\",\"\",\"\",\"1-5\",\"4818\",\"37\",\"0\",\"Testing\",\"Stims/Figures/144-J-10-3.bmp\",\"pa:ka:ka\",\"Left\",\"39\",\"2\",\"15\",\"4\",\"P\",\"J\",\"39\"
\"\",\"\",\"approach-retreat\",\"188\",\"1258478\",\"0.0-188.0\",\"\",\"\",\"1-5\",\"4928\",\"39\",\"0\",\"Testing\",\"Stims/Figures/111-J-10-3.bmp\",\"pa:ka:ta\",\"Right\",\"37\",\"2\",\"16\",\"4\",\"P\",\"J\",\"40\"
\"\",\"\",\"approach-retreat\",\"189\",\"1264934\",\"0.0-189.0\",\"\",\"\",\"1-5\",\"4944\",\"37\",\"1\",\"Testing\",\"Stims/Figures/27-C-30-1.bmp\",\"nalana\",\"Left\",\"37\",\"2\",\"17\",\"4\",\"S\",\"J\",\"41\"
\"\",\"\",\"approach-retreat\",\"190\",\"1272480\",\"0.0-190.0\",\"\",\"\",\"1-5\",\"6040\",\"39\",\"1\",\"Testing\",\"Stims/Figures/87-C-20-4.bmp\",\"nala:na\",\"Right\",\"39\",\"2\",\"18\",\"4\",\"S\",\"J\",\"42\"
\"\",\"\",\"approach-retreat\",\"191\",\"1278174\",\"0.0-191.0\",\"\",\"\",\"1-5\",\"4182\",\"37\",\"1\",\"Testing\",\"Stims/Figures/86-J-0-1.bmp\",\"papa:ka\",\"Right\",\"37\",\"2\",\"19\",\"4\",\"P\",\"J\",\"43\"
\"\",\"\",\"approach-retreat\",\"192\",\"1283870\",\"0.0-192.0\",\"\",\"\",\"1-5\",\"4184\",\"37\",\"1\",\"Testing\",\"Stims/Figures/19-C-20-4.bmp\",\"ma:lala\",\"Left\",\"37\",\"2\",\"20\",\"4\",\"S\",\"J\",\"44\"
\"\",\"\",\"approach-retreat\",\"193\",\"1289900\",\"0.0-193.0\",\"\",\"\",\"1-5\",\"4520\",\"38\",\"0\",\"Testing\",\"Stims/Figures/19-J-10-4.bmp\",\"tapata\",\"Up\",\"40\",\"2\",\"21\",\"4\",\"P\",\"J\",\"45\"
\"\",\"\",\"approach-retreat\",\"194\",\"1297294\",\"0.0-194.0\",\"\",\"\",\"1-5\",\"5882\",\"40\",\"1\",\"Testing\",\"Stims/Figures/86-C-30-1.bmp\",\"ma:mala\",\"Down\",\"40\",\"2\",\"22\",\"4\",\"S\",\"J\",\"46\"
\"\",\"\",\"approach-retreat\",\"195\",\"1302994\",\"0.0-195.0\",\"\",\"\",\"1-5\",\"4190\",\"38\",\"1\",\"Testing\",\"Stims/Figures/71-C-30-1.bmp\",\"na:mana\",\"Up\",\"38\",\"2\",\"23\",\"4\",\"S\",\"J\",\"47\"
\"\",\"\",\"approach-retreat\",\"196\",\"1308750\",\"0.0-196.0\",\"\",\"\",\"1-5\",\"4246\",\"37\",\"0\",\"Testing\",\"Stims/Figures/118-J-0-2.bmp\",\"tapa:ta\",\"Left\",\"39\",\"2\",\"24\",\"4\",\"P\",\"J\",\"48\"
\"\",\"\",\"approach-retreat\",\"197\",\"1314520\",\"0.0-197.0\",\"\",\"\",\"1-5\",\"4256\",\"39\",\"0\",\"Testing\",\"Stims/Figures/102-J-10-4.bmp\",\"ta:kata\",\"Right\",\"37\",\"3\",\"1\",\"4\",\"P\",\"J\",\"49\"
\"\",\"\",\"approach-retreat\",\"198\",\"1320440\",\"0.0-198.0\",\"\",\"\",\"1-5\",\"4406\",\"39\",\"0\",\"Testing\",\"Stims/Figures/111-C-30-3.bmp\",\"mama:na\",\"Left\",\"37\",\"3\",\"2\",\"4\",\"S\",\"J\",\"50\"
\"\",\"\",\"approach-retreat\",\"199\",\"1327384\",\"0.0-199.0\",\"\",\"\",\"1-5\",\"5438\",\"40\",\"0\",\"Testing\",\"Stims/Figures/94-J-0-2.bmp\",\"ta:ka:ta\",\"Down\",\"38\",\"3\",\"3\",\"4\",\"P\",\"J\",\"51\"
\"\",\"\",\"approach-retreat\",\"200\",\"1333368\",\"0.0-200.0\",\"\",\"\",\"1-5\",\"4478\",\"39\",\"0\",\"Testing\",\"Stims/Figures/19-C-20-4.bmp\",\"ma:lala\",\"Left\",\"37\",\"3\",\"4\",\"4\",\"S\",\"J\",\"52\"
\"\",\"\",\"approach-retreat\",\"201\",\"1341578\",\"0.0-201.0\",\"\",\"\",\"1-5\",\"6702\",\"39\",\"0\",\"Testing\",\"Stims/Figures/84-C-20-2.bmp\",\"mamana\",\"Left\",\"37\",\"3\",\"5\",\"4\",\"S\",\"J\",\"53\"
\"\",\"\",\"approach-retreat\",\"202\",\"1347378\",\"0.0-202.0\",\"\",\"\",\"1-5\",\"4292\",\"37\",\"1\",\"Testing\",\"Stims/Figures/87-J-10-4.bmp\",\"tapaka\",\"Right\",\"37\",\"3\",\"6\",\"4\",\"P\",\"J\",\"54\"
\"\",\"\",\"approach-retreat\",\"203\",\"1353170\",\"0.0-203.0\",\"\",\"\",\"1-5\",\"4284\",\"40\",\"0\",\"Testing\",\"Stims/Figures/111-J-10-3.bmp\",\"pa:ka:ta\",\"Down\",\"38\",\"3\",\"7\",\"4\",\"P\",\"J\",\"55\"
\"\",\"\",\"approach-retreat\",\"204\",\"1358940\",\"0.0-204.0\",\"\",\"\",\"1-5\",\"4258\",\"38\",\"1\",\"Testing\",\"Stims/Figures/71-J-0-1.bmp\",\"tapa:ka\",\"Down\",\"38\",\"3\",\"8\",\"4\",\"P\",\"J\",\"56\"
\"\",\"\",\"approach-retreat\",\"205\",\"1365854\",\"0.0-205.0\",\"\",\"\",\"1-5\",\"5400\",\"37\",\"0\",\"Testing\",\"Stims/Figures/84-J-0-2.bmp\",\"pakaka\",\"Left\",\"39\",\"3\",\"9\",\"4\",\"P\",\"J\",\"57\"
\"\",\"\",\"approach-retreat\",\"206\",\"1371694\",\"0.0-206.0\",\"\",\"\",\"1-5\",\"4326\",\"38\",\"1\",\"Testing\",\"Stims/Figures/102-C-20-4.bmp\",\"malana\",\"Up\",\"38\",\"3\",\"10\",\"4\",\"S\",\"J\",\"58\"
\"\",\"\",\"approach-retreat\",\"207\",\"1377228\",\"0.0-207.0\",\"\",\"\",\"1-5\",\"4022\",\"37\",\"0\",\"Testing\",\"Stims/Figures/86-C-30-1.bmp\",\"ma:mala\",\"Right\",\"39\",\"3\",\"11\",\"4\",\"S\",\"J\",\"59\"
\"\",\"\",\"approach-retreat\",\"208\",\"1382948\",\"0.0-208.0\",\"\",\"\",\"1-5\",\"4208\",\"39\",\"1\",\"Testing\",\"Stims/Figures/27-C-30-1.bmp\",\"nalana\",\"Right\",\"39\",\"3\",\"12\",\"4\",\"S\",\"J\",\"60\"
\"\",\"\",\"approach-retreat\",\"209\",\"1388726\",\"0.0-209.0\",\"\",\"\",\"1-5\",\"4272\",\"40\",\"1\",\"Testing\",\"Stims/Figures/87-C-20-4.bmp\",\"nala:na\",\"Down\",\"40\",\"3\",\"13\",\"4\",\"S\",\"J\",\"61\"
\"\",\"\",\"approach-retreat\",\"210\",\"1394338\",\"0.0-210.0\",\"\",\"\",\"1-5\",\"4102\",\"40\",\"0\",\"Testing\",\"Stims/Figures/118-J-0-2.bmp\",\"tapa:ta\",\"Down\",\"38\",\"3\",\"14\",\"4\",\"P\",\"J\",\"62\"
\"\",\"\",\"approach-retreat\",\"211\",\"1400338\",\"0.0-211.0\",\"\",\"\",\"1-5\",\"4492\",\"40\",\"0\",\"Testing\",\"Stims/Figures/19-J-10-4.bmp\",\"tapata\",\"Down\",\"38\",\"3\",\"15\",\"4\",\"P\",\"J\",\"63\"
\"\",\"\",\"approach-retreat\",\"212\",\"1408148\",\"0.0-212.0\",\"\",\"\",\"1-5\",\"6298\",\"38\",\"1\",\"Testing\",\"Stims/Figures/71-C-30-1.bmp\",\"na:mana\",\"Up\",\"38\",\"3\",\"16\",\"4\",\"S\",\"J\",\"64\"
\"\",\"\",\"approach-retreat\",\"213\",\"1413868\",\"0.0-213.0\",\"\",\"\",\"1-5\",\"4208\",\"38\",\"0\",\"Testing\",\"Stims/Figures/144-J-10-3.bmp\",\"pa:ka:ka\",\"Up\",\"40\",\"3\",\"17\",\"4\",\"P\",\"J\",\"65\"
\"\",\"\",\"approach-retreat\",\"214\",\"1419452\",\"0.0-214.0\",\"\",\"\",\"1-5\",\"4072\",\"38\",\"0\",\"Testing\",\"Stims/Figures/27-J-0-1.bmp\",\"ta:pata\",\"Up\",\"40\",\"3\",\"18\",\"4\",\"P\",\"J\",\"66\"
\"\",\"\",\"approach-retreat\",\"215\",\"1425328\",\"0.0-215.0\",\"\",\"\",\"1-5\",\"4368\",\"37\",\"1\",\"Testing\",\"Stims/Figures/128-C-30-3.bmp\",\"na:la:la\",\"Left\",\"37\",\"3\",\"19\",\"4\",\"S\",\"J\",\"67\"
\"\",\"\",\"approach-retreat\",\"216\",\"1431036\",\"0.0-216.0\",\"\",\"\",\"1-5\",\"4204\",\"40\",\"0\",\"Testing\",\"Stims/Figures/94-C-20-2.bmp\",\"ma:ma:na\",\"Up\",\"38\",\"3\",\"20\",\"4\",\"S\",\"J\",\"68\"
\"\",\"\",\"approach-retreat\",\"217\",\"1436766\",\"0.0-217.0\",\"\",\"\",\"1-5\",\"4224\",\"37\",\"0\",\"Testing\",\"Stims/Figures/144-C-30-3.bmp\",\"nala:la\",\"Right\",\"39\",\"3\",\"21\",\"4\",\"S\",\"J\",\"69\"
\"\",\"\",\"approach-retreat\",\"218\",\"1442556\",\"0.0-218.0\",\"\",\"\",\"1-5\",\"4278\",\"39\",\"0\",\"Testing\",\"Stims/Figures/128-J-10-3.bmp\",\"pa:kaka\",\"Right\",\"37\",\"3\",\"22\",\"4\",\"P\",\"J\",\"70\"
\"\",\"\",\"approach-retreat\",\"219\",\"1448106\",\"0.0-219.0\",\"\",\"\",\"1-5\",\"4040\",\"37\",\"0\",\"Testing\",\"Stims/Figures/86-J-0-1.bmp\",\"papa:ka\",\"Left\",\"39\",\"3\",\"23\",\"4\",\"P\",\"J\",\"71\"
\"\",\"\",\"approach-retreat\",\"220\",\"1453818\",\"0.0-220.0\",\"\",\"\",\"1-5\",\"4202\",\"38\",\"1\",\"Testing\",\"Stims/Figures/118-C-20-2.bmp\",\"nalala\",\"Up\",\"38\",\"3\",\"24\",\"4\",\"S\",\"J\",\"72\"
\"\",\"\",\"approach-retreat\",\"221\",\"1460762\",\"0.0-221.0\",\"\",\"\",\"1-5\",\"5434\",\"38\",\"1\",\"Testing\",\"Stims/Figures/94-C-20-2.bmp\",\"ma:ma:na\",\"Up\",\"38\",\"4\",\"1\",\"4\",\"S\",\"J\",\"73\"
\"\",\"\",\"approach-retreat\",\"222\",\"1466364\",\"0.0-222.0\",\"\",\"\",\"1-5\",\"4090\",\"38\",\"0\",\"Testing\",\"Stims/Figures/84-C-20-2.bmp\",\"mamana\",\"Down\",\"40\",\"4\",\"2\",\"4\",\"S\",\"J\",\"74\"
\"\",\"\",\"approach-retreat\",\"223\",\"1471966\",\"0.0-223.0\",\"\",\"\",\"1-5\",\"4096\",\"39\",\"0\",\"Testing\",\"Stims/Figures/102-J-10-4.bmp\",\"ta:kata\",\"Right\",\"37\",\"4\",\"3\",\"4\",\"P\",\"J\",\"75\"
\"\",\"\",\"approach-retreat\",\"224\",\"1478044\",\"0.0-224.0\",\"\",\"\",\"1-5\",\"4564\",\"38\",\"0\",\"Testing\",\"Stims/Figures/27-C-30-1.bmp\",\"nalana\",\"Down\",\"40\",\"4\",\"4\",\"4\",\"S\",\"J\",\"76\"
\"\",\"\",\"approach-retreat\",\"225\",\"1483816\",\"0.0-225.0\",\"\",\"\",\"1-5\",\"4264\",\"40\",\"1\",\"Testing\",\"Stims/Figures/86-C-30-1.bmp\",\"ma:mala\",\"Down\",\"40\",\"4\",\"5\",\"4\",\"S\",\"J\",\"77\"
\"\",\"\",\"approach-retreat\",\"226\",\"1489694\",\"0.0-226.0\",\"\",\"\",\"1-5\",\"4372\",\"39\",\"0\",\"Testing\",\"Stims/Figures/144-C-30-3.bmp\",\"nala:la\",\"Left\",\"37\",\"4\",\"6\",\"4\",\"S\",\"J\",\"78\"
\"\",\"\",\"approach-retreat\",\"227\",\"1495342\",\"0.0-227.0\",\"\",\"\",\"1-5\",\"4140\",\"40\",\"1\",\"Testing\",\"Stims/Figures/71-J-0-1.bmp\",\"tapa:ka\",\"Up\",\"40\",\"4\",\"7\",\"4\",\"P\",\"J\",\"79\"
\"\",\"\",\"approach-retreat\",\"228\",\"1501010\",\"0.0-228.0\",\"\",\"\",\"1-5\",\"4156\",\"38\",\"0\",\"Testing\",\"Stims/Figures/128-J-10-3.bmp\",\"pa:kaka\",\"Up\",\"40\",\"4\",\"8\",\"4\",\"P\",\"J\",\"80\"
\"\",\"\",\"approach-retreat\",\"229\",\"1506742\",\"0.0-229.0\",\"\",\"\",\"1-5\",\"4224\",\"37\",\"0\",\"Testing\",\"Stims/Figures/144-J-10-3.bmp\",\"pa:ka:ka\",\"Left\",\"39\",\"4\",\"9\",\"4\",\"P\",\"J\",\"81\"
\"\",\"\",\"approach-retreat\",\"230\",\"1514064\",\"0.0-230.0\",\"\",\"\",\"1-5\",\"5812\",\"39\",\"0\",\"Testing\",\"Stims/Figures/118-J-0-2.bmp\",\"tapa:ta\",\"Right\",\"37\",\"4\",\"10\",\"4\",\"P\",\"J\",\"82\"
\"\",\"\",\"approach-retreat\",\"231\",\"1519700\",\"0.0-231.0\",\"\",\"\",\"1-5\",\"4132\",\"38\",\"1\",\"Testing\",\"Stims/Figures/71-C-30-1.bmp\",\"na:mana\",\"Up\",\"38\",\"4\",\"11\",\"4\",\"S\",\"J\",\"83\"
\"\",\"\",\"approach-retreat\",\"232\",\"1525374\",\"0.0-232.0\",\"\",\"\",\"1-5\",\"4168\",\"38\",\"0\",\"Testing\",\"Stims/Figures/94-J-0-2.bmp\",\"ta:ka:ta\",\"Up\",\"40\",\"4\",\"12\",\"4\",\"P\",\"J\",\"84\"
\"\",\"\",\"approach-retreat\",\"233\",\"1531124\",\"0.0-233.0\",\"\",\"\",\"1-5\",\"4244\",\"40\",\"0\",\"Testing\",\"Stims/Figures/86-J-0-1.bmp\",\"papa:ka\",\"Down\",\"38\",\"4\",\"13\",\"4\",\"P\",\"J\",\"85\"
\"\",\"\",\"approach-retreat\",\"234\",\"1540754\",\"0.0-234.0\",\"\",\"\",\"1-5\",\"8118\",\"38\",\"0\",\"Testing\",\"Stims/Figures/87-C-20-4.bmp\",\"nala:na\",\"Down\",\"40\",\"4\",\"14\",\"4\",\"S\",\"J\",\"86\"
\"\",\"\",\"approach-retreat\",\"235\",\"1546834\",\"0.0-235.0\",\"\",\"\",\"1-5\",\"4568\",\"39\",\"1\",\"Testing\",\"Stims/Figures/128-C-30-3.bmp\",\"na:la:la\",\"Right\",\"39\",\"4\",\"15\",\"4\",\"S\",\"J\",\"87\"
\"\",\"\",\"approach-retreat\",\"236\",\"1552574\",\"0.0-236.0\",\"\",\"\",\"1-5\",\"4232\",\"39\",\"1\",\"Testing\",\"Stims/Figures/102-C-20-4.bmp\",\"malana\",\"Right\",\"39\",\"4\",\"16\",\"4\",\"S\",\"J\",\"88\"
\"\",\"\",\"approach-retreat\",\"237\",\"1558370\",\"0.0-237.0\",\"\",\"\",\"1-5\",\"4284\",\"39\",\"1\",\"Testing\",\"Stims/Figures/19-C-20-4.bmp\",\"ma:lala\",\"Right\",\"39\",\"4\",\"17\",\"4\",\"S\",\"J\",\"89\"
\"\",\"\",\"approach-retreat\",\"238\",\"1564344\",\"0.0-238.0\",\"\",\"\",\"1-5\",\"4464\",\"38\",\"1\",\"Testing\",\"Stims/Figures/118-C-20-2.bmp\",\"nalala\",\"Up\",\"38\",\"4\",\"18\",\"4\",\"S\",\"J\",\"90\"
\"\",\"\",\"approach-retreat\",\"239\",\"1569976\",\"0.0-239.0\",\"\",\"\",\"1-5\",\"4122\",\"39\",\"0\",\"Testing\",\"Stims/Figures/84-J-0-2.bmp\",\"pakaka\",\"Right\",\"37\",\"4\",\"19\",\"4\",\"P\",\"J\",\"91\"
\"\",\"\",\"approach-retreat\",\"240\",\"1578742\",\"0.0-240.0\",\"\",\"\",\"1-5\",\"7258\",\"37\",\"0\",\"Testing\",\"Stims/Figures/111-J-10-3.bmp\",\"pa:ka:ta\",\"Left\",\"39\",\"4\",\"20\",\"4\",\"P\",\"J\",\"92\"
\"\",\"\",\"approach-retreat\",\"241\",\"1585350\",\"0.0-241.0\",\"\",\"\",\"1-5\",\"5098\",\"39\",\"1\",\"Testing\",\"Stims/Figures/27-J-0-1.bmp\",\"ta:pata\",\"Left\",\"39\",\"4\",\"21\",\"4\",\"P\",\"J\",\"93\"
\"\",\"\",\"approach-retreat\",\"242\",\"1590804\",\"0.0-242.0\",\"\",\"\",\"1-5\",\"3948\",\"37\",\"0\",\"Testing\",\"Stims/Figures/87-J-10-4.bmp\",\"tapaka\",\"Left\",\"39\",\"4\",\"22\",\"4\",\"P\",\"J\",\"94\"
\"\",\"\",\"approach-retreat\",\"243\",\"1602870\",\"0.0-243.0\",\"\",\"\",\"1-5\",\"10558\",\"40\",\"0\",\"Testing\",\"Stims/Figures/19-J-10-4.bmp\",\"tapata\",\"Down\",\"38\",\"4\",\"23\",\"4\",\"P\",\"J\",\"95\"
\"\",\"\",\"approach-retreat\",\"244\",\"1608522\",\"0.0-244.0\",\"\",\"\",\"1-5\",\"4140\",\"39\",\"0\",\"Testing\",\"Stims/Figures/111-C-30-3.bmp\",\"mama:na\",\"Left\",\"37\",\"4\",\"24\",\"4\",\"S\",\"J\",\"96\"
\"27636\",\"\",\"survey-text\",\"245\",\"1636162\",\"0.0-245.0\",\"\",\"{\"\"Q0\"\":\"\"PS140068\"\"}\",\"\",\"\",\"\",\"\",\"\",\"\",\"\",\"\",\"\",\"\",\"\",\"\",\"\",\"\",\"\"
