"rt","key_press","trial_type","trial_index","time_elapsed","internal_node_id","view_history","responses","Id","Rt","ResKeyCode","ResCorr","TrialType2","Image","Label","Location","CorrectResponse","Block","BlockTrial","Condition","LabelType","Subcondition","trialNum"
"20474","32","text","0","20479","0.0-0.0-0.0","","","","","","","","","","","","","","","","",""
"72658","","instructions","1","93141","0.0-1.0","[{""page_index"":0,""viewing_time"":72658}]","","","","","","","","","","","","","","","",""
"56369","","survey-multi-choice","2","149578","0.0-2.0","","{""Q0"":""Da"",""Q1"":""Da"",""Q2"":""Da"",""Q3"":""Da"",""Q4"":""Da"",""Q5"":""Da""}","","","","","","","","","","","","","","",""
"","","bio","3","157647","0.0-3.0","","{""age"":""19"",""gender"":""m"",""specify"":""""}","","","","","","","","","","","","","","",""
"","","approach-retreat","4","166771","0.0-4.0","","","2-5","7610","37","0","Training","Stims/Figures/57-C-30-1.bmp","nala:na","Right","39","1","1","1","S","J","1"
"","","approach-retreat","5","177917","0.0-5.0","","","2-5","9635","39","1","Training","Stims/Figures/57-J-0-1.bmp","ta:ka:ta","Left","39","1","2","1","P","J","2"
"","","approach-retreat","6","184029","0.0-6.0","","","2-5","4605","39","1","Training","Stims/Figures/128-J-10-3.bmp","ta:ka:ta","Left","39","1","3","1","P","J","3"
"","","approach-retreat","7","189852","0.0-7.0","","","2-5","4313","38","1","Training","Stims/Figures/87-J-10-4.bmp","ta:ka:ta","Down","38","1","4","1","P","J","4"
"","","approach-retreat","8","195593","0.0-8.0","","","2-5","4230","38","0","Training","Stims/Figures/87-C-20-4.bmp","nala:na","Down","40","1","5","1","S","J","5"
"","","approach-retreat","9","201075","0.0-9.0","","","2-5","3970","39","1","Training","Stims/Figures/93-J-0-1.bmp","ta:ka:ta","Left","39","1","6","1","P","J","6"
"","","approach-retreat","10","206766","0.0-10.0","","","2-5","4177","37","0","Training","Stims/Figures/139-C-20-2.bmp","nala:na","Right","39","1","7","1","S","J","7"
"","","approach-retreat","11","212258","0.0-11.0","","","2-5","3982","38","1","Training","Stims/Figures/84-C-20-2.bmp","nala:na","Up","38","1","8","1","S","J","8"
"","","approach-retreat","12","217818","0.0-12.0","","","2-5","4052","37","1","Training","Stims/Figures/102-J-10-4.bmp","ta:ka:ta","Right","37","1","9","1","P","J","9"
"","","approach-retreat","13","223296","0.0-13.0","","","2-5","3968","40","1","Training","Stims/Figures/44-J-10-3.bmp","ta:ka:ta","Up","40","1","10","1","P","J","10"
"","","approach-retreat","14","228872","0.0-14.0","","","2-5","4067","39","0","Training","Stims/Figures/44-C-30-3.bmp","nala:na","Left","37","1","11","1","S","J","11"
"","","approach-retreat","15","234515","0.0-15.0","","","2-5","4135","40","0","Training","Stims/Figures/93-C-30-1.bmp","nala:na","Up","38","1","12","1","S","J","12"
"","","approach-retreat","16","240153","0.0-16.0","","","2-5","4131","38","1","Training","Stims/Figures/84-J-0-2.bmp","ta:ka:ta","Down","38","1","13","1","P","J","13"
"","","approach-retreat","17","245808","0.0-17.0","","","2-5","4147","38","0","Training","Stims/Figures/128-C-30-3.bmp","nala:na","Down","40","1","14","1","S","J","14"
"","","approach-retreat","18","251345","0.0-18.0","","","2-5","4029","37","1","Training","Stims/Figures/139-J-0-2.bmp","ta:ka:ta","Right","37","1","15","1","P","J","15"
"","","approach-retreat","19","257235","0.0-19.0","","","2-5","4382","40","0","Training","Stims/Figures/102-C-20-4.bmp","nala:na","Up","38","1","16","1","S","J","16"
"","","approach-retreat","20","262939","0.0-20.0","","","2-5","4195","40","0","Training","Stims/Figures/139-C-20-2.bmp","nala:na","Up","38","2","1","1","S","J","17"
"","","approach-retreat","21","268508","0.0-21.0","","","2-5","4063","40","0","Training","Stims/Figures/84-C-20-2.bmp","nala:na","Up","38","2","2","1","S","J","18"
"","","approach-retreat","22","274332","0.0-22.0","","","2-5","4317","39","0","Training","Stims/Figures/44-C-30-3.bmp","nala:na","Left","37","2","3","1","S","J","19"
"","","approach-retreat","23","279938","0.0-23.0","","","2-5","4096","37","0","Training","Stims/Figures/93-C-30-1.bmp","nala:na","Right","39","2","4","1","S","J","20"
"","","approach-retreat","24","286636","0.0-24.0","","","2-5","5191","38","0","Training","Stims/Figures/44-J-10-3.bmp","ta:ka:ta","Up","40","2","5","1","P","J","21"
"","","approach-retreat","25","293399","0.0-25.0","","","2-5","5250","40","0","Training","Stims/Figures/139-J-0-2.bmp","ta:ka:ta","Down","38","2","6","1","P","J","22"
"","","approach-retreat","26","298809","0.0-26.0","","","2-5","3904","40","0","Training","Stims/Figures/93-J-0-1.bmp","ta:ka:ta","Down","38","2","7","1","P","J","23"
"","","approach-retreat","27","304319","0.0-27.0","","","2-5","4004","40","1","Training","Stims/Figures/87-C-20-4.bmp","nala:na","Down","40","2","8","1","S","J","24"
"","","approach-retreat","28","309933","0.0-28.0","","","2-5","4106","40","0","Training","Stims/Figures/102-J-10-4.bmp","ta:ka:ta","Down","38","2","9","1","P","J","25"
"","","approach-retreat","29","315511","0.0-29.0","","","2-5","4071","39","0","Training","Stims/Figures/57-J-0-1.bmp","ta:ka:ta","Right","37","2","10","1","P","J","26"
"","","approach-retreat","30","323199","0.0-30.0","","","2-5","6180","39","1","Training","Stims/Figures/128-C-30-3.bmp","nala:na","Right","39","2","11","1","S","J","27"
"","","approach-retreat","31","329344","0.0-31.0","","","2-5","4634","40","1","Training","Stims/Figures/87-J-10-4.bmp","ta:ka:ta","Up","40","2","12","1","P","J","28"
"","","approach-retreat","32","335009","0.0-32.0","","","2-5","4157","39","0","Training","Stims/Figures/57-C-30-1.bmp","nala:na","Left","37","2","13","1","S","J","29"
"","","approach-retreat","33","340799","0.0-33.0","","","2-5","4281","37","0","Training","Stims/Figures/128-J-10-3.bmp","ta:ka:ta","Left","39","2","14","1","P","J","30"
"","","approach-retreat","34","346611","0.0-34.0","","","2-5","4304","37","1","Training","Stims/Figures/102-C-20-4.bmp","nala:na","Left","37","2","15","1","S","J","31"
"","","approach-retreat","35","352254","0.0-35.0","","","2-5","4136","39","0","Training","Stims/Figures/84-J-0-2.bmp","ta:ka:ta","Right","37","2","16","1","P","J","32"
"","","approach-retreat","36","358791","0.0-36.0","","","2-5","5028","38","0","Training","Stims/Figures/44-J-10-3.bmp","ta:ka:ta","Up","40","3","1","1","P","J","33"
"","","approach-retreat","37","365186","0.0-37.0","","","2-5","4886","40","1","Training","Stims/Figures/102-J-10-4.bmp","ta:ka:ta","Up","40","3","2","1","P","J","34"
"","","approach-retreat","38","371456","0.0-38.0","","","2-5","4758","38","1","Training","Stims/Figures/84-J-0-2.bmp","ta:ka:ta","Down","38","3","3","1","P","J","35"
"","","approach-retreat","39","377869","0.0-39.0","","","2-5","4906","37","0","Training","Stims/Figures/87-J-10-4.bmp","ta:ka:ta","Left","39","3","4","1","P","J","36"
"","","approach-retreat","40","384604","0.0-40.0","","","2-5","5226","38","1","Training","Stims/Figures/102-C-20-4.bmp","nala:na","Up","38","3","5","1","S","J","37"
"","","approach-retreat","41","390319","0.0-41.0","","","2-5","4204","39","0","Training","Stims/Figures/84-C-20-2.bmp","nala:na","Left","37","3","6","1","S","J","38"
"","","approach-retreat","42","396196","0.0-42.0","","","2-5","4368","37","0","Training","Stims/Figures/139-J-0-2.bmp","ta:ka:ta","Left","39","3","7","1","P","J","39"
"","","approach-retreat","43","402088","0.0-43.0","","","2-5","4384","40","0","Training","Stims/Figures/128-J-10-3.bmp","ta:ka:ta","Down","38","3","8","1","P","J","40"
"","","approach-retreat","44","407617","0.0-44.0","","","2-5","4023","40","1","Training","Stims/Figures/44-C-30-3.bmp","nala:na","Down","40","3","9","1","S","J","41"
"","","approach-retreat","45","413269","0.0-45.0","","","2-5","4143","39","1","Training","Stims/Figures/87-C-20-4.bmp","nala:na","Right","39","3","10","1","S","J","42"
"","","approach-retreat","46","419309","0.0-46.0","","","2-5","4531","39","0","Training","Stims/Figures/93-J-0-1.bmp","ta:ka:ta","Right","37","3","11","1","P","J","43"
"","","approach-retreat","47","424925","0.0-47.0","","","2-5","4107","39","1","Training","Stims/Figures/93-C-30-1.bmp","nala:na","Right","39","3","12","1","S","J","44"
"","","approach-retreat","48","430867","0.0-48.0","","","2-5","4435","37","0","Training","Stims/Figures/57-J-0-1.bmp","ta:ka:ta","Left","39","3","13","1","P","J","45"
"","","approach-retreat","49","436532","0.0-49.0","","","2-5","4158","38","1","Training","Stims/Figures/128-C-30-3.bmp","nala:na","Up","38","3","14","1","S","J","46"
"","","approach-retreat","50","441851","0.0-50.0","","","2-5","3811","39","1","Training","Stims/Figures/139-C-20-2.bmp","nala:na","Right","39","3","15","1","S","J","47"
"","","approach-retreat","51","447848","0.0-51.0","","","2-5","4488","40","1","Training","Stims/Figures/57-C-30-1.bmp","nala:na","Down","40","3","16","1","S","J","48"
"","","approach-retreat","52","453417","0.0-52.0","","","2-5","4062","40","0","Training","Stims/Figures/57-J-0-1.bmp","ta:ka:ta","Down","38","4","1","1","P","J","49"
"","","approach-retreat","53","459153","0.0-53.0","","","2-5","4227","40","1","Training","Stims/Figures/93-J-0-1.bmp","ta:ka:ta","Up","40","4","2","1","P","J","50"
"","","approach-retreat","54","464702","0.0-54.0","","","2-5","4042","37","0","Training","Stims/Figures/84-C-20-2.bmp","nala:na","Right","39","4","3","1","S","J","51"
"","","approach-retreat","55","470896","0.0-55.0","","","2-5","4684","40","0","Training","Stims/Figures/139-C-20-2.bmp","nala:na","Up","38","4","4","1","S","J","52"
"","","approach-retreat","56","476574","0.0-56.0","","","2-5","4171","40","0","Training","Stims/Figures/102-J-10-4.bmp","ta:ka:ta","Down","38","4","5","1","P","J","53"
"","","approach-retreat","57","482184","0.0-57.0","","","2-5","4103","37","1","Training","Stims/Figures/87-C-20-4.bmp","nala:na","Left","37","4","6","1","S","J","54"
"","","approach-retreat","58","492742","0.0-58.0","","","2-5","9052","39","0","Training","Stims/Figures/84-J-0-2.bmp","ta:ka:ta","Right","37","4","7","1","P","J","55"
"","","approach-retreat","59","498826","0.0-59.0","","","2-5","4575","39","0","Training","Stims/Figures/102-C-20-4.bmp","nala:na","Left","37","4","8","1","S","J","56"
"","","approach-retreat","60","512470","0.0-60.0","","","2-5","12135","40","1","Training","Stims/Figures/128-J-10-3.bmp","ta:ka:ta","Up","40","4","9","1","P","J","57"
"","","approach-retreat","61","518220","0.0-61.0","","","2-5","4241","39","1","Training","Stims/Figures/139-J-0-2.bmp","ta:ka:ta","Left","39","4","10","1","P","J","58"
"","","approach-retreat","62","523810","0.0-62.0","","","2-5","4080","39","1","Training","Stims/Figures/44-C-30-3.bmp","nala:na","Right","39","4","11","1","S","J","59"
"","","approach-retreat","63","529291","0.0-63.0","","","2-5","3971","38","1","Training","Stims/Figures/93-C-30-1.bmp","nala:na","Up","38","4","12","1","S","J","60"
"","","approach-retreat","64","534933","0.0-64.0","","","2-5","4133","37","0","Training","Stims/Figures/87-J-10-4.bmp","ta:ka:ta","Left","39","4","13","1","P","J","61"
"","","approach-retreat","65","548081","0.0-65.0","","","2-5","11637","39","1","Training","Stims/Figures/128-C-30-3.bmp","nala:na","Right","39","4","14","1","S","J","62"
"","","approach-retreat","66","555358","0.0-66.0","","","2-5","5771","40","0","Training","Stims/Figures/44-J-10-3.bmp","ta:ka:ta","Down","38","4","15","1","P","J","63"
"","","approach-retreat","67","567897","0.0-67.0","","","2-5","11034","38","0","Training","Stims/Figures/57-C-30-1.bmp","nala:na","Down","40","4","16","1","S","J","64"
"","","approach-retreat","68","574314","0.0-68.0","","","2-5","4911","40","1","Training","Stims/Figures/102-J-10-4.bmp","ta:ka:ta","Up","40","5","1","1","P","J","65"
"","","approach-retreat","69","580680","0.0-69.0","","","2-5","4860","40","0","Training","Stims/Figures/93-J-0-1.bmp","ta:ka:ta","Down","38","5","2","1","P","J","66"
"","","approach-retreat","70","589175","0.0-70.0","","","2-5","6987","38","1","Training","Stims/Figures/139-J-0-2.bmp","ta:ka:ta","Down","38","5","3","1","P","J","67"
"","","approach-retreat","71","595191","0.0-71.0","","","2-5","4510","39","0","Training","Stims/Figures/87-J-10-4.bmp","ta:ka:ta","Right","37","5","4","1","P","J","68"
"","","approach-retreat","72","601386","0.0-72.0","","","2-5","4688","38","0","Training","Stims/Figures/57-C-30-1.bmp","nala:na","Down","40","5","5","1","S","J","69"
"","","approach-retreat","73","606934","0.0-73.0","","","2-5","4041","39","0","Training","Stims/Figures/93-C-30-1.bmp","nala:na","Left","37","5","6","1","S","J","70"
"","","approach-retreat","74","612710","0.0-74.0","","","2-5","4269","39","0","Training","Stims/Figures/84-J-0-2.bmp","ta:ka:ta","Right","37","5","7","1","P","J","71"
"","","approach-retreat","75","618573","0.0-75.0","","","2-5","4356","37","0","Training","Stims/Figures/44-C-30-3.bmp","nala:na","Right","39","5","8","1","S","J","72"
"","","approach-retreat","76","623597","0.0-76.0","","","2-5","3515","39","1","Training","Stims/Figures/128-C-30-3.bmp","nala:na","Right","39","5","9","1","S","J","73"
"","","approach-retreat","77","628636","0.0-77.0","","","2-5","3530","38","1","Training","Stims/Figures/87-C-20-4.bmp","nala:na","Up","38","5","10","1","S","J","74"
"","","approach-retreat","78","645967","0.0-78.0","","","2-5","15821","40","1","Training","Stims/Figures/44-J-10-3.bmp","ta:ka:ta","Up","40","5","11","1","P","J","75"
"","","approach-retreat","79","651562","0.0-79.0","","","2-5","4086","39","0","Training","Stims/Figures/102-C-20-4.bmp","nala:na","Left","37","5","12","1","S","J","76"
"","","approach-retreat","80","657152","0.0-80.0","","","2-5","4079","39","1","Training","Stims/Figures/57-J-0-1.bmp","ta:ka:ta","Left","39","5","13","1","P","J","77"
"","","approach-retreat","81","662891","0.0-81.0","","","2-5","4230","40","0","Training","Stims/Figures/84-C-20-2.bmp","nala:na","Up","38","5","14","1","S","J","78"
"","","approach-retreat","82","669540","0.0-82.0","","","2-5","5141","38","0","Training","Stims/Figures/139-C-20-2.bmp","nala:na","Down","40","5","15","1","S","J","79"
"","","approach-retreat","83","697460","0.0-83.0","","","2-5","26407","39","1","Training","Stims/Figures/128-J-10-3.bmp","ta:ka:ta","Left","39","5","16","1","P","J","80"
"","","approach-retreat","84","704721","0.0-84.0","","","2-5","5754","38","0","Training","Stims/Figures/44-J-10-3.bmp","ta:ka:ta","Up","40","6","1","1","P","J","81"
"","","approach-retreat","85","738836","0.0-85.0","","","2-5","32609","37","1","Training","Stims/Figures/139-J-0-2.bmp","ta:ka:ta","Right","37","6","2","1","P","J","82"
"","","approach-retreat","86","750071","0.0-86.0","","","2-5","9727","39","0","Training","Stims/Figures/102-J-10-4.bmp","ta:ka:ta","Right","37","6","3","1","P","J","83"
"","","approach-retreat","87","769247","0.0-87.0","","","2-5","17670","39","1","Training","Stims/Figures/57-J-0-1.bmp","ta:ka:ta","Left","39","6","4","1","P","J","84"
"","","approach-retreat","88","778981","0.0-88.0","","","2-5","8228","40","0","Training","Stims/Figures/87-C-20-4.bmp","nala:na","Up","38","6","5","1","S","J","85"
"","","approach-retreat","89","786629","0.0-89.0","","","2-5","6142","39","1","Training","Stims/Figures/87-J-10-4.bmp","ta:ka:ta","Left","39","6","6","1","P","J","86"
"","","approach-retreat","90","814432","0.0-90.0","","","2-5","26296","40","1","Training","Stims/Figures/128-J-10-3.bmp","ta:ka:ta","Up","40","6","7","1","P","J","87"
"","","approach-retreat","91","838904","0.0-91.0","","","2-5","22965","38","0","Training","Stims/Figures/57-C-30-1.bmp","nala:na","Down","40","6","8","1","S","J","88"
"","","approach-retreat","92","844636","0.0-92.0","","","2-5","4226","39","0","Training","Stims/Figures/44-C-30-3.bmp","nala:na","Left","37","6","9","1","S","J","89"
"","","approach-retreat","93","879486","0.0-93.0","","","2-5","33345","39","0","Training","Stims/Figures/93-J-0-1.bmp","ta:ka:ta","Right","37","6","10","1","P","J","90"
"","","approach-retreat","94","897344","0.0-94.0","","","2-5","16351","37","1","Training","Stims/Figures/93-C-30-1.bmp","nala:na","Left","37","6","11","1","S","J","91"
"","","approach-retreat","95","908420","0.0-95.0","","","2-5","9570","39","1","Training","Stims/Figures/102-C-20-4.bmp","nala:na","Right","39","6","12","1","S","J","92"
"","","approach-retreat","96","918249","0.0-96.0","","","2-5","8320","40","0","Training","Stims/Figures/84-J-0-2.bmp","ta:ka:ta","Down","38","6","13","1","P","J","93"
"","","approach-retreat","97","948340","0.0-97.0","","","2-5","28584","40","1","Training","Stims/Figures/128-C-30-3.bmp","nala:na","Down","40","6","14","1","S","J","94"
"","","approach-retreat","98","965640","0.0-98.0","","","2-5","15795","38","0","Training","Stims/Figures/84-C-20-2.bmp","nala:na","Down","40","6","15","1","S","J","95"
"","","approach-retreat","99","971602","0.0-99.0","","","2-5","4456","40","0","Training","Stims/Figures/139-C-20-2.bmp","nala:na","Up","38","6","16","1","S","J","96"
"","","approach-retreat","100","980116","0.0-100.0","","","2-5","7009","39","1","Training","Stims/Figures/84-C-20-2.bmp","nala:na","Right","39","7","1","1","S","J","97"
"","","approach-retreat","101","988414","0.0-101.0","","","2-5","6791","37","0","Training","Stims/Figures/84-J-0-2.bmp","ta:ka:ta","Left","39","7","2","1","P","J","98"
"","","approach-retreat","102","993597","0.0-102.0","","","2-5","3677","38","0","Training","Stims/Figures/57-C-30-1.bmp","nala:na","Down","40","7","3","1","S","J","99"
"","","approach-retreat","103","998796","0.0-103.0","","","2-5","3690","39","1","Training","Stims/Figures/93-C-30-1.bmp","nala:na","Right","39","7","4","1","S","J","100"
"","","approach-retreat","104","1003849","0.0-104.0","","","2-5","3548","39","0","Training","Stims/Figures/87-C-20-4.bmp","nala:na","Left","37","7","5","1","S","J","101"
"","","approach-retreat","105","1009177","0.0-105.0","","","2-5","3822","40","1","Training","Stims/Figures/44-J-10-3.bmp","ta:ka:ta","Up","40","7","6","1","P","J","102"
"","","approach-retreat","106","1014441","0.0-106.0","","","2-5","3757","37","1","Training","Stims/Figures/128-J-10-3.bmp","ta:ka:ta","Right","37","7","7","1","P","J","103"
"","","approach-retreat","107","1021704","0.0-107.0","","","2-5","5756","38","1","Training","Stims/Figures/44-C-30-3.bmp","nala:na","Up","38","7","8","1","S","J","104"
"","","approach-retreat","108","1027619","0.0-108.0","","","2-5","4408","38","1","Training","Stims/Figures/139-J-0-2.bmp","ta:ka:ta","Down","38","7","9","1","P","J","105"
"","","approach-retreat","109","1032901","0.0-109.0","","","2-5","3776","39","1","Training","Stims/Figures/57-J-0-1.bmp","ta:ka:ta","Left","39","7","10","1","P","J","106"
"","","approach-retreat","110","1038682","0.0-110.0","","","2-5","4271","38","0","Training","Stims/Figures/102-J-10-4.bmp","ta:ka:ta","Up","40","7","11","1","P","J","107"
"","","approach-retreat","111","1043838","0.0-111.0","","","2-5","3646","38","0","Training","Stims/Figures/139-C-20-2.bmp","nala:na","Down","40","7","12","1","S","J","108"
"","","approach-retreat","112","1049006","0.0-112.0","","","2-5","3662","37","0","Training","Stims/Figures/87-J-10-4.bmp","ta:ka:ta","Left","39","7","13","1","P","J","109"
"","","approach-retreat","113","1054619","0.0-113.0","","","2-5","4105","37","0","Training","Stims/Figures/128-C-30-3.bmp","nala:na","Right","39","7","14","1","S","J","110"
"","","approach-retreat","114","1059965","0.0-114.0","","","2-5","3838","40","0","Training","Stims/Figures/102-C-20-4.bmp","nala:na","Up","38","7","15","1","S","J","111"
"","","approach-retreat","115","1065329","0.0-115.0","","","2-5","3857","40","0","Training","Stims/Figures/93-J-0-1.bmp","ta:ka:ta","Down","38","7","16","1","P","J","112"
"","","approach-retreat","116","1071168","0.0-116.0","","","2-5","4332","40","0","Training","Stims/Figures/128-C-30-3.bmp","nala:na","Up","38","8","1","1","S","J","113"
"","","approach-retreat","117","1076882","0.0-117.0","","","2-5","4208","38","0","Training","Stims/Figures/84-C-20-2.bmp","nala:na","Down","40","8","2","1","S","J","114"
"","","approach-retreat","118","1082407","0.0-118.0","","","2-5","4019","37","1","Training","Stims/Figures/84-J-0-2.bmp","ta:ka:ta","Right","37","8","3","1","P","J","115"
"","","approach-retreat","119","1088075","0.0-119.0","","","2-5","4161","39","1","Training","Stims/Figures/139-J-0-2.bmp","ta:ka:ta","Left","39","8","4","1","P","J","116"
"","","approach-retreat","120","1093868","0.0-120.0","","","2-5","4286","37","0","Training","Stims/Figures/87-J-10-4.bmp","ta:ka:ta","Left","39","8","5","1","P","J","117"
"","","approach-retreat","121","1099462","0.0-121.0","","","2-5","4085","37","1","Training","Stims/Figures/44-J-10-3.bmp","ta:ka:ta","Right","37","8","6","1","P","J","118"
"","","approach-retreat","122","1104964","0.0-122.0","","","2-5","3990","37","1","Training","Stims/Figures/128-J-10-3.bmp","ta:ka:ta","Right","37","8","7","1","P","J","119"
"","","approach-retreat","123","1110984","0.0-123.0","","","2-5","4512","39","1","Training","Stims/Figures/57-C-30-1.bmp","nala:na","Right","39","8","8","1","S","J","120"
"","","approach-retreat","124","1118178","0.0-124.0","","","2-5","5685","38","0","Training","Stims/Figures/93-J-0-1.bmp","ta:ka:ta","Up","40","8","9","1","P","J","121"
"","","approach-retreat","125","1124065","0.0-125.0","","","2-5","4376","40","0","Training","Stims/Figures/139-C-20-2.bmp","nala:na","Up","38","8","10","1","S","J","122"
"","","approach-retreat","126","1129858","0.0-126.0","","","2-5","4283","40","1","Training","Stims/Figures/102-J-10-4.bmp","ta:ka:ta","Up","40","8","11","1","P","J","123"
"","","approach-retreat","127","1135636","0.0-127.0","","","2-5","4268","40","1","Training","Stims/Figures/93-C-30-1.bmp","nala:na","Down","40","8","12","1","S","J","124"
"","","approach-retreat","128","1141244","0.0-128.0","","","2-5","4098","40","1","Training","Stims/Figures/87-C-20-4.bmp","nala:na","Down","40","8","13","1","S","J","125"
"","","approach-retreat","129","1147097","0.0-129.0","","","2-5","4343","39","1","Training","Stims/Figures/57-J-0-1.bmp","ta:ka:ta","Left","39","8","14","1","P","J","126"
"","","approach-retreat","130","1153064","0.0-130.0","","","2-5","4457","37","1","Training","Stims/Figures/102-C-20-4.bmp","nala:na","Left","37","8","15","1","S","J","127"
"","","approach-retreat","131","1159325","0.0-131.0","","","2-5","4752","38","0","Training","Stims/Figures/44-C-30-3.bmp","nala:na","Down","40","8","16","1","S","J","128"
"","","approach-retreat","132","1164912","0.0-132.0","","","2-5","4080","38","1","Training","Stims/Figures/84-J-0-2.bmp","ta:ka:ta","Down","38","9","1","1","P","J","129"
"","","approach-retreat","133","1170745","0.0-133.0","","","2-5","4324","40","0","Training","Stims/Figures/139-C-20-2.bmp","nala:na","Up","38","9","2","1","S","J","130"
"","","approach-retreat","134","1176495","0.0-134.0","","","2-5","4241","40","1","Training","Stims/Figures/44-C-30-3.bmp","nala:na","Down","40","9","3","1","S","J","131"
"","","approach-retreat","135","1182026","0.0-135.0","","","2-5","4022","37","0","Training","Stims/Figures/93-C-30-1.bmp","nala:na","Right","39","9","4","1","S","J","132"
"","","approach-retreat","136","1187651","0.0-136.0","","","2-5","4116","37","0","Training","Stims/Figures/44-J-10-3.bmp","ta:ka:ta","Left","39","9","5","1","P","J","133"
"","","approach-retreat","137","1195128","0.0-137.0","","","2-5","5969","40","1","Training","Stims/Figures/93-J-0-1.bmp","ta:ka:ta","Up","40","9","6","1","P","J","134"
"","","approach-retreat","138","1201113","0.0-138.0","","","2-5","4475","39","1","Training","Stims/Figures/87-C-20-4.bmp","nala:na","Right","39","9","7","1","S","J","135"
"","","approach-retreat","139","1207671","0.0-139.0","","","2-5","5048","40","0","Training","Stims/Figures/102-C-20-4.bmp","nala:na","Up","38","9","8","1","S","J","136"
"","","approach-retreat","140","1213598","0.0-140.0","","","2-5","4419","37","1","Training","Stims/Figures/128-J-10-3.bmp","ta:ka:ta","Right","37","9","9","1","P","J","137"
"","","approach-retreat","141","1220528","0.0-141.0","","","2-5","5421","38","1","Training","Stims/Figures/102-J-10-4.bmp","ta:ka:ta","Down","38","9","10","1","P","J","138"
"","","approach-retreat","142","1226173","0.0-142.0","","","2-5","4136","39","1","Training","Stims/Figures/139-J-0-2.bmp","ta:ka:ta","Left","39","9","11","1","P","J","139"
"","","approach-retreat","143","1231877","0.0-143.0","","","2-5","4195","39","1","Training","Stims/Figures/57-J-0-1.bmp","ta:ka:ta","Left","39","9","12","1","P","J","140"
"","","approach-retreat","144","1237821","0.0-144.0","","","2-5","4435","40","0","Training","Stims/Figures/57-C-30-1.bmp","nala:na","Up","38","9","13","1","S","J","141"
"","","approach-retreat","145","1243539","0.0-145.0","","","2-5","4210","39","1","Training","Stims/Figures/84-C-20-2.bmp","nala:na","Right","39","9","14","1","S","J","142"
"","","approach-retreat","146","1250419","0.0-146.0","","","2-5","5369","37","1","Training","Stims/Figures/128-C-30-3.bmp","nala:na","Left","37","9","15","1","S","J","143"
"","","approach-retreat","147","1256491","0.0-147.0","","","2-5","4564","38","1","Training","Stims/Figures/87-J-10-4.bmp","ta:ka:ta","Down","38","9","16","1","P","J","144"
"11596","","instructions","148","1268088","0.0-148.0","[{""page_index"":0,""viewing_time"":11596}]","","","","","","","","","","","","","","","",""
"","","approach-retreat","149","1274883","0.0-149.0","","","2-5","5289","39","1","Testing","Stims/Figures/128-J-10-3.bmp","ta:ka:ta","Left","39","1","1","1","P","J","1"
"","","approach-retreat","150","1281814","0.0-150.0","","","2-5","5423","37","1","Testing","Stims/Figures/44-C-30-3.bmp","nala:na","Left","37","1","2","1","S","J","2"
"","","approach-retreat","151","1287964","0.0-151.0","","","2-5","4642","37","1","Testing","Stims/Figures/118-C-20-2.bmp","nala:na","Left","37","1","3","1","S","J","3"
"","","approach-retreat","152","1293823","0.0-152.0","","","2-5","4352","37","1","Testing","Stims/Figures/7-J-10-4.bmp","ta:ka:ta","Right","37","1","4","1","P","J","4"
"","","approach-retreat","153","1299465","0.0-153.0","","","2-5","4136","38","1","Testing","Stims/Figures/144-J-10-3.bmp","ta:ka:ta","Down","38","1","5","1","P","J","5"
"","","approach-retreat","154","1305364","0.0-154.0","","","2-5","4393","37","1","Testing","Stims/Figures/102-J-10-4.bmp","ta:ka:ta","Right","37","1","6","1","P","J","6"
"","","approach-retreat","155","1310998","0.0-155.0","","","2-5","4130","37","1","Testing","Stims/Figures/93-J-0-1.bmp","ta:ka:ta","Right","37","1","7","1","P","J","7"
"","","approach-retreat","156","1316680","0.0-156.0","","","2-5","4177","40","1","Testing","Stims/Figures/84-C-20-2.bmp","nala:na","Down","40","1","8","1","S","J","8"
"","","approach-retreat","157","1323688","0.0-157.0","","","2-5","5504","40","1","Testing","Stims/Figures/139-J-0-2.bmp","ta:ka:ta","Up","40","1","9","1","P","J","9"
"","","approach-retreat","158","1331244","0.0-158.0","","","2-5","6051","38","1","Testing","Stims/Figures/144-C-30-3.bmp","nala:na","Up","38","1","10","1","S","J","10"
"","","approach-retreat","159","1338607","0.0-159.0","","","2-5","5857","40","1","Testing","Stims/Figures/57-J-0-1.bmp","ta:ka:ta","Up","40","1","11","1","P","J","11"
"","","approach-retreat","160","1343643","0.0-160.0","","","2-5","3530","40","1","Testing","Stims/Figures/118-J-0-2.bmp","ta:ka:ta","Up","40","1","12","1","P","J","12"
"","","approach-retreat","161","1352537","0.0-161.0","","","2-5","7387","40","1","Testing","Stims/Figures/139-C-20-2.bmp","nala:na","Down","40","1","13","1","S","J","13"
"","","approach-retreat","162","1358715","0.0-162.0","","","2-5","4673","37","0","Testing","Stims/Figures/7-C-20-4.bmp","nala:na","Right","39","1","14","1","S","J","14"
"","","approach-retreat","163","1365462","0.0-163.0","","","2-5","5242","37","1","Testing","Stims/Figures/57-C-30-1.bmp","nala:na","Left","37","1","15","1","S","J","15"
"","","approach-retreat","164","1375071","0.0-164.0","","","2-5","8103","37","1","Testing","Stims/Figures/71-C-30-1.bmp","nala:na","Left","37","1","16","1","S","J","16"
"","","approach-retreat","165","1383923","0.0-165.0","","","2-5","7344","40","1","Testing","Stims/Figures/102-C-20-4.bmp","nala:na","Down","40","1","17","1","S","J","17"
"","","approach-retreat","166","1391213","0.0-166.0","","","2-5","5782","40","0","Testing","Stims/Figures/93-C-30-1.bmp","nala:na","Up","38","1","18","1","S","J","18"
"","","approach-retreat","167","1397915","0.0-167.0","","","2-5","5187","40","0","Testing","Stims/Figures/44-J-10-3.bmp","ta:ka:ta","Down","38","1","19","1","P","J","19"
"","","approach-retreat","168","1404699","0.0-168.0","","","2-5","5276","39","1","Testing","Stims/Figures/87-C-20-4.bmp","nala:na","Right","39","1","20","1","S","J","20"
"","","approach-retreat","169","1410355","0.0-169.0","","","2-5","4147","37","1","Testing","Stims/Figures/84-J-0-2.bmp","ta:ka:ta","Right","37","1","21","1","P","J","21"
"","","approach-retreat","170","1416260","0.0-170.0","","","2-5","4400","39","1","Testing","Stims/Figures/71-J-0-1.bmp","ta:ka:ta","Left","39","1","22","1","P","J","22"
"","","approach-retreat","171","1424678","0.0-171.0","","","2-5","6910","38","1","Testing","Stims/Figures/128-C-30-3.bmp","nala:na","Up","38","1","23","1","S","J","23"
"","","approach-retreat","172","1430556","0.0-172.0","","","2-5","4373","40","0","Testing","Stims/Figures/87-J-10-4.bmp","ta:ka:ta","Down","38","1","24","1","P","J","24"
"","","approach-retreat","173","1437775","0.0-173.0","","","2-5","5715","39","1","Testing","Stims/Figures/71-C-30-1.bmp","nala:na","Right","39","2","1","1","S","J","25"
"","","approach-retreat","174","1443892","0.0-174.0","","","2-5","4609","39","1","Testing","Stims/Figures/84-C-20-2.bmp","nala:na","Right","39","2","2","1","S","J","26"
"","","approach-retreat","175","1449487","0.0-175.0","","","2-5","4089","37","0","Testing","Stims/Figures/7-C-20-4.bmp","nala:na","Right","39","2","3","1","S","J","27"
"","","approach-retreat","176","1455276","0.0-176.0","","","2-5","4283","39","0","Testing","Stims/Figures/93-C-30-1.bmp","nala:na","Left","37","2","4","1","S","J","28"
"","","approach-retreat","177","1461411","0.0-177.0","","","2-5","4627","37","0","Testing","Stims/Figures/128-J-10-3.bmp","ta:ka:ta","Left","39","2","5","1","P","J","29"
"","","approach-retreat","178","1467392","0.0-178.0","","","2-5","4473","40","1","Testing","Stims/Figures/118-J-0-2.bmp","ta:ka:ta","Up","40","2","6","1","P","J","30"
"","","approach-retreat","179","1473838","0.0-179.0","","","2-5","4940","40","1","Testing","Stims/Figures/7-J-10-4.bmp","ta:ka:ta","Up","40","2","7","1","P","J","31"
"","","approach-retreat","180","1479639","0.0-180.0","","","2-5","4294","40","1","Testing","Stims/Figures/139-J-0-2.bmp","ta:ka:ta","Up","40","2","8","1","P","J","32"
"","","approach-retreat","181","1487646","0.0-181.0","","","2-5","6500","37","0","Testing","Stims/Figures/44-J-10-3.bmp","ta:ka:ta","Left","39","2","9","1","P","J","33"
"","","approach-retreat","182","1493464","0.0-182.0","","","2-5","4311","38","1","Testing","Stims/Figures/84-J-0-2.bmp","ta:ka:ta","Down","38","2","10","1","P","J","34"
"","","approach-retreat","183","1499703","0.0-183.0","","","2-5","4734","40","0","Testing","Stims/Figures/87-J-10-4.bmp","ta:ka:ta","Down","38","2","11","1","P","J","35"
"","","approach-retreat","184","1505646","0.0-184.0","","","2-5","4438","38","0","Testing","Stims/Figures/144-C-30-3.bmp","nala:na","Down","40","2","12","1","S","J","36"
"","","approach-retreat","185","1511530","0.0-185.0","","","2-5","4379","40","1","Testing","Stims/Figures/57-C-30-1.bmp","nala:na","Down","40","2","13","1","S","J","37"
"","","approach-retreat","186","1518836","0.0-186.0","","","2-5","5801","40","0","Testing","Stims/Figures/44-C-30-3.bmp","nala:na","Up","38","2","14","1","S","J","38"
"","","approach-retreat","187","1528727","0.0-187.0","","","2-5","8387","38","1","Testing","Stims/Figures/118-C-20-2.bmp","nala:na","Up","38","2","15","1","S","J","39"
"","","approach-retreat","188","1536419","0.0-188.0","","","2-5","6186","39","0","Testing","Stims/Figures/128-C-30-3.bmp","nala:na","Left","37","2","16","1","S","J","40"
"","","approach-retreat","189","1542914","0.0-189.0","","","2-5","4991","37","0","Testing","Stims/Figures/102-J-10-4.bmp","ta:ka:ta","Left","39","2","17","1","P","J","41"
"","","approach-retreat","190","1552901","0.0-190.0","","","2-5","8481","40","1","Testing","Stims/Figures/139-C-20-2.bmp","nala:na","Down","40","2","18","1","S","J","42"
"","","approach-retreat","191","1558956","0.0-191.0","","","2-5","4550","39","1","Testing","Stims/Figures/87-C-20-4.bmp","nala:na","Right","39","2","19","1","S","J","43"
"","","approach-retreat","192","1564798","0.0-192.0","","","2-5","4338","37","1","Testing","Stims/Figures/93-J-0-1.bmp","ta:ka:ta","Right","37","2","20","1","P","J","44"
"","","approach-retreat","193","1573176","0.0-193.0","","","2-5","6873","40","0","Testing","Stims/Figures/102-C-20-4.bmp","nala:na","Up","38","2","21","1","S","J","45"
"","","approach-retreat","194","1579202","0.0-194.0","","","2-5","4522","37","1","Testing","Stims/Figures/57-J-0-1.bmp","ta:ka:ta","Right","37","2","22","1","P","J","46"
"","","approach-retreat","195","1584796","0.0-195.0","","","2-5","4089","39","1","Testing","Stims/Figures/144-J-10-3.bmp","ta:ka:ta","Left","39","2","23","1","P","J","47"
"","","approach-retreat","196","1590719","0.0-196.0","","","2-5","4418","38","1","Testing","Stims/Figures/71-J-0-1.bmp","ta:ka:ta","Down","38","2","24","1","P","J","48"
"","","approach-retreat","197","1597365","0.0-197.0","","","2-5","5141","40","1","Testing","Stims/Figures/118-C-20-2.bmp","nala:na","Down","40","3","1","1","S","J","49"
"","","approach-retreat","198","1602993","0.0-198.0","","","2-5","4123","37","1","Testing","Stims/Figures/93-J-0-1.bmp","ta:ka:ta","Right","37","3","2","1","P","J","50"
"","","approach-retreat","199","1610283","0.0-199.0","","","2-5","5785","39","1","Testing","Stims/Figures/144-C-30-3.bmp","nala:na","Right","39","3","3","1","S","J","51"
"","","approach-retreat","200","1617722","0.0-200.0","","","2-5","5934","38","1","Testing","Stims/Figures/84-C-20-2.bmp","nala:na","Up","38","3","4","1","S","J","52"
"","","approach-retreat","201","1624368","0.0-201.0","","","2-5","5141","38","0","Testing","Stims/Figures/44-C-30-3.bmp","nala:na","Down","40","3","5","1","S","J","53"
"","","approach-retreat","202","1630279","0.0-202.0","","","2-5","4407","40","1","Testing","Stims/Figures/87-C-20-4.bmp","nala:na","Down","40","3","6","1","S","J","54"
"","","approach-retreat","203","1635917","0.0-203.0","","","2-5","4134","37","1","Testing","Stims/Figures/84-J-0-2.bmp","ta:ka:ta","Right","37","3","7","1","P","J","55"
"","","approach-retreat","204","1642271","0.0-204.0","","","2-5","4849","38","1","Testing","Stims/Figures/93-C-30-1.bmp","nala:na","Up","38","3","8","1","S","J","56"
"","","approach-retreat","205","1651292","0.0-205.0","","","2-5","7516","39","1","Testing","Stims/Figures/7-C-20-4.bmp","nala:na","Right","39","3","9","1","S","J","57"
"","","approach-retreat","206","1657580","0.0-206.0","","","2-5","4783","40","1","Testing","Stims/Figures/102-C-20-4.bmp","nala:na","Down","40","3","10","1","S","J","58"
"","","approach-retreat","207","1664609","0.0-207.0","","","2-5","5523","40","1","Testing","Stims/Figures/139-J-0-2.bmp","ta:ka:ta","Up","40","3","11","1","P","J","59"
"","","approach-retreat","208","1672761","0.0-208.0","","","2-5","6646","38","1","Testing","Stims/Figures/71-J-0-1.bmp","ta:ka:ta","Down","38","3","12","1","P","J","60"
"","","approach-retreat","209","1678424","0.0-209.0","","","2-5","4157","37","1","Testing","Stims/Figures/7-J-10-4.bmp","ta:ka:ta","Right","37","3","13","1","P","J","61"
"","","approach-retreat","210","1684702","0.0-210.0","","","2-5","4774","40","1","Testing","Stims/Figures/102-J-10-4.bmp","ta:ka:ta","Up","40","3","14","1","P","J","62"
"","","approach-retreat","211","1691821","0.0-211.0","","","2-5","5614","39","0","Testing","Stims/Figures/57-C-30-1.bmp","nala:na","Left","37","3","15","1","S","J","63"
"","","approach-retreat","212","1697616","0.0-212.0","","","2-5","4289","40","1","Testing","Stims/Figures/57-J-0-1.bmp","ta:ka:ta","Up","40","3","16","1","P","J","64"
"","","approach-retreat","213","1703147","0.0-213.0","","","2-5","4023","37","1","Testing","Stims/Figures/128-J-10-3.bmp","ta:ka:ta","Right","37","3","17","1","P","J","65"
"","","approach-retreat","214","1709297","0.0-214.0","","","2-5","4644","37","1","Testing","Stims/Figures/139-C-20-2.bmp","nala:na","Left","37","3","18","1","S","J","66"
"","","approach-retreat","215","1715250","0.0-215.0","","","2-5","4445","37","1","Testing","Stims/Figures/71-C-30-1.bmp","nala:na","Left","37","3","19","1","S","J","67"
"","","approach-retreat","216","1721144","0.0-216.0","","","2-5","4387","38","1","Testing","Stims/Figures/144-J-10-3.bmp","ta:ka:ta","Down","38","3","20","1","P","J","68"
"","","approach-retreat","217","1728695","0.0-217.0","","","2-5","6046","39","0","Testing","Stims/Figures/128-C-30-3.bmp","nala:na","Left","37","3","21","1","S","J","69"
"","","approach-retreat","218","1735002","0.0-218.0","","","2-5","4802","39","1","Testing","Stims/Figures/118-J-0-2.bmp","ta:ka:ta","Left","39","3","22","1","P","J","70"
"","","approach-retreat","219","1740798","0.0-219.0","","","2-5","4289","40","1","Testing","Stims/Figures/87-J-10-4.bmp","ta:ka:ta","Up","40","3","23","1","P","J","71"
"","","approach-retreat","220","1746344","0.0-220.0","","","2-5","4039","39","1","Testing","Stims/Figures/44-J-10-3.bmp","ta:ka:ta","Left","39","3","24","1","P","J","72"
"","","approach-retreat","221","1752268","0.0-221.0","","","2-5","4418","39","1","Testing","Stims/Figures/93-J-0-1.bmp","ta:ka:ta","Left","39","4","1","1","P","J","73"
"","","approach-retreat","222","1758159","0.0-222.0","","","2-5","4382","37","0","Testing","Stims/Figures/128-J-10-3.bmp","ta:ka:ta","Left","39","4","2","1","P","J","74"
"","","approach-retreat","223","1764093","0.0-223.0","","","2-5","4428","37","1","Testing","Stims/Figures/118-C-20-2.bmp","nala:na","Left","37","4","3","1","S","J","75"
"","","approach-retreat","224","1769494","0.0-224.0","","","2-5","3893","38","1","Testing","Stims/Figures/7-J-10-4.bmp","ta:ka:ta","Down","38","4","4","1","P","J","76"
"","","approach-retreat","225","1775953","0.0-225.0","","","2-5","4952","38","1","Testing","Stims/Figures/144-C-30-3.bmp","nala:na","Up","38","4","5","1","S","J","77"
"","","approach-retreat","226","1782113","0.0-226.0","","","2-5","4653","37","1","Testing","Stims/Figures/71-J-0-1.bmp","ta:ka:ta","Right","37","4","6","1","P","J","78"
"","","approach-retreat","227","1788134","0.0-227.0","","","2-5","4511","39","1","Testing","Stims/Figures/44-C-30-3.bmp","nala:na","Right","39","4","7","1","S","J","79"
"","","approach-retreat","228","1794167","0.0-228.0","","","2-5","4527","38","1","Testing","Stims/Figures/118-J-0-2.bmp","ta:ka:ta","Down","38","4","8","1","P","J","80"
"","","approach-retreat","229","1800358","0.0-229.0","","","2-5","4685","37","1","Testing","Stims/Figures/144-J-10-3.bmp","ta:ka:ta","Right","37","4","9","1","P","J","81"
"","","approach-retreat","230","1806015","0.0-230.0","","","2-5","4150","37","1","Testing","Stims/Figures/87-J-10-4.bmp","ta:ka:ta","Right","37","4","10","1","P","J","82"
"","","approach-retreat","231","1811588","0.0-231.0","","","2-5","4066","37","1","Testing","Stims/Figures/57-J-0-1.bmp","ta:ka:ta","Right","37","4","11","1","P","J","83"
"","","approach-retreat","232","1818020","0.0-232.0","","","2-5","4928","40","1","Testing","Stims/Figures/93-C-30-1.bmp","nala:na","Down","40","4","12","1","S","J","84"
"","","approach-retreat","233","1825413","0.0-233.0","","","2-5","5888","37","1","Testing","Stims/Figures/128-C-30-3.bmp","nala:na","Left","37","4","13","1","S","J","85"
"","","approach-retreat","234","1832088","0.0-234.0","","","2-5","5170","38","1","Testing","Stims/Figures/71-C-30-1.bmp","nala:na","Up","38","4","14","1","S","J","86"
"","","approach-retreat","235","1837990","0.0-235.0","","","2-5","4397","40","1","Testing","Stims/Figures/84-C-20-2.bmp","nala:na","Down","40","4","15","1","S","J","87"
"","","approach-retreat","236","1844334","0.0-236.0","","","2-5","4837","40","1","Testing","Stims/Figures/87-C-20-4.bmp","nala:na","Down","40","4","16","1","S","J","88"
"","","approach-retreat","237","1850666","0.0-237.0","","","2-5","4828","40","0","Testing","Stims/Figures/7-C-20-4.bmp","nala:na","Up","38","4","17","1","S","J","89"
"","","approach-retreat","238","1856498","0.0-238.0","","","2-5","4326","40","1","Testing","Stims/Figures/84-J-0-2.bmp","ta:ka:ta","Up","40","4","18","1","P","J","90"
"","","approach-retreat","239","1862096","0.0-239.0","","","2-5","4091","39","1","Testing","Stims/Figures/102-J-10-4.bmp","ta:ka:ta","Left","39","4","19","1","P","J","91"
"","","approach-retreat","240","1867825","0.0-240.0","","","2-5","4223","40","1","Testing","Stims/Figures/44-J-10-3.bmp","ta:ka:ta","Up","40","4","20","1","P","J","92"
"","","approach-retreat","241","1873460","0.0-241.0","","","2-5","4131","38","1","Testing","Stims/Figures/139-J-0-2.bmp","ta:ka:ta","Down","38","4","21","1","P","J","93"
"","","approach-retreat","242","1880938","0.0-242.0","","","2-5","5973","37","1","Testing","Stims/Figures/139-C-20-2.bmp","nala:na","Left","37","4","22","1","S","J","94"
"","","approach-retreat","243","1887848","0.0-243.0","","","2-5","5405","38","1","Testing","Stims/Figures/57-C-30-1.bmp","nala:na","Up","38","4","23","1","S","J","95"
"","","approach-retreat","244","1893961","0.0-244.0","","","2-5","4607","39","1","Testing","Stims/Figures/102-C-20-4.bmp","nala:na","Right","39","4","24","1","S","J","96"
"137707","","survey-text","245","2031674","0.0-245.0","","{""Q0"":""2018/0149""}","","","","","","","","","","","","","","",""
