\"rt\",\"key_press\",\"trial_type\",\"trial_index\",\"time_elapsed\",\"internal_node_id\",\"view_history\",\"responses\",\"Id\",\"Rt\",\"ResKeyCode\",\"ResCorr\",\"TrialType2\",\"Image\",\"Label\",\"Location\",\"CorrectResponse\",\"Block\",\"BlockTrial\",\"Condition\",\"LabelType\",\"Subcondition\",\"trialNum\"
\"23252\",\"32\",\"text\",\"0\",\"23255\",\"0.0-0.0-0.0\",\"\",\"\",\"\",\"\",\"\",\"\",\"\",\"\",\"\",\"\",\"\",\"\",\"\",\"\",\"\",\"\",\"\"
\"48033\",\"\",\"instructions\",\"1\",\"71291\",\"0.0-1.0\",\"[{\"\"page_index\"\":0,\"\"viewing_time\"\":48032}]\",\"\",\"\",\"\",\"\",\"\",\"\",\"\",\"\",\"\",\"\",\"\",\"\",\"\",\"\",\"\",\"\"
\"34275\",\"\",\"survey-multi-choice\",\"2\",\"105600\",\"0.0-2.0\",\"\",\"{\"\"Q0\"\":\"\"Da\"\",\"\"Q1\"\":\"\"Da\"\",\"\"Q2\"\":\"\"Da\"\",\"\"Q3\"\":\"\"Da\"\",\"\"Q4\"\":\"\"Da\"\",\"\"Q5\"\":\"\"Da\"\"}\",\"\",\"\",\"\",\"\",\"\",\"\",\"\",\"\",\"\",\"\",\"\",\"\",\"\",\"\",\"\"
\"\",\"\",\"bio\",\"3\",\"114922\",\"0.0-3.0\",\"\",\"{\"\"age\"\":\"\"21\"\",\"\"gender\"\":\"\"f\"\",\"\"specify\"\":\"\"\"\"}\",\"\",\"\",\"\",\"\",\"\",\"\",\"\",\"\",\"\",\"\",\"\",\"\",\"\",\"\",\"\"
\"\",\"\",\"approach-retreat\",\"4\",\"121862\",\"0.0-4.0\",\"\",\"\",\"3-1\",\"5436\",\"37\",\"1\",\"Training\",\"Stims/Figures/100-C-30-3.bmp\",\"mamala\",\"Left\",\"37\",\"1\",\"1\",\"7\",\"S\",\"J\",\"1\"
\"\",\"\",\"approach-retreat\",\"5\",\"128246\",\"0.0-5.0\",\"\",\"\",\"3-1\",\"4873\",\"40\",\"0\",\"Training\",\"Stims/Figures/74-J-10-4.bmp\",\"nama:la\",\"Down\",\"38\",\"1\",\"2\",\"7\",\"S\",\"J\",\"2\"
\"\",\"\",\"approach-retreat\",\"6\",\"133908\",\"0.0-6.0\",\"\",\"\",\"3-1\",\"4155\",\"38\",\"1\",\"Training\",\"Stims/Figures/139-J-0-2.bmp\",\"ta:ka:ka\",\"Down\",\"38\",\"1\",\"3\",\"7\",\"P\",\"J\",\"3\"
\"\",\"\",\"approach-retreat\",\"7\",\"139878\",\"0.0-7.0\",\"\",\"\",\"3-1\",\"4460\",\"40\",\"0\",\"Training\",\"Stims/Figures/85-C-20-2.bmp\",\"pa:ka:ta\",\"Up\",\"38\",\"1\",\"4\",\"7\",\"P\",\"J\",\"4\"
\"\",\"\",\"approach-retreat\",\"8\",\"145214\",\"0.0-8.0\",\"\",\"\",\"3-1\",\"3827\",\"38\",\"1\",\"Training\",\"Stims/Figures/57-J-0-1.bmp\",\"ta:pa:ta\",\"Down\",\"38\",\"1\",\"5\",\"7\",\"P\",\"J\",\"5\"
\"\",\"\",\"approach-retreat\",\"9\",\"151548\",\"0.0-9.0\",\"\",\"\",\"3-1\",\"4827\",\"39\",\"1\",\"Training\",\"Stims/Figures/57-C-30-1.bmp\",\"taka:ta\",\"Right\",\"39\",\"1\",\"6\",\"7\",\"P\",\"J\",\"6\"
\"\",\"\",\"approach-retreat\",\"10\",\"157439\",\"0.0-10.0\",\"\",\"\",\"3-1\",\"4380\",\"38\",\"0\",\"Training\",\"Stims/Figures/111-J-10-3.bmp\",\"malana\",\"Up\",\"40\",\"1\",\"7\",\"7\",\"S\",\"J\",\"7\"
\"\",\"\",\"approach-retreat\",\"11\",\"163391\",\"0.0-11.0\",\"\",\"\",\"3-1\",\"4447\",\"39\",\"1\",\"Training\",\"Stims/Figures/139-C-20-2.bmp\",\"paka:ka\",\"Right\",\"39\",\"1\",\"8\",\"7\",\"P\",\"J\",\"8\"
\"\",\"\",\"approach-retreat\",\"12\",\"169125\",\"0.0-12.0\",\"\",\"\",\"3-1\",\"4226\",\"37\",\"0\",\"Training\",\"Stims/Figures/100-J-10-3.bmp\",\"mamana\",\"Left\",\"39\",\"1\",\"9\",\"7\",\"S\",\"J\",\"9\"
\"\",\"\",\"approach-retreat\",\"13\",\"176352\",\"0.0-13.0\",\"\",\"\",\"3-1\",\"5717\",\"37\",\"0\",\"Training\",\"Stims/Figures/19-J-10-4.bmp\",\"malala\",\"Left\",\"39\",\"1\",\"10\",\"7\",\"S\",\"J\",\"10\"
\"\",\"\",\"approach-retreat\",\"14\",\"182830\",\"0.0-14.0\",\"\",\"\",\"3-1\",\"4970\",\"39\",\"1\",\"Training\",\"Stims/Figures/111-C-30-3.bmp\",\"ma:mana\",\"Right\",\"39\",\"1\",\"11\",\"7\",\"S\",\"J\",\"11\"
\"\",\"\",\"approach-retreat\",\"15\",\"188215\",\"0.0-15.0\",\"\",\"\",\"3-1\",\"3875\",\"39\",\"0\",\"Training\",\"Stims/Figures/71-C-30-1.bmp\",\"ta:kaka\",\"Left\",\"37\",\"1\",\"12\",\"7\",\"P\",\"J\",\"12\"
\"\",\"\",\"approach-retreat\",\"16\",\"193917\",\"0.0-16.0\",\"\",\"\",\"3-1\",\"4196\",\"40\",\"1\",\"Training\",\"Stims/Figures/71-J-0-1.bmp\",\"papata\",\"Up\",\"40\",\"1\",\"13\",\"7\",\"P\",\"J\",\"13\"
\"\",\"\",\"approach-retreat\",\"17\",\"199622\",\"0.0-17.0\",\"\",\"\",\"3-1\",\"4196\",\"38\",\"0\",\"Training\",\"Stims/Figures/85-J-0-2.bmp\",\"pa:ka:ka\",\"Up\",\"40\",\"1\",\"14\",\"7\",\"P\",\"J\",\"14\"
\"\",\"\",\"approach-retreat\",\"18\",\"206550\",\"0.0-18.0\",\"\",\"\",\"3-1\",\"5421\",\"39\",\"1\",\"Training\",\"Stims/Figures/74-C-20-4.bmp\",\"ma:la:la\",\"Right\",\"39\",\"1\",\"15\",\"7\",\"S\",\"J\",\"15\"
\"\",\"\",\"approach-retreat\",\"19\",\"212599\",\"0.0-19.0\",\"\",\"\",\"3-1\",\"4541\",\"40\",\"1\",\"Training\",\"Stims/Figures/19-C-20-4.bmp\",\"na:lala\",\"Down\",\"40\",\"1\",\"16\",\"7\",\"S\",\"J\",\"16\"
\"\",\"\",\"approach-retreat\",\"20\",\"218398\",\"0.0-20.0\",\"\",\"\",\"3-1\",\"4291\",\"40\",\"0\",\"Training\",\"Stims/Figures/74-J-10-4.bmp\",\"nama:la\",\"Down\",\"38\",\"2\",\"1\",\"7\",\"S\",\"J\",\"17\"
\"\",\"\",\"approach-retreat\",\"21\",\"224093\",\"0.0-21.0\",\"\",\"\",\"3-1\",\"4189\",\"37\",\"1\",\"Training\",\"Stims/Figures/71-J-0-1.bmp\",\"papata\",\"Right\",\"37\",\"2\",\"2\",\"7\",\"P\",\"J\",\"18\"
\"\",\"\",\"approach-retreat\",\"22\",\"229844\",\"0.0-22.0\",\"\",\"\",\"3-1\",\"4243\",\"38\",\"1\",\"Training\",\"Stims/Figures/100-J-10-3.bmp\",\"mamana\",\"Down\",\"38\",\"2\",\"3\",\"7\",\"S\",\"J\",\"19\"
\"\",\"\",\"approach-retreat\",\"23\",\"235590\",\"0.0-23.0\",\"\",\"\",\"3-1\",\"4240\",\"38\",\"0\",\"Training\",\"Stims/Figures/85-J-0-2.bmp\",\"pa:ka:ka\",\"Up\",\"40\",\"2\",\"4\",\"7\",\"P\",\"J\",\"20\"
\"\",\"\",\"approach-retreat\",\"24\",\"241399\",\"0.0-24.0\",\"\",\"\",\"3-1\",\"4300\",\"40\",\"1\",\"Training\",\"Stims/Figures/85-C-20-2.bmp\",\"pa:ka:ta\",\"Down\",\"40\",\"2\",\"5\",\"7\",\"P\",\"J\",\"21\"
\"\",\"\",\"approach-retreat\",\"25\",\"248046\",\"0.0-25.0\",\"\",\"\",\"3-1\",\"5138\",\"37\",\"1\",\"Training\",\"Stims/Figures/19-J-10-4.bmp\",\"malala\",\"Right\",\"37\",\"2\",\"6\",\"7\",\"S\",\"J\",\"22\"
\"\",\"\",\"approach-retreat\",\"26\",\"254517\",\"0.0-26.0\",\"\",\"\",\"3-1\",\"4964\",\"38\",\"0\",\"Training\",\"Stims/Figures/139-J-0-2.bmp\",\"ta:ka:ka\",\"Up\",\"40\",\"2\",\"7\",\"7\",\"P\",\"J\",\"23\"
\"\",\"\",\"approach-retreat\",\"27\",\"261413\",\"0.0-27.0\",\"\",\"\",\"3-1\",\"5389\",\"39\",\"1\",\"Training\",\"Stims/Figures/57-J-0-1.bmp\",\"ta:pa:ta\",\"Left\",\"39\",\"2\",\"8\",\"7\",\"P\",\"J\",\"24\"
\"\",\"\",\"approach-retreat\",\"28\",\"267077\",\"0.0-28.0\",\"\",\"\",\"3-1\",\"4157\",\"38\",\"1\",\"Training\",\"Stims/Figures/139-C-20-2.bmp\",\"paka:ka\",\"Up\",\"38\",\"2\",\"9\",\"7\",\"P\",\"J\",\"25\"
\"\",\"\",\"approach-retreat\",\"29\",\"272950\",\"0.0-29.0\",\"\",\"\",\"3-1\",\"4365\",\"39\",\"0\",\"Training\",\"Stims/Figures/74-C-20-4.bmp\",\"ma:la:la\",\"Left\",\"37\",\"2\",\"10\",\"7\",\"S\",\"J\",\"26\"
\"\",\"\",\"approach-retreat\",\"30\",\"279204\",\"0.0-30.0\",\"\",\"\",\"3-1\",\"4747\",\"38\",\"0\",\"Training\",\"Stims/Figures/111-C-30-3.bmp\",\"ma:mana\",\"Down\",\"40\",\"2\",\"11\",\"7\",\"S\",\"J\",\"27\"
\"\",\"\",\"approach-retreat\",\"31\",\"285278\",\"0.0-31.0\",\"\",\"\",\"3-1\",\"4566\",\"37\",\"0\",\"Training\",\"Stims/Figures/19-C-20-4.bmp\",\"na:lala\",\"Right\",\"39\",\"2\",\"12\",\"7\",\"S\",\"J\",\"28\"
\"\",\"\",\"approach-retreat\",\"32\",\"291470\",\"0.0-32.0\",\"\",\"\",\"3-1\",\"4684\",\"39\",\"0\",\"Training\",\"Stims/Figures/100-C-30-3.bmp\",\"mamala\",\"Left\",\"37\",\"2\",\"13\",\"7\",\"S\",\"J\",\"29\"
\"\",\"\",\"approach-retreat\",\"33\",\"297550\",\"0.0-33.0\",\"\",\"\",\"3-1\",\"4572\",\"38\",\"1\",\"Training\",\"Stims/Figures/57-C-30-1.bmp\",\"taka:ta\",\"Up\",\"38\",\"2\",\"14\",\"7\",\"P\",\"J\",\"30\"
\"\",\"\",\"approach-retreat\",\"34\",\"303206\",\"0.0-34.0\",\"\",\"\",\"3-1\",\"4145\",\"37\",\"1\",\"Training\",\"Stims/Figures/71-C-30-1.bmp\",\"ta:kaka\",\"Left\",\"37\",\"2\",\"15\",\"7\",\"P\",\"J\",\"31\"
\"\",\"\",\"approach-retreat\",\"35\",\"308958\",\"0.0-35.0\",\"\",\"\",\"3-1\",\"4245\",\"37\",\"1\",\"Training\",\"Stims/Figures/111-J-10-3.bmp\",\"malana\",\"Right\",\"37\",\"2\",\"16\",\"7\",\"S\",\"J\",\"32\"
\"\",\"\",\"approach-retreat\",\"36\",\"314815\",\"0.0-36.0\",\"\",\"\",\"3-1\",\"4350\",\"39\",\"0\",\"Training\",\"Stims/Figures/139-J-0-2.bmp\",\"ta:ka:ka\",\"Right\",\"37\",\"3\",\"1\",\"7\",\"P\",\"J\",\"33\"
\"\",\"\",\"approach-retreat\",\"37\",\"320752\",\"0.0-37.0\",\"\",\"\",\"3-1\",\"4428\",\"37\",\"0\",\"Training\",\"Stims/Figures/74-C-20-4.bmp\",\"ma:la:la\",\"Right\",\"39\",\"3\",\"2\",\"7\",\"S\",\"J\",\"34\"
\"\",\"\",\"approach-retreat\",\"38\",\"326542\",\"0.0-38.0\",\"\",\"\",\"3-1\",\"4282\",\"37\",\"1\",\"Training\",\"Stims/Figures/57-C-30-1.bmp\",\"taka:ta\",\"Left\",\"37\",\"3\",\"3\",\"7\",\"P\",\"J\",\"35\"
\"\",\"\",\"approach-retreat\",\"39\",\"333670\",\"0.0-39.0\",\"\",\"\",\"3-1\",\"5620\",\"37\",\"1\",\"Training\",\"Stims/Figures/100-C-30-3.bmp\",\"mamala\",\"Left\",\"37\",\"3\",\"4\",\"7\",\"S\",\"J\",\"36\"
\"\",\"\",\"approach-retreat\",\"40\",\"340565\",\"0.0-40.0\",\"\",\"\",\"3-1\",\"5388\",\"39\",\"1\",\"Training\",\"Stims/Figures/111-J-10-3.bmp\",\"malana\",\"Left\",\"39\",\"3\",\"5\",\"7\",\"S\",\"J\",\"37\"
\"\",\"\",\"approach-retreat\",\"41\",\"346231\",\"0.0-41.0\",\"\",\"\",\"3-1\",\"4157\",\"38\",\"0\",\"Training\",\"Stims/Figures/57-J-0-1.bmp\",\"ta:pa:ta\",\"Up\",\"40\",\"3\",\"6\",\"7\",\"P\",\"J\",\"38\"
\"\",\"\",\"approach-retreat\",\"42\",\"353045\",\"0.0-42.0\",\"\",\"\",\"3-1\",\"5306\",\"39\",\"0\",\"Training\",\"Stims/Figures/74-J-10-4.bmp\",\"nama:la\",\"Right\",\"37\",\"3\",\"7\",\"7\",\"S\",\"J\",\"39\"
\"\",\"\",\"approach-retreat\",\"43\",\"360056\",\"0.0-43.0\",\"\",\"\",\"3-1\",\"5505\",\"40\",\"0\",\"Training\",\"Stims/Figures/19-J-10-4.bmp\",\"malala\",\"Down\",\"38\",\"3\",\"8\",\"7\",\"S\",\"J\",\"40\"
\"\",\"\",\"approach-retreat\",\"44\",\"365758\",\"0.0-44.0\",\"\",\"\",\"3-1\",\"4194\",\"38\",\"1\",\"Training\",\"Stims/Figures/139-C-20-2.bmp\",\"paka:ka\",\"Up\",\"38\",\"3\",\"9\",\"7\",\"P\",\"J\",\"41\"
\"\",\"\",\"approach-retreat\",\"45\",\"371382\",\"0.0-45.0\",\"\",\"\",\"3-1\",\"4116\",\"40\",\"1\",\"Training\",\"Stims/Figures/71-C-30-1.bmp\",\"ta:kaka\",\"Down\",\"40\",\"3\",\"10\",\"7\",\"P\",\"J\",\"42\"
\"\",\"\",\"approach-retreat\",\"46\",\"377062\",\"0.0-46.0\",\"\",\"\",\"3-1\",\"4171\",\"38\",\"0\",\"Training\",\"Stims/Figures/85-J-0-2.bmp\",\"pa:ka:ka\",\"Up\",\"40\",\"3\",\"11\",\"7\",\"P\",\"J\",\"43\"
\"\",\"\",\"approach-retreat\",\"47\",\"383157\",\"0.0-47.0\",\"\",\"\",\"3-1\",\"4589\",\"37\",\"0\",\"Training\",\"Stims/Figures/85-C-20-2.bmp\",\"pa:ka:ta\",\"Right\",\"39\",\"3\",\"12\",\"7\",\"P\",\"J\",\"44\"
\"\",\"\",\"approach-retreat\",\"48\",\"389070\",\"0.0-48.0\",\"\",\"\",\"3-1\",\"4403\",\"37\",\"1\",\"Training\",\"Stims/Figures/111-C-30-3.bmp\",\"ma:mana\",\"Left\",\"37\",\"3\",\"13\",\"7\",\"S\",\"J\",\"45\"
\"\",\"\",\"approach-retreat\",\"49\",\"396406\",\"0.0-49.0\",\"\",\"\",\"3-1\",\"5829\",\"38\",\"1\",\"Training\",\"Stims/Figures/100-J-10-3.bmp\",\"mamana\",\"Down\",\"38\",\"3\",\"14\",\"7\",\"S\",\"J\",\"46\"
\"\",\"\",\"approach-retreat\",\"50\",\"402227\",\"0.0-50.0\",\"\",\"\",\"3-1\",\"4314\",\"40\",\"0\",\"Training\",\"Stims/Figures/71-J-0-1.bmp\",\"papata\",\"Down\",\"38\",\"3\",\"15\",\"7\",\"P\",\"J\",\"47\"
\"\",\"\",\"approach-retreat\",\"51\",\"407982\",\"0.0-51.0\",\"\",\"\",\"3-1\",\"4250\",\"40\",\"0\",\"Training\",\"Stims/Figures/19-C-20-4.bmp\",\"na:lala\",\"Up\",\"38\",\"3\",\"16\",\"7\",\"S\",\"J\",\"48\"
\"\",\"\",\"approach-retreat\",\"52\",\"413967\",\"0.0-52.0\",\"\",\"\",\"3-1\",\"4475\",\"37\",\"0\",\"Training\",\"Stims/Figures/19-J-10-4.bmp\",\"malala\",\"Left\",\"39\",\"4\",\"1\",\"7\",\"S\",\"J\",\"49\"
\"\",\"\",\"approach-retreat\",\"53\",\"419759\",\"0.0-53.0\",\"\",\"\",\"3-1\",\"4284\",\"37\",\"1\",\"Training\",\"Stims/Figures/57-J-0-1.bmp\",\"ta:pa:ta\",\"Right\",\"37\",\"4\",\"2\",\"7\",\"P\",\"J\",\"50\"
\"\",\"\",\"approach-retreat\",\"54\",\"427086\",\"0.0-54.0\",\"\",\"\",\"3-1\",\"5817\",\"37\",\"1\",\"Training\",\"Stims/Figures/71-C-30-1.bmp\",\"ta:kaka\",\"Left\",\"37\",\"4\",\"3\",\"7\",\"P\",\"J\",\"51\"
\"\",\"\",\"approach-retreat\",\"55\",\"432965\",\"0.0-55.0\",\"\",\"\",\"3-1\",\"4371\",\"40\",\"1\",\"Training\",\"Stims/Figures/74-C-20-4.bmp\",\"ma:la:la\",\"Down\",\"40\",\"4\",\"4\",\"7\",\"S\",\"J\",\"52\"
\"\",\"\",\"approach-retreat\",\"56\",\"439637\",\"0.0-56.0\",\"\",\"\",\"3-1\",\"5162\",\"40\",\"0\",\"Training\",\"Stims/Figures/74-J-10-4.bmp\",\"nama:la\",\"Down\",\"38\",\"4\",\"5\",\"7\",\"S\",\"J\",\"53\"
\"\",\"\",\"approach-retreat\",\"57\",\"445765\",\"0.0-57.0\",\"\",\"\",\"3-1\",\"4620\",\"38\",\"1\",\"Training\",\"Stims/Figures/111-C-30-3.bmp\",\"ma:mana\",\"Up\",\"38\",\"4\",\"6\",\"7\",\"S\",\"J\",\"54\"
\"\",\"\",\"approach-retreat\",\"58\",\"451894\",\"0.0-58.0\",\"\",\"\",\"3-1\",\"4621\",\"39\",\"1\",\"Training\",\"Stims/Figures/19-C-20-4.bmp\",\"na:lala\",\"Right\",\"39\",\"4\",\"7\",\"7\",\"S\",\"J\",\"55\"
\"\",\"\",\"approach-retreat\",\"59\",\"457735\",\"0.0-59.0\",\"\",\"\",\"3-1\",\"4332\",\"38\",\"1\",\"Training\",\"Stims/Figures/100-C-30-3.bmp\",\"mamala\",\"Up\",\"38\",\"4\",\"8\",\"7\",\"S\",\"J\",\"56\"
\"\",\"\",\"approach-retreat\",\"60\",\"463805\",\"0.0-60.0\",\"\",\"\",\"3-1\",\"4563\",\"40\",\"1\",\"Training\",\"Stims/Figures/100-J-10-3.bmp\",\"mamana\",\"Up\",\"40\",\"4\",\"9\",\"7\",\"S\",\"J\",\"57\"
\"\",\"\",\"approach-retreat\",\"61\",\"469670\",\"0.0-61.0\",\"\",\"\",\"3-1\",\"4358\",\"37\",\"1\",\"Training\",\"Stims/Figures/57-C-30-1.bmp\",\"taka:ta\",\"Left\",\"37\",\"4\",\"10\",\"7\",\"P\",\"J\",\"58\"
\"\",\"\",\"approach-retreat\",\"62\",\"475374\",\"0.0-62.0\",\"\",\"\",\"3-1\",\"4196\",\"37\",\"1\",\"Training\",\"Stims/Figures/71-J-0-1.bmp\",\"papata\",\"Right\",\"37\",\"4\",\"11\",\"7\",\"P\",\"J\",\"59\"
\"\",\"\",\"approach-retreat\",\"63\",\"481415\",\"0.0-63.0\",\"\",\"\",\"3-1\",\"4532\",\"38\",\"1\",\"Training\",\"Stims/Figures/139-J-0-2.bmp\",\"ta:ka:ka\",\"Down\",\"38\",\"4\",\"12\",\"7\",\"P\",\"J\",\"60\"
\"\",\"\",\"approach-retreat\",\"64\",\"487159\",\"0.0-64.0\",\"\",\"\",\"3-1\",\"4235\",\"37\",\"0\",\"Training\",\"Stims/Figures/111-J-10-3.bmp\",\"malana\",\"Left\",\"39\",\"4\",\"13\",\"7\",\"S\",\"J\",\"61\"
\"\",\"\",\"approach-retreat\",\"65\",\"492767\",\"0.0-65.0\",\"\",\"\",\"3-1\",\"4100\",\"37\",\"0\",\"Training\",\"Stims/Figures/85-C-20-2.bmp\",\"pa:ka:ta\",\"Right\",\"39\",\"4\",\"14\",\"7\",\"P\",\"J\",\"62\"
\"\",\"\",\"approach-retreat\",\"66\",\"498462\",\"0.0-66.0\",\"\",\"\",\"3-1\",\"4187\",\"40\",\"0\",\"Training\",\"Stims/Figures/139-C-20-2.bmp\",\"paka:ka\",\"Up\",\"38\",\"4\",\"15\",\"7\",\"P\",\"J\",\"63\"
\"\",\"\",\"approach-retreat\",\"67\",\"504351\",\"0.0-67.0\",\"\",\"\",\"3-1\",\"4380\",\"38\",\"1\",\"Training\",\"Stims/Figures/85-J-0-2.bmp\",\"pa:ka:ka\",\"Down\",\"38\",\"4\",\"16\",\"7\",\"P\",\"J\",\"64\"
\"\",\"\",\"approach-retreat\",\"68\",\"510013\",\"0.0-68.0\",\"\",\"\",\"3-1\",\"4155\",\"40\",\"1\",\"Training\",\"Stims/Figures/57-J-0-1.bmp\",\"ta:pa:ta\",\"Up\",\"40\",\"5\",\"1\",\"7\",\"P\",\"J\",\"65\"
\"\",\"\",\"approach-retreat\",\"69\",\"515767\",\"0.0-69.0\",\"\",\"\",\"3-1\",\"4246\",\"40\",\"1\",\"Training\",\"Stims/Figures/71-C-30-1.bmp\",\"ta:kaka\",\"Down\",\"40\",\"5\",\"2\",\"7\",\"P\",\"J\",\"66\"
\"\",\"\",\"approach-retreat\",\"70\",\"521399\",\"0.0-70.0\",\"\",\"\",\"3-1\",\"4123\",\"37\",\"1\",\"Training\",\"Stims/Figures/71-J-0-1.bmp\",\"papata\",\"Right\",\"37\",\"5\",\"3\",\"7\",\"P\",\"J\",\"67\"
\"\",\"\",\"approach-retreat\",\"71\",\"527000\",\"0.0-71.0\",\"\",\"\",\"3-1\",\"4092\",\"40\",\"1\",\"Training\",\"Stims/Figures/19-C-20-4.bmp\",\"na:lala\",\"Down\",\"40\",\"5\",\"4\",\"7\",\"S\",\"J\",\"68\"
\"\",\"\",\"approach-retreat\",\"72\",\"532854\",\"0.0-72.0\",\"\",\"\",\"3-1\",\"4344\",\"39\",\"1\",\"Training\",\"Stims/Figures/85-J-0-2.bmp\",\"pa:ka:ka\",\"Left\",\"39\",\"5\",\"5\",\"7\",\"P\",\"J\",\"69\"
\"\",\"\",\"approach-retreat\",\"73\",\"538965\",\"0.0-73.0\",\"\",\"\",\"3-1\",\"4604\",\"38\",\"1\",\"Training\",\"Stims/Figures/57-C-30-1.bmp\",\"taka:ta\",\"Up\",\"38\",\"5\",\"6\",\"7\",\"P\",\"J\",\"70\"
\"\",\"\",\"approach-retreat\",\"74\",\"545542\",\"0.0-74.0\",\"\",\"\",\"3-1\",\"5068\",\"39\",\"0\",\"Training\",\"Stims/Figures/111-J-10-3.bmp\",\"malana\",\"Right\",\"37\",\"5\",\"7\",\"7\",\"S\",\"J\",\"71\"
\"\",\"\",\"approach-retreat\",\"75\",\"551300\",\"0.0-75.0\",\"\",\"\",\"3-1\",\"4251\",\"40\",\"0\",\"Training\",\"Stims/Figures/74-J-10-4.bmp\",\"nama:la\",\"Down\",\"38\",\"5\",\"8\",\"7\",\"S\",\"J\",\"72\"
\"\",\"\",\"approach-retreat\",\"76\",\"557293\",\"0.0-76.0\",\"\",\"\",\"3-1\",\"4486\",\"38\",\"0\",\"Training\",\"Stims/Figures/100-J-10-3.bmp\",\"mamana\",\"Up\",\"40\",\"5\",\"9\",\"7\",\"S\",\"J\",\"73\"
\"\",\"\",\"approach-retreat\",\"77\",\"563062\",\"0.0-77.0\",\"\",\"\",\"3-1\",\"4260\",\"40\",\"1\",\"Training\",\"Stims/Figures/139-C-20-2.bmp\",\"paka:ka\",\"Down\",\"40\",\"5\",\"10\",\"7\",\"P\",\"J\",\"74\"
\"\",\"\",\"approach-retreat\",\"78\",\"568861\",\"0.0-78.0\",\"\",\"\",\"3-1\",\"4295\",\"37\",\"1\",\"Training\",\"Stims/Figures/85-C-20-2.bmp\",\"pa:ka:ta\",\"Left\",\"37\",\"5\",\"11\",\"7\",\"P\",\"J\",\"75\"
\"\",\"\",\"approach-retreat\",\"79\",\"574661\",\"0.0-79.0\",\"\",\"\",\"3-1\",\"4292\",\"39\",\"1\",\"Training\",\"Stims/Figures/139-J-0-2.bmp\",\"ta:ka:ka\",\"Left\",\"39\",\"5\",\"12\",\"7\",\"P\",\"J\",\"76\"
\"\",\"\",\"approach-retreat\",\"80\",\"580382\",\"0.0-80.0\",\"\",\"\",\"3-1\",\"4210\",\"37\",\"1\",\"Training\",\"Stims/Figures/19-J-10-4.bmp\",\"malala\",\"Right\",\"37\",\"5\",\"13\",\"7\",\"S\",\"J\",\"77\"
\"\",\"\",\"approach-retreat\",\"81\",\"586230\",\"0.0-81.0\",\"\",\"\",\"3-1\",\"4340\",\"38\",\"1\",\"Training\",\"Stims/Figures/100-C-30-3.bmp\",\"mamala\",\"Up\",\"38\",\"5\",\"14\",\"7\",\"S\",\"J\",\"78\"
\"\",\"\",\"approach-retreat\",\"82\",\"592390\",\"0.0-82.0\",\"\",\"\",\"3-1\",\"4651\",\"37\",\"1\",\"Training\",\"Stims/Figures/74-C-20-4.bmp\",\"ma:la:la\",\"Left\",\"37\",\"5\",\"15\",\"7\",\"S\",\"J\",\"79\"
\"\",\"\",\"approach-retreat\",\"83\",\"598309\",\"0.0-83.0\",\"\",\"\",\"3-1\",\"4416\",\"39\",\"1\",\"Training\",\"Stims/Figures/111-C-30-3.bmp\",\"ma:mana\",\"Right\",\"39\",\"5\",\"16\",\"7\",\"S\",\"J\",\"80\"
\"\",\"\",\"approach-retreat\",\"84\",\"603893\",\"0.0-84.0\",\"\",\"\",\"3-1\",\"4076\",\"39\",\"1\",\"Training\",\"Stims/Figures/57-J-0-1.bmp\",\"ta:pa:ta\",\"Left\",\"39\",\"6\",\"1\",\"7\",\"P\",\"J\",\"81\"
\"\",\"\",\"approach-retreat\",\"85\",\"609422\",\"0.0-85.0\",\"\",\"\",\"3-1\",\"4021\",\"37\",\"0\",\"Training\",\"Stims/Figures/100-J-10-3.bmp\",\"mamana\",\"Left\",\"39\",\"6\",\"2\",\"7\",\"S\",\"J\",\"82\"
\"\",\"\",\"approach-retreat\",\"86\",\"615144\",\"0.0-86.0\",\"\",\"\",\"3-1\",\"4213\",\"39\",\"0\",\"Training\",\"Stims/Figures/19-C-20-4.bmp\",\"na:lala\",\"Left\",\"37\",\"6\",\"3\",\"7\",\"S\",\"J\",\"83\"
\"\",\"\",\"approach-retreat\",\"87\",\"620846\",\"0.0-87.0\",\"\",\"\",\"3-1\",\"4192\",\"38\",\"1\",\"Training\",\"Stims/Figures/85-C-20-2.bmp\",\"pa:ka:ta\",\"Up\",\"38\",\"6\",\"4\",\"7\",\"P\",\"J\",\"84\"
\"\",\"\",\"approach-retreat\",\"88\",\"626453\",\"0.0-88.0\",\"\",\"\",\"3-1\",\"4098\",\"38\",\"1\",\"Training\",\"Stims/Figures/100-C-30-3.bmp\",\"mamala\",\"Up\",\"38\",\"6\",\"5\",\"7\",\"S\",\"J\",\"85\"
\"\",\"\",\"approach-retreat\",\"89\",\"632256\",\"0.0-89.0\",\"\",\"\",\"3-1\",\"4295\",\"39\",\"1\",\"Training\",\"Stims/Figures/139-C-20-2.bmp\",\"paka:ka\",\"Right\",\"39\",\"6\",\"6\",\"7\",\"P\",\"J\",\"86\"
\"\",\"\",\"approach-retreat\",\"90\",\"637933\",\"0.0-90.0\",\"\",\"\",\"3-1\",\"4171\",\"39\",\"1\",\"Training\",\"Stims/Figures/19-J-10-4.bmp\",\"malala\",\"Left\",\"39\",\"6\",\"7\",\"7\",\"S\",\"J\",\"87\"
\"\",\"\",\"approach-retreat\",\"91\",\"643622\",\"0.0-91.0\",\"\",\"\",\"3-1\",\"4182\",\"40\",\"1\",\"Training\",\"Stims/Figures/71-C-30-1.bmp\",\"ta:kaka\",\"Down\",\"40\",\"6\",\"8\",\"7\",\"P\",\"J\",\"88\"
\"\",\"\",\"approach-retreat\",\"92\",\"649316\",\"0.0-92.0\",\"\",\"\",\"3-1\",\"4186\",\"38\",\"1\",\"Training\",\"Stims/Figures/71-J-0-1.bmp\",\"papata\",\"Down\",\"38\",\"6\",\"9\",\"7\",\"P\",\"J\",\"89\"
\"\",\"\",\"approach-retreat\",\"93\",\"654957\",\"0.0-93.0\",\"\",\"\",\"3-1\",\"4132\",\"38\",\"1\",\"Training\",\"Stims/Figures/74-J-10-4.bmp\",\"nama:la\",\"Down\",\"38\",\"6\",\"10\",\"7\",\"S\",\"J\",\"90\"
\"\",\"\",\"approach-retreat\",\"94\",\"660670\",\"0.0-94.0\",\"\",\"\",\"3-1\",\"4204\",\"40\",\"1\",\"Training\",\"Stims/Figures/85-J-0-2.bmp\",\"pa:ka:ka\",\"Up\",\"40\",\"6\",\"11\",\"7\",\"P\",\"J\",\"91\"
\"\",\"\",\"approach-retreat\",\"95\",\"666301\",\"0.0-95.0\",\"\",\"\",\"3-1\",\"4124\",\"40\",\"1\",\"Training\",\"Stims/Figures/139-J-0-2.bmp\",\"ta:ka:ka\",\"Up\",\"40\",\"6\",\"12\",\"7\",\"P\",\"J\",\"92\"
\"\",\"\",\"approach-retreat\",\"96\",\"671974\",\"0.0-96.0\",\"\",\"\",\"3-1\",\"4164\",\"39\",\"1\",\"Training\",\"Stims/Figures/74-C-20-4.bmp\",\"ma:la:la\",\"Right\",\"39\",\"6\",\"13\",\"7\",\"S\",\"J\",\"93\"
\"\",\"\",\"approach-retreat\",\"97\",\"677589\",\"0.0-97.0\",\"\",\"\",\"3-1\",\"4108\",\"39\",\"1\",\"Training\",\"Stims/Figures/57-C-30-1.bmp\",\"taka:ta\",\"Right\",\"39\",\"6\",\"14\",\"7\",\"P\",\"J\",\"94\"
\"\",\"\",\"approach-retreat\",\"98\",\"683414\",\"0.0-98.0\",\"\",\"\",\"3-1\",\"4316\",\"37\",\"1\",\"Training\",\"Stims/Figures/111-J-10-3.bmp\",\"malana\",\"Right\",\"37\",\"6\",\"15\",\"7\",\"S\",\"J\",\"95\"
\"\",\"\",\"approach-retreat\",\"99\",\"690015\",\"0.0-99.0\",\"\",\"\",\"3-1\",\"5093\",\"40\",\"1\",\"Training\",\"Stims/Figures/111-C-30-3.bmp\",\"ma:mana\",\"Down\",\"40\",\"6\",\"16\",\"7\",\"S\",\"J\",\"96\"
\"\",\"\",\"approach-retreat\",\"100\",\"696485\",\"0.0-100.0\",\"\",\"\",\"3-1\",\"4962\",\"37\",\"1\",\"Training\",\"Stims/Figures/100-C-30-3.bmp\",\"mamala\",\"Left\",\"37\",\"7\",\"1\",\"7\",\"S\",\"J\",\"97\"
\"\",\"\",\"approach-retreat\",\"101\",\"702152\",\"0.0-101.0\",\"\",\"\",\"3-1\",\"4159\",\"37\",\"1\",\"Training\",\"Stims/Figures/57-C-30-1.bmp\",\"taka:ta\",\"Left\",\"37\",\"7\",\"2\",\"7\",\"P\",\"J\",\"98\"
\"\",\"\",\"approach-retreat\",\"102\",\"707814\",\"0.0-102.0\",\"\",\"\",\"3-1\",\"4155\",\"37\",\"1\",\"Training\",\"Stims/Figures/85-C-20-2.bmp\",\"pa:ka:ta\",\"Left\",\"37\",\"7\",\"3\",\"7\",\"P\",\"J\",\"99\"
\"\",\"\",\"approach-retreat\",\"103\",\"714142\",\"0.0-103.0\",\"\",\"\",\"3-1\",\"4819\",\"39\",\"1\",\"Training\",\"Stims/Figures/19-C-20-4.bmp\",\"na:lala\",\"Right\",\"39\",\"7\",\"4\",\"7\",\"S\",\"J\",\"100\"
\"\",\"\",\"approach-retreat\",\"104\",\"719814\",\"0.0-104.0\",\"\",\"\",\"3-1\",\"4164\",\"38\",\"1\",\"Training\",\"Stims/Figures/71-J-0-1.bmp\",\"papata\",\"Down\",\"38\",\"7\",\"5\",\"7\",\"P\",\"J\",\"101\"
\"\",\"\",\"approach-retreat\",\"105\",\"725446\",\"0.0-105.0\",\"\",\"\",\"3-1\",\"4124\",\"37\",\"1\",\"Training\",\"Stims/Figures/139-J-0-2.bmp\",\"ta:ka:ka\",\"Right\",\"37\",\"7\",\"6\",\"7\",\"P\",\"J\",\"102\"
\"\",\"\",\"approach-retreat\",\"106\",\"731213\",\"0.0-106.0\",\"\",\"\",\"3-1\",\"4260\",\"38\",\"1\",\"Training\",\"Stims/Figures/100-J-10-3.bmp\",\"mamana\",\"Down\",\"38\",\"7\",\"7\",\"7\",\"S\",\"J\",\"103\"
\"\",\"\",\"approach-retreat\",\"107\",\"736942\",\"0.0-107.0\",\"\",\"\",\"3-1\",\"4222\",\"37\",\"0\",\"Training\",\"Stims/Figures/111-C-30-3.bmp\",\"ma:mana\",\"Right\",\"39\",\"7\",\"8\",\"7\",\"S\",\"J\",\"104\"
\"\",\"\",\"approach-retreat\",\"108\",\"743070\",\"0.0-108.0\",\"\",\"\",\"3-1\",\"4619\",\"40\",\"1\",\"Training\",\"Stims/Figures/139-C-20-2.bmp\",\"paka:ka\",\"Down\",\"40\",\"7\",\"9\",\"7\",\"P\",\"J\",\"105\"
\"\",\"\",\"approach-retreat\",\"109\",\"748637\",\"0.0-109.0\",\"\",\"\",\"3-1\",\"4059\",\"39\",\"1\",\"Training\",\"Stims/Figures/74-J-10-4.bmp\",\"nama:la\",\"Left\",\"39\",\"7\",\"10\",\"7\",\"S\",\"J\",\"106\"
\"\",\"\",\"approach-retreat\",\"110\",\"754309\",\"0.0-110.0\",\"\",\"\",\"3-1\",\"4163\",\"37\",\"1\",\"Training\",\"Stims/Figures/85-J-0-2.bmp\",\"pa:ka:ka\",\"Right\",\"37\",\"7\",\"11\",\"7\",\"P\",\"J\",\"107\"
\"\",\"\",\"approach-retreat\",\"111\",\"760045\",\"0.0-111.0\",\"\",\"\",\"3-1\",\"4228\",\"40\",\"1\",\"Training\",\"Stims/Figures/71-C-30-1.bmp\",\"ta:kaka\",\"Down\",\"40\",\"7\",\"12\",\"7\",\"P\",\"J\",\"108\"
\"\",\"\",\"approach-retreat\",\"112\",\"765726\",\"0.0-112.0\",\"\",\"\",\"3-1\",\"4171\",\"40\",\"1\",\"Training\",\"Stims/Figures/111-J-10-3.bmp\",\"malana\",\"Up\",\"40\",\"7\",\"13\",\"7\",\"S\",\"J\",\"109\"
\"\",\"\",\"approach-retreat\",\"113\",\"771630\",\"0.0-113.0\",\"\",\"\",\"3-1\",\"4398\",\"40\",\"1\",\"Training\",\"Stims/Figures/19-J-10-4.bmp\",\"malala\",\"Up\",\"40\",\"7\",\"14\",\"7\",\"S\",\"J\",\"110\"
\"\",\"\",\"approach-retreat\",\"114\",\"777365\",\"0.0-114.0\",\"\",\"\",\"3-1\",\"4227\",\"40\",\"1\",\"Training\",\"Stims/Figures/57-J-0-1.bmp\",\"ta:pa:ta\",\"Up\",\"40\",\"7\",\"15\",\"7\",\"P\",\"J\",\"111\"
\"\",\"\",\"approach-retreat\",\"115\",\"783118\",\"0.0-115.0\",\"\",\"\",\"3-1\",\"4245\",\"38\",\"1\",\"Training\",\"Stims/Figures/74-C-20-4.bmp\",\"ma:la:la\",\"Up\",\"38\",\"7\",\"16\",\"7\",\"S\",\"J\",\"112\"
\"\",\"\",\"approach-retreat\",\"116\",\"788766\",\"0.0-116.0\",\"\",\"\",\"3-1\",\"4142\",\"40\",\"0\",\"Training\",\"Stims/Figures/19-C-20-4.bmp\",\"na:lala\",\"Up\",\"38\",\"8\",\"1\",\"7\",\"S\",\"J\",\"113\"
\"\",\"\",\"approach-retreat\",\"117\",\"794821\",\"0.0-117.0\",\"\",\"\",\"3-1\",\"4547\",\"39\",\"1\",\"Training\",\"Stims/Figures/111-C-30-3.bmp\",\"ma:mana\",\"Right\",\"39\",\"8\",\"2\",\"7\",\"S\",\"J\",\"114\"
\"\",\"\",\"approach-retreat\",\"118\",\"800422\",\"0.0-118.0\",\"\",\"\",\"3-1\",\"4094\",\"38\",\"1\",\"Training\",\"Stims/Figures/111-J-10-3.bmp\",\"malana\",\"Down\",\"38\",\"8\",\"3\",\"7\",\"S\",\"J\",\"115\"
\"\",\"\",\"approach-retreat\",\"119\",\"806390\",\"0.0-119.0\",\"\",\"\",\"3-1\",\"4461\",\"39\",\"1\",\"Training\",\"Stims/Figures/57-J-0-1.bmp\",\"ta:pa:ta\",\"Left\",\"39\",\"8\",\"4\",\"7\",\"P\",\"J\",\"116\"
\"\",\"\",\"approach-retreat\",\"120\",\"811996\",\"0.0-120.0\",\"\",\"\",\"3-1\",\"4097\",\"39\",\"1\",\"Training\",\"Stims/Figures/57-C-30-1.bmp\",\"taka:ta\",\"Right\",\"39\",\"8\",\"5\",\"7\",\"P\",\"J\",\"117\"
\"\",\"\",\"approach-retreat\",\"121\",\"818775\",\"0.0-121.0\",\"\",\"\",\"3-1\",\"5270\",\"40\",\"1\",\"Training\",\"Stims/Figures/100-J-10-3.bmp\",\"mamana\",\"Up\",\"40\",\"8\",\"6\",\"7\",\"S\",\"J\",\"118\"
\"\",\"\",\"approach-retreat\",\"122\",\"825997\",\"0.0-122.0\",\"\",\"\",\"3-1\",\"5713\",\"37\",\"1\",\"Training\",\"Stims/Figures/85-C-20-2.bmp\",\"pa:ka:ta\",\"Left\",\"37\",\"8\",\"7\",\"7\",\"P\",\"J\",\"119\"
\"\",\"\",\"approach-retreat\",\"123\",\"832062\",\"0.0-123.0\",\"\",\"\",\"3-1\",\"4556\",\"40\",\"1\",\"Training\",\"Stims/Figures/71-C-30-1.bmp\",\"ta:kaka\",\"Down\",\"40\",\"8\",\"8\",\"7\",\"P\",\"J\",\"120\"
\"\",\"\",\"approach-retreat\",\"124\",\"837702\",\"0.0-124.0\",\"\",\"\",\"3-1\",\"4131\",\"40\",\"1\",\"Training\",\"Stims/Figures/100-C-30-3.bmp\",\"mamala\",\"Down\",\"40\",\"8\",\"9\",\"7\",\"S\",\"J\",\"121\"
\"\",\"\",\"approach-retreat\",\"125\",\"843382\",\"0.0-125.0\",\"\",\"\",\"3-1\",\"4173\",\"37\",\"1\",\"Training\",\"Stims/Figures/139-C-20-2.bmp\",\"paka:ka\",\"Left\",\"37\",\"8\",\"10\",\"7\",\"P\",\"J\",\"122\"
\"\",\"\",\"approach-retreat\",\"126\",\"848909\",\"0.0-126.0\",\"\",\"\",\"3-1\",\"4019\",\"37\",\"1\",\"Training\",\"Stims/Figures/139-J-0-2.bmp\",\"ta:ka:ka\",\"Right\",\"37\",\"8\",\"11\",\"7\",\"P\",\"J\",\"123\"
\"\",\"\",\"approach-retreat\",\"127\",\"854869\",\"0.0-127.0\",\"\",\"\",\"3-1\",\"4452\",\"39\",\"1\",\"Training\",\"Stims/Figures/85-J-0-2.bmp\",\"pa:ka:ka\",\"Left\",\"39\",\"8\",\"12\",\"7\",\"P\",\"J\",\"124\"
\"\",\"\",\"approach-retreat\",\"128\",\"860454\",\"0.0-128.0\",\"\",\"\",\"3-1\",\"4077\",\"40\",\"1\",\"Training\",\"Stims/Figures/74-J-10-4.bmp\",\"nama:la\",\"Up\",\"40\",\"8\",\"13\",\"7\",\"S\",\"J\",\"125\"
\"\",\"\",\"approach-retreat\",\"129\",\"866399\",\"0.0-129.0\",\"\",\"\",\"3-1\",\"4437\",\"40\",\"1\",\"Training\",\"Stims/Figures/19-J-10-4.bmp\",\"malala\",\"Up\",\"40\",\"8\",\"14\",\"7\",\"S\",\"J\",\"126\"
\"\",\"\",\"approach-retreat\",\"130\",\"872790\",\"0.0-130.0\",\"\",\"\",\"3-1\",\"4884\",\"39\",\"1\",\"Training\",\"Stims/Figures/74-C-20-4.bmp\",\"ma:la:la\",\"Right\",\"39\",\"8\",\"15\",\"7\",\"S\",\"J\",\"127\"
\"\",\"\",\"approach-retreat\",\"131\",\"878502\",\"0.0-131.0\",\"\",\"\",\"3-1\",\"4202\",\"38\",\"1\",\"Training\",\"Stims/Figures/71-J-0-1.bmp\",\"papata\",\"Down\",\"38\",\"8\",\"16\",\"7\",\"P\",\"J\",\"128\"
\"\",\"\",\"approach-retreat\",\"132\",\"884078\",\"0.0-132.0\",\"\",\"\",\"3-1\",\"4067\",\"39\",\"1\",\"Training\",\"Stims/Figures/71-J-0-1.bmp\",\"papata\",\"Left\",\"39\",\"9\",\"1\",\"7\",\"P\",\"J\",\"129\"
\"\",\"\",\"approach-retreat\",\"133\",\"889702\",\"0.0-133.0\",\"\",\"\",\"3-1\",\"4116\",\"37\",\"1\",\"Training\",\"Stims/Figures/100-J-10-3.bmp\",\"mamana\",\"Right\",\"37\",\"9\",\"2\",\"7\",\"S\",\"J\",\"130\"
\"\",\"\",\"approach-retreat\",\"134\",\"895206\",\"0.0-134.0\",\"\",\"\",\"3-1\",\"3995\",\"39\",\"1\",\"Training\",\"Stims/Figures/85-J-0-2.bmp\",\"pa:ka:ka\",\"Left\",\"39\",\"9\",\"3\",\"7\",\"P\",\"J\",\"131\"
\"\",\"\",\"approach-retreat\",\"135\",\"900742\",\"0.0-135.0\",\"\",\"\",\"3-1\",\"4027\",\"37\",\"1\",\"Training\",\"Stims/Figures/19-J-10-4.bmp\",\"malala\",\"Right\",\"37\",\"9\",\"4\",\"7\",\"S\",\"J\",\"132\"
\"\",\"\",\"approach-retreat\",\"136\",\"906470\",\"0.0-136.0\",\"\",\"\",\"3-1\",\"4220\",\"38\",\"1\",\"Training\",\"Stims/Figures/57-C-30-1.bmp\",\"taka:ta\",\"Up\",\"38\",\"9\",\"5\",\"7\",\"P\",\"J\",\"133\"
\"\",\"\",\"approach-retreat\",\"137\",\"912143\",\"0.0-137.0\",\"\",\"\",\"3-1\",\"4165\",\"38\",\"1\",\"Training\",\"Stims/Figures/74-J-10-4.bmp\",\"nama:la\",\"Down\",\"38\",\"9\",\"6\",\"7\",\"S\",\"J\",\"134\"
\"\",\"\",\"approach-retreat\",\"138\",\"917886\",\"0.0-138.0\",\"\",\"\",\"3-1\",\"4235\",\"40\",\"1\",\"Training\",\"Stims/Figures/139-C-20-2.bmp\",\"paka:ka\",\"Down\",\"40\",\"9\",\"7\",\"7\",\"P\",\"J\",\"135\"
\"\",\"\",\"approach-retreat\",\"139\",\"923407\",\"0.0-139.0\",\"\",\"\",\"3-1\",\"4015\",\"39\",\"1\",\"Training\",\"Stims/Figures/111-C-30-3.bmp\",\"ma:mana\",\"Right\",\"39\",\"9\",\"8\",\"7\",\"S\",\"J\",\"136\"
\"\",\"\",\"approach-retreat\",\"140\",\"928966\",\"0.0-140.0\",\"\",\"\",\"3-1\",\"4051\",\"40\",\"1\",\"Training\",\"Stims/Figures/139-J-0-2.bmp\",\"ta:ka:ka\",\"Up\",\"40\",\"9\",\"9\",\"7\",\"P\",\"J\",\"137\"
\"\",\"\",\"approach-retreat\",\"141\",\"934558\",\"0.0-141.0\",\"\",\"\",\"3-1\",\"4085\",\"38\",\"1\",\"Training\",\"Stims/Figures/57-J-0-1.bmp\",\"ta:pa:ta\",\"Down\",\"38\",\"9\",\"10\",\"7\",\"P\",\"J\",\"138\"
\"\",\"\",\"approach-retreat\",\"142\",\"940557\",\"0.0-142.0\",\"\",\"\",\"3-1\",\"4491\",\"38\",\"1\",\"Training\",\"Stims/Figures/74-C-20-4.bmp\",\"ma:la:la\",\"Up\",\"38\",\"9\",\"11\",\"7\",\"S\",\"J\",\"139\"
\"\",\"\",\"approach-retreat\",\"143\",\"946272\",\"0.0-143.0\",\"\",\"\",\"3-1\",\"4207\",\"40\",\"0\",\"Training\",\"Stims/Figures/19-C-20-4.bmp\",\"na:lala\",\"Up\",\"38\",\"9\",\"12\",\"7\",\"S\",\"J\",\"140\"
\"\",\"\",\"approach-retreat\",\"144\",\"951894\",\"0.0-144.0\",\"\",\"\",\"3-1\",\"4114\",\"37\",\"1\",\"Training\",\"Stims/Figures/85-C-20-2.bmp\",\"pa:ka:ta\",\"Left\",\"37\",\"9\",\"13\",\"7\",\"P\",\"J\",\"141\"
\"\",\"\",\"approach-retreat\",\"145\",\"958318\",\"0.0-145.0\",\"\",\"\",\"3-1\",\"4917\",\"38\",\"1\",\"Training\",\"Stims/Figures/111-J-10-3.bmp\",\"malana\",\"Down\",\"38\",\"9\",\"14\",\"7\",\"S\",\"J\",\"142\"
\"\",\"\",\"approach-retreat\",\"146\",\"963862\",\"0.0-146.0\",\"\",\"\",\"3-1\",\"4036\",\"37\",\"1\",\"Training\",\"Stims/Figures/100-C-30-3.bmp\",\"mamala\",\"Left\",\"37\",\"9\",\"15\",\"7\",\"S\",\"J\",\"143\"
\"\",\"\",\"approach-retreat\",\"147\",\"970165\",\"0.0-147.0\",\"\",\"\",\"3-1\",\"4795\",\"39\",\"1\",\"Training\",\"Stims/Figures/71-C-30-1.bmp\",\"ta:kaka\",\"Right\",\"39\",\"9\",\"16\",\"7\",\"P\",\"J\",\"144\"
\"14045\",\"\",\"instructions\",\"148\",\"984210\",\"0.0-148.0\",\"[{\"\"page_index\"\":0,\"\"viewing_time\"\":14044}]\",\"\",\"\",\"\",\"\",\"\",\"\",\"\",\"\",\"\",\"\",\"\",\"\",\"\",\"\",\"\",\"\"
\"\",\"\",\"approach-retreat\",\"149\",\"990254\",\"0.0-149.0\",\"\",\"\",\"3-1\",\"4537\",\"40\",\"1\",\"Testing\",\"Stims/Figures/74-J-10-4.bmp\",\"nama:la\",\"Up\",\"40\",\"1\",\"1\",\"7\",\"S\",\"J\",\"1\"
\"\",\"\",\"approach-retreat\",\"150\",\"996175\",\"0.0-150.0\",\"\",\"\",\"3-1\",\"4414\",\"37\",\"1\",\"Testing\",\"Stims/Figures/128-J-10-3.bmp\",\"nala:na\",\"Right\",\"37\",\"1\",\"2\",\"7\",\"S\",\"J\",\"2\"
\"\",\"\",\"approach-retreat\",\"151\",\"1001917\",\"0.0-151.0\",\"\",\"\",\"3-1\",\"4234\",\"38\",\"1\",\"Testing\",\"Stims/Figures/57-J-0-1.bmp\",\"ta:pa:ta\",\"Down\",\"38\",\"1\",\"3\",\"7\",\"P\",\"J\",\"3\"
\"\",\"\",\"approach-retreat\",\"152\",\"1007623\",\"0.0-152.0\",\"\",\"\",\"3-1\",\"4199\",\"40\",\"1\",\"Testing\",\"Stims/Figures/71-J-0-1.bmp\",\"papata\",\"Up\",\"40\",\"1\",\"4\",\"7\",\"P\",\"J\",\"4\"
\"\",\"\",\"approach-retreat\",\"153\",\"1013213\",\"0.0-153.0\",\"\",\"\",\"3-1\",\"4083\",\"39\",\"1\",\"Testing\",\"Stims/Figures/111-C-30-3.bmp\",\"ma:mana\",\"Right\",\"39\",\"1\",\"5\",\"7\",\"S\",\"J\",\"5\"
\"\",\"\",\"approach-retreat\",\"154\",\"1019013\",\"0.0-154.0\",\"\",\"\",\"3-1\",\"4294\",\"40\",\"1\",\"Testing\",\"Stims/Figures/139-C-20-2.bmp\",\"paka:ka\",\"Down\",\"40\",\"1\",\"6\",\"7\",\"P\",\"J\",\"6\"
\"\",\"\",\"approach-retreat\",\"155\",\"1024614\",\"0.0-155.0\",\"\",\"\",\"3-1\",\"4093\",\"38\",\"1\",\"Testing\",\"Stims/Figures/85-C-20-2.bmp\",\"pa:ka:ta\",\"Up\",\"38\",\"1\",\"7\",\"7\",\"P\",\"J\",\"7\"
\"\",\"\",\"approach-retreat\",\"156\",\"1030190\",\"0.0-156.0\",\"\",\"\",\"3-1\",\"4068\",\"38\",\"1\",\"Testing\",\"Stims/Figures/100-C-30-3.bmp\",\"mamala\",\"Up\",\"38\",\"1\",\"8\",\"7\",\"S\",\"J\",\"8\"
\"\",\"\",\"approach-retreat\",\"157\",\"1035934\",\"0.0-157.0\",\"\",\"\",\"3-1\",\"4237\",\"39\",\"1\",\"Testing\",\"Stims/Figures/93-J-0-1.bmp\",\"ta:kata\",\"Left\",\"39\",\"1\",\"9\",\"7\",\"P\",\"J\",\"9\"
\"\",\"\",\"approach-retreat\",\"158\",\"1041647\",\"0.0-158.0\",\"\",\"\",\"3-1\",\"4205\",\"40\",\"1\",\"Testing\",\"Stims/Figures/111-J-10-3.bmp\",\"malana\",\"Up\",\"40\",\"1\",\"10\",\"7\",\"S\",\"J\",\"10\"
\"\",\"\",\"approach-retreat\",\"159\",\"1047190\",\"0.0-159.0\",\"\",\"\",\"3-1\",\"4037\",\"40\",\"1\",\"Testing\",\"Stims/Figures/71-C-30-1.bmp\",\"ta:kaka\",\"Down\",\"40\",\"1\",\"11\",\"7\",\"P\",\"J\",\"11\"
\"\",\"\",\"approach-retreat\",\"160\",\"1052911\",\"0.0-160.0\",\"\",\"\",\"3-1\",\"4213\",\"39\",\"1\",\"Testing\",\"Stims/Figures/93-C-30-1.bmp\",\"pa:pa:ka\",\"Right\",\"39\",\"1\",\"12\",\"7\",\"P\",\"J\",\"12\"
\"\",\"\",\"approach-retreat\",\"161\",\"1058445\",\"0.0-161.0\",\"\",\"\",\"3-1\",\"4028\",\"37\",\"1\",\"Testing\",\"Stims/Figures/94-J-0-2.bmp\",\"takata\",\"Right\",\"37\",\"1\",\"13\",\"7\",\"P\",\"J\",\"13\"
\"\",\"\",\"approach-retreat\",\"162\",\"1064191\",\"0.0-162.0\",\"\",\"\",\"3-1\",\"4238\",\"40\",\"1\",\"Testing\",\"Stims/Figures/94-C-20-2.bmp\",\"ta:pata\",\"Down\",\"40\",\"1\",\"14\",\"7\",\"P\",\"J\",\"14\"
\"\",\"\",\"approach-retreat\",\"163\",\"1069789\",\"0.0-163.0\",\"\",\"\",\"3-1\",\"4093\",\"38\",\"1\",\"Testing\",\"Stims/Figures/100-J-10-3.bmp\",\"mamana\",\"Down\",\"38\",\"1\",\"15\",\"7\",\"S\",\"J\",\"15\"
\"\",\"\",\"approach-retreat\",\"164\",\"1075414\",\"0.0-164.0\",\"\",\"\",\"3-1\",\"4117\",\"38\",\"1\",\"Testing\",\"Stims/Figures/102-C-20-4.bmp\",\"na:mala\",\"Up\",\"38\",\"1\",\"16\",\"7\",\"S\",\"J\",\"16\"
\"\",\"\",\"approach-retreat\",\"165\",\"1081046\",\"0.0-165.0\",\"\",\"\",\"3-1\",\"4123\",\"39\",\"1\",\"Testing\",\"Stims/Figures/57-C-30-1.bmp\",\"taka:ta\",\"Right\",\"39\",\"1\",\"17\",\"7\",\"P\",\"J\",\"17\"
\"\",\"\",\"approach-retreat\",\"166\",\"1086750\",\"0.0-166.0\",\"\",\"\",\"3-1\",\"4197\",\"37\",\"1\",\"Testing\",\"Stims/Figures/74-C-20-4.bmp\",\"ma:la:la\",\"Left\",\"37\",\"1\",\"18\",\"7\",\"S\",\"J\",\"18\"
\"\",\"\",\"approach-retreat\",\"167\",\"1092430\",\"0.0-167.0\",\"\",\"\",\"3-1\",\"4169\",\"39\",\"1\",\"Testing\",\"Stims/Figures/128-C-30-3.bmp\",\"nama:na\",\"Right\",\"39\",\"1\",\"19\",\"7\",\"S\",\"J\",\"19\"
\"\",\"\",\"approach-retreat\",\"168\",\"1098214\",\"0.0-168.0\",\"\",\"\",\"3-1\",\"4278\",\"39\",\"1\",\"Testing\",\"Stims/Figures/139-J-0-2.bmp\",\"ta:ka:ka\",\"Left\",\"39\",\"1\",\"20\",\"7\",\"P\",\"J\",\"20\"
\"\",\"\",\"approach-retreat\",\"169\",\"1103862\",\"0.0-169.0\",\"\",\"\",\"3-1\",\"4141\",\"38\",\"1\",\"Testing\",\"Stims/Figures/19-J-10-4.bmp\",\"malala\",\"Down\",\"38\",\"1\",\"21\",\"7\",\"S\",\"J\",\"21\"
\"\",\"\",\"approach-retreat\",\"170\",\"1109798\",\"0.0-170.0\",\"\",\"\",\"3-1\",\"4429\",\"39\",\"0\",\"Testing\",\"Stims/Figures/19-C-20-4.bmp\",\"na:lala\",\"Left\",\"37\",\"1\",\"22\",\"7\",\"S\",\"J\",\"22\"
\"\",\"\",\"approach-retreat\",\"171\",\"1115461\",\"0.0-171.0\",\"\",\"\",\"3-1\",\"4157\",\"39\",\"1\",\"Testing\",\"Stims/Figures/85-J-0-2.bmp\",\"pa:ka:ka\",\"Left\",\"39\",\"1\",\"23\",\"7\",\"P\",\"J\",\"23\"
\"\",\"\",\"approach-retreat\",\"172\",\"1121118\",\"0.0-172.0\",\"\",\"\",\"3-1\",\"4149\",\"39\",\"1\",\"Testing\",\"Stims/Figures/102-J-10-4.bmp\",\"namala\",\"Left\",\"39\",\"1\",\"24\",\"7\",\"S\",\"J\",\"24\"
\"\",\"\",\"approach-retreat\",\"173\",\"1126815\",\"0.0-173.0\",\"\",\"\",\"3-1\",\"4190\",\"37\",\"1\",\"Testing\",\"Stims/Figures/57-J-0-1.bmp\",\"ta:pa:ta\",\"Right\",\"37\",\"2\",\"1\",\"7\",\"P\",\"J\",\"25\"
\"\",\"\",\"approach-retreat\",\"174\",\"1132494\",\"0.0-174.0\",\"\",\"\",\"3-1\",\"4173\",\"38\",\"1\",\"Testing\",\"Stims/Figures/57-C-30-1.bmp\",\"taka:ta\",\"Up\",\"38\",\"2\",\"2\",\"7\",\"P\",\"J\",\"26\"
\"\",\"\",\"approach-retreat\",\"175\",\"1138237\",\"0.0-175.0\",\"\",\"\",\"3-1\",\"4236\",\"40\",\"1\",\"Testing\",\"Stims/Figures/85-C-20-2.bmp\",\"pa:ka:ta\",\"Down\",\"40\",\"2\",\"3\",\"7\",\"P\",\"J\",\"27\"
\"\",\"\",\"approach-retreat\",\"176\",\"1143830\",\"0.0-176.0\",\"\",\"\",\"3-1\",\"4087\",\"38\",\"1\",\"Testing\",\"Stims/Figures/74-J-10-4.bmp\",\"nama:la\",\"Down\",\"38\",\"2\",\"4\",\"7\",\"S\",\"J\",\"28\"
\"\",\"\",\"approach-retreat\",\"177\",\"1149375\",\"0.0-177.0\",\"\",\"\",\"3-1\",\"4036\",\"38\",\"1\",\"Testing\",\"Stims/Figures/111-J-10-3.bmp\",\"malana\",\"Down\",\"38\",\"2\",\"5\",\"7\",\"S\",\"J\",\"29\"
\"\",\"\",\"approach-retreat\",\"178\",\"1155140\",\"0.0-178.0\",\"\",\"\",\"3-1\",\"4259\",\"40\",\"1\",\"Testing\",\"Stims/Figures/93-J-0-1.bmp\",\"ta:kata\",\"Up\",\"40\",\"2\",\"6\",\"7\",\"P\",\"J\",\"30\"
\"\",\"\",\"approach-retreat\",\"179\",\"1161813\",\"0.0-179.0\",\"\",\"\",\"3-1\",\"5169\",\"39\",\"1\",\"Testing\",\"Stims/Figures/100-J-10-3.bmp\",\"mamana\",\"Left\",\"39\",\"2\",\"7\",\"7\",\"S\",\"J\",\"31\"
\"\",\"\",\"approach-retreat\",\"180\",\"1167766\",\"0.0-180.0\",\"\",\"\",\"3-1\",\"4447\",\"40\",\"1\",\"Testing\",\"Stims/Figures/74-C-20-4.bmp\",\"ma:la:la\",\"Down\",\"40\",\"2\",\"8\",\"7\",\"S\",\"J\",\"32\"
\"\",\"\",\"approach-retreat\",\"181\",\"1174285\",\"0.0-181.0\",\"\",\"\",\"3-1\",\"5013\",\"39\",\"1\",\"Testing\",\"Stims/Figures/94-C-20-2.bmp\",\"ta:pata\",\"Right\",\"39\",\"2\",\"9\",\"7\",\"P\",\"J\",\"33\"
\"\",\"\",\"approach-retreat\",\"182\",\"1180862\",\"0.0-182.0\",\"\",\"\",\"3-1\",\"5069\",\"37\",\"1\",\"Testing\",\"Stims/Figures/102-C-20-4.bmp\",\"na:mala\",\"Left\",\"37\",\"2\",\"10\",\"7\",\"S\",\"J\",\"34\"
\"\",\"\",\"approach-retreat\",\"183\",\"1187909\",\"0.0-183.0\",\"\",\"\",\"3-1\",\"5540\",\"39\",\"1\",\"Testing\",\"Stims/Figures/71-C-30-1.bmp\",\"ta:kaka\",\"Right\",\"39\",\"2\",\"11\",\"7\",\"P\",\"J\",\"35\"
\"\",\"\",\"approach-retreat\",\"184\",\"1194734\",\"0.0-184.0\",\"\",\"\",\"3-1\",\"5319\",\"37\",\"1\",\"Testing\",\"Stims/Figures/128-C-30-3.bmp\",\"nama:na\",\"Left\",\"37\",\"2\",\"12\",\"7\",\"S\",\"J\",\"36\"
\"\",\"\",\"approach-retreat\",\"185\",\"1200532\",\"0.0-185.0\",\"\",\"\",\"3-1\",\"4292\",\"40\",\"1\",\"Testing\",\"Stims/Figures/94-J-0-2.bmp\",\"takata\",\"Up\",\"40\",\"2\",\"13\",\"7\",\"P\",\"J\",\"37\"
\"\",\"\",\"approach-retreat\",\"186\",\"1206687\",\"0.0-186.0\",\"\",\"\",\"3-1\",\"4648\",\"40\",\"1\",\"Testing\",\"Stims/Figures/139-J-0-2.bmp\",\"ta:ka:ka\",\"Up\",\"40\",\"2\",\"14\",\"7\",\"P\",\"J\",\"38\"
\"\",\"\",\"approach-retreat\",\"187\",\"1213108\",\"0.0-187.0\",\"\",\"\",\"3-1\",\"4914\",\"39\",\"1\",\"Testing\",\"Stims/Figures/19-J-10-4.bmp\",\"malala\",\"Left\",\"39\",\"2\",\"15\",\"7\",\"S\",\"J\",\"39\"
\"\",\"\",\"approach-retreat\",\"188\",\"1218941\",\"0.0-188.0\",\"\",\"\",\"3-1\",\"4327\",\"40\",\"1\",\"Testing\",\"Stims/Figures/111-C-30-3.bmp\",\"ma:mana\",\"Down\",\"40\",\"2\",\"16\",\"7\",\"S\",\"J\",\"40\"
\"\",\"\",\"approach-retreat\",\"189\",\"1226109\",\"0.0-189.0\",\"\",\"\",\"3-1\",\"5661\",\"39\",\"1\",\"Testing\",\"Stims/Figures/102-J-10-4.bmp\",\"namala\",\"Left\",\"39\",\"2\",\"17\",\"7\",\"S\",\"J\",\"41\"
\"\",\"\",\"approach-retreat\",\"190\",\"1231934\",\"0.0-190.0\",\"\",\"\",\"3-1\",\"4317\",\"37\",\"1\",\"Testing\",\"Stims/Figures/71-J-0-1.bmp\",\"papata\",\"Right\",\"37\",\"2\",\"18\",\"7\",\"P\",\"J\",\"42\"
\"\",\"\",\"approach-retreat\",\"191\",\"1237903\",\"0.0-191.0\",\"\",\"\",\"3-1\",\"4459\",\"39\",\"1\",\"Testing\",\"Stims/Figures/139-C-20-2.bmp\",\"paka:ka\",\"Right\",\"39\",\"2\",\"19\",\"7\",\"P\",\"J\",\"43\"
\"\",\"\",\"approach-retreat\",\"192\",\"1244069\",\"0.0-192.0\",\"\",\"\",\"3-1\",\"4659\",\"37\",\"1\",\"Testing\",\"Stims/Figures/85-J-0-2.bmp\",\"pa:ka:ka\",\"Right\",\"37\",\"2\",\"20\",\"7\",\"P\",\"J\",\"44\"
\"\",\"\",\"approach-retreat\",\"193\",\"1251254\",\"0.0-193.0\",\"\",\"\",\"3-1\",\"5678\",\"38\",\"1\",\"Testing\",\"Stims/Figures/128-J-10-3.bmp\",\"nala:na\",\"Down\",\"38\",\"2\",\"21\",\"7\",\"S\",\"J\",\"45\"
\"\",\"\",\"approach-retreat\",\"194\",\"1256830\",\"0.0-194.0\",\"\",\"\",\"3-1\",\"4070\",\"37\",\"1\",\"Testing\",\"Stims/Figures/100-C-30-3.bmp\",\"mamala\",\"Left\",\"37\",\"2\",\"22\",\"7\",\"S\",\"J\",\"46\"
\"\",\"\",\"approach-retreat\",\"195\",\"1262813\",\"0.0-195.0\",\"\",\"\",\"3-1\",\"4476\",\"38\",\"1\",\"Testing\",\"Stims/Figures/93-C-30-1.bmp\",\"pa:pa:ka\",\"Up\",\"38\",\"2\",\"23\",\"7\",\"P\",\"J\",\"47\"
\"\",\"\",\"approach-retreat\",\"196\",\"1269230\",\"0.0-196.0\",\"\",\"\",\"3-1\",\"4909\",\"40\",\"0\",\"Testing\",\"Stims/Figures/19-C-20-4.bmp\",\"na:lala\",\"Up\",\"38\",\"2\",\"24\",\"7\",\"S\",\"J\",\"48\"
\"\",\"\",\"approach-retreat\",\"197\",\"1274926\",\"0.0-197.0\",\"\",\"\",\"3-1\",\"4187\",\"37\",\"1\",\"Testing\",\"Stims/Figures/94-J-0-2.bmp\",\"takata\",\"Right\",\"37\",\"3\",\"1\",\"7\",\"P\",\"J\",\"49\"
\"\",\"\",\"approach-retreat\",\"198\",\"1280710\",\"0.0-198.0\",\"\",\"\",\"3-1\",\"4278\",\"39\",\"1\",\"Testing\",\"Stims/Figures/85-C-20-2.bmp\",\"pa:ka:ta\",\"Right\",\"39\",\"3\",\"2\",\"7\",\"P\",\"J\",\"50\"
\"\",\"\",\"approach-retreat\",\"199\",\"1286318\",\"0.0-199.0\",\"\",\"\",\"3-1\",\"4101\",\"38\",\"1\",\"Testing\",\"Stims/Figures/94-C-20-2.bmp\",\"ta:pata\",\"Up\",\"38\",\"3\",\"3\",\"7\",\"P\",\"J\",\"51\"
\"\",\"\",\"approach-retreat\",\"200\",\"1291902\",\"0.0-200.0\",\"\",\"\",\"3-1\",\"4076\",\"38\",\"1\",\"Testing\",\"Stims/Figures/57-J-0-1.bmp\",\"ta:pa:ta\",\"Down\",\"38\",\"3\",\"4\",\"7\",\"P\",\"J\",\"52\"
\"\",\"\",\"approach-retreat\",\"201\",\"1297454\",\"0.0-201.0\",\"\",\"\",\"3-1\",\"4044\",\"37\",\"1\",\"Testing\",\"Stims/Figures/93-C-30-1.bmp\",\"pa:pa:ka\",\"Left\",\"37\",\"3\",\"5\",\"7\",\"P\",\"J\",\"53\"
\"\",\"\",\"approach-retreat\",\"202\",\"1304430\",\"0.0-202.0\",\"\",\"\",\"3-1\",\"5469\",\"37\",\"1\",\"Testing\",\"Stims/Figures/102-J-10-4.bmp\",\"namala\",\"Right\",\"37\",\"3\",\"6\",\"7\",\"S\",\"J\",\"54\"
\"\",\"\",\"approach-retreat\",\"203\",\"1310390\",\"0.0-203.0\",\"\",\"\",\"3-1\",\"4453\",\"39\",\"1\",\"Testing\",\"Stims/Figures/57-C-30-1.bmp\",\"taka:ta\",\"Right\",\"39\",\"3\",\"7\",\"7\",\"P\",\"J\",\"55\"
\"\",\"\",\"approach-retreat\",\"204\",\"1317534\",\"0.0-204.0\",\"\",\"\",\"3-1\",\"5636\",\"40\",\"1\",\"Testing\",\"Stims/Figures/111-J-10-3.bmp\",\"malana\",\"Up\",\"40\",\"3\",\"8\",\"7\",\"S\",\"J\",\"56\"
\"\",\"\",\"approach-retreat\",\"205\",\"1323254\",\"0.0-205.0\",\"\",\"\",\"3-1\",\"4213\",\"37\",\"1\",\"Testing\",\"Stims/Figures/100-J-10-3.bmp\",\"mamana\",\"Right\",\"37\",\"3\",\"9\",\"7\",\"S\",\"J\",\"57\"
\"\",\"\",\"approach-retreat\",\"206\",\"1328997\",\"0.0-206.0\",\"\",\"\",\"3-1\",\"4237\",\"38\",\"1\",\"Testing\",\"Stims/Figures/74-J-10-4.bmp\",\"nama:la\",\"Down\",\"38\",\"3\",\"10\",\"7\",\"S\",\"J\",\"58\"
\"\",\"\",\"approach-retreat\",\"207\",\"1335364\",\"0.0-207.0\",\"\",\"\",\"3-1\",\"4862\",\"37\",\"1\",\"Testing\",\"Stims/Figures/139-C-20-2.bmp\",\"paka:ka\",\"Left\",\"37\",\"3\",\"11\",\"7\",\"P\",\"J\",\"59\"
\"\",\"\",\"approach-retreat\",\"208\",\"1340942\",\"0.0-208.0\",\"\",\"\",\"3-1\",\"4069\",\"38\",\"1\",\"Testing\",\"Stims/Figures/71-C-30-1.bmp\",\"ta:kaka\",\"Up\",\"38\",\"3\",\"12\",\"7\",\"P\",\"J\",\"60\"
\"\",\"\",\"approach-retreat\",\"209\",\"1346558\",\"0.0-209.0\",\"\",\"\",\"3-1\",\"4107\",\"37\",\"1\",\"Testing\",\"Stims/Figures/111-C-30-3.bmp\",\"ma:mana\",\"Left\",\"37\",\"3\",\"13\",\"7\",\"S\",\"J\",\"61\"
\"\",\"\",\"approach-retreat\",\"210\",\"1353791\",\"0.0-210.0\",\"\",\"\",\"3-1\",\"5726\",\"39\",\"1\",\"Testing\",\"Stims/Figures/74-C-20-4.bmp\",\"ma:la:la\",\"Right\",\"39\",\"3\",\"14\",\"7\",\"S\",\"J\",\"62\"
\"\",\"\",\"approach-retreat\",\"211\",\"1359318\",\"0.0-211.0\",\"\",\"\",\"3-1\",\"4020\",\"38\",\"1\",\"Testing\",\"Stims/Figures/19-J-10-4.bmp\",\"malala\",\"Down\",\"38\",\"3\",\"15\",\"7\",\"S\",\"J\",\"63\"
\"\",\"\",\"approach-retreat\",\"212\",\"1365671\",\"0.0-212.0\",\"\",\"\",\"3-1\",\"4847\",\"39\",\"0\",\"Testing\",\"Stims/Figures/19-C-20-4.bmp\",\"na:lala\",\"Left\",\"37\",\"3\",\"16\",\"7\",\"S\",\"J\",\"64\"
\"\",\"\",\"approach-retreat\",\"213\",\"1371230\",\"0.0-213.0\",\"\",\"\",\"3-1\",\"4053\",\"37\",\"1\",\"Testing\",\"Stims/Figures/128-C-30-3.bmp\",\"nama:na\",\"Left\",\"37\",\"3\",\"17\",\"7\",\"S\",\"J\",\"65\"
\"\",\"\",\"approach-retreat\",\"214\",\"1376902\",\"0.0-214.0\",\"\",\"\",\"3-1\",\"4164\",\"38\",\"1\",\"Testing\",\"Stims/Figures/139-J-0-2.bmp\",\"ta:ka:ka\",\"Down\",\"38\",\"3\",\"18\",\"7\",\"P\",\"J\",\"66\"
\"\",\"\",\"approach-retreat\",\"215\",\"1382590\",\"0.0-215.0\",\"\",\"\",\"3-1\",\"4182\",\"38\",\"1\",\"Testing\",\"Stims/Figures/93-J-0-1.bmp\",\"ta:kata\",\"Down\",\"38\",\"3\",\"19\",\"7\",\"P\",\"J\",\"67\"
\"\",\"\",\"approach-retreat\",\"216\",\"1388829\",\"0.0-216.0\",\"\",\"\",\"3-1\",\"4734\",\"38\",\"1\",\"Testing\",\"Stims/Figures/100-C-30-3.bmp\",\"mamala\",\"Up\",\"38\",\"3\",\"20\",\"7\",\"S\",\"J\",\"68\"
\"\",\"\",\"approach-retreat\",\"217\",\"1394517\",\"0.0-217.0\",\"\",\"\",\"3-1\",\"4182\",\"40\",\"1\",\"Testing\",\"Stims/Figures/85-J-0-2.bmp\",\"pa:ka:ka\",\"Up\",\"40\",\"3\",\"21\",\"7\",\"P\",\"J\",\"69\"
\"\",\"\",\"approach-retreat\",\"218\",\"1400382\",\"0.0-218.0\",\"\",\"\",\"3-1\",\"4359\",\"40\",\"1\",\"Testing\",\"Stims/Figures/71-J-0-1.bmp\",\"papata\",\"Up\",\"40\",\"3\",\"22\",\"7\",\"P\",\"J\",\"70\"
\"\",\"\",\"approach-retreat\",\"219\",\"1406134\",\"0.0-219.0\",\"\",\"\",\"3-1\",\"4244\",\"40\",\"1\",\"Testing\",\"Stims/Figures/102-C-20-4.bmp\",\"na:mala\",\"Down\",\"40\",\"3\",\"23\",\"7\",\"S\",\"J\",\"71\"
\"\",\"\",\"approach-retreat\",\"220\",\"1411734\",\"0.0-220.0\",\"\",\"\",\"3-1\",\"4094\",\"37\",\"0\",\"Testing\",\"Stims/Figures/128-J-10-3.bmp\",\"nala:na\",\"Left\",\"39\",\"3\",\"24\",\"7\",\"S\",\"J\",\"72\"
\"\",\"\",\"approach-retreat\",\"221\",\"1417375\",\"0.0-221.0\",\"\",\"\",\"3-1\",\"4134\",\"39\",\"1\",\"Testing\",\"Stims/Figures/71-C-30-1.bmp\",\"ta:kaka\",\"Right\",\"39\",\"4\",\"1\",\"7\",\"P\",\"J\",\"73\"
\"\",\"\",\"approach-retreat\",\"222\",\"1422982\",\"0.0-222.0\",\"\",\"\",\"3-1\",\"4101\",\"37\",\"1\",\"Testing\",\"Stims/Figures/57-J-0-1.bmp\",\"ta:pa:ta\",\"Right\",\"37\",\"4\",\"2\",\"7\",\"P\",\"J\",\"74\"
\"\",\"\",\"approach-retreat\",\"223\",\"1429061\",\"0.0-223.0\",\"\",\"\",\"3-1\",\"4572\",\"40\",\"1\",\"Testing\",\"Stims/Figures/19-J-10-4.bmp\",\"malala\",\"Up\",\"40\",\"4\",\"3\",\"7\",\"S\",\"J\",\"75\"
\"\",\"\",\"approach-retreat\",\"224\",\"1434710\",\"0.0-224.0\",\"\",\"\",\"3-1\",\"4142\",\"40\",\"1\",\"Testing\",\"Stims/Figures/111-J-10-3.bmp\",\"malana\",\"Up\",\"40\",\"4\",\"4\",\"7\",\"S\",\"J\",\"76\"
\"\",\"\",\"approach-retreat\",\"225\",\"1440350\",\"0.0-225.0\",\"\",\"\",\"3-1\",\"4133\",\"37\",\"1\",\"Testing\",\"Stims/Figures/85-J-0-2.bmp\",\"pa:ka:ka\",\"Right\",\"37\",\"4\",\"5\",\"7\",\"P\",\"J\",\"77\"
\"\",\"\",\"approach-retreat\",\"226\",\"1446022\",\"0.0-226.0\",\"\",\"\",\"3-1\",\"4165\",\"40\",\"1\",\"Testing\",\"Stims/Figures/93-J-0-1.bmp\",\"ta:kata\",\"Up\",\"40\",\"4\",\"6\",\"7\",\"P\",\"J\",\"78\"
\"\",\"\",\"approach-retreat\",\"227\",\"1451598\",\"0.0-227.0\",\"\",\"\",\"3-1\",\"4070\",\"37\",\"1\",\"Testing\",\"Stims/Figures/128-J-10-3.bmp\",\"nala:na\",\"Right\",\"37\",\"4\",\"7\",\"7\",\"S\",\"J\",\"79\"
\"\",\"\",\"approach-retreat\",\"228\",\"1457286\",\"0.0-228.0\",\"\",\"\",\"3-1\",\"4181\",\"38\",\"1\",\"Testing\",\"Stims/Figures/57-C-30-1.bmp\",\"taka:ta\",\"Up\",\"38\",\"4\",\"8\",\"7\",\"P\",\"J\",\"80\"
\"\",\"\",\"approach-retreat\",\"229\",\"1462908\",\"0.0-229.0\",\"\",\"\",\"3-1\",\"4116\",\"40\",\"1\",\"Testing\",\"Stims/Figures/100-C-30-3.bmp\",\"mamala\",\"Down\",\"40\",\"4\",\"9\",\"7\",\"S\",\"J\",\"81\"
\"\",\"\",\"approach-retreat\",\"230\",\"1468996\",\"0.0-230.0\",\"\",\"\",\"3-1\",\"4582\",\"38\",\"1\",\"Testing\",\"Stims/Figures/94-J-0-2.bmp\",\"takata\",\"Down\",\"38\",\"4\",\"10\",\"7\",\"P\",\"J\",\"82\"
\"\",\"\",\"approach-retreat\",\"231\",\"1474877\",\"0.0-231.0\",\"\",\"\",\"3-1\",\"4375\",\"37\",\"1\",\"Testing\",\"Stims/Figures/128-C-30-3.bmp\",\"nama:na\",\"Left\",\"37\",\"4\",\"11\",\"7\",\"S\",\"J\",\"83\"
\"\",\"\",\"approach-retreat\",\"232\",\"1480686\",\"0.0-232.0\",\"\",\"\",\"3-1\",\"4303\",\"40\",\"1\",\"Testing\",\"Stims/Figures/94-C-20-2.bmp\",\"ta:pata\",\"Down\",\"40\",\"4\",\"12\",\"7\",\"P\",\"J\",\"84\"
\"\",\"\",\"approach-retreat\",\"233\",\"1486284\",\"0.0-233.0\",\"\",\"\",\"3-1\",\"4092\",\"37\",\"1\",\"Testing\",\"Stims/Figures/74-C-20-4.bmp\",\"ma:la:la\",\"Left\",\"37\",\"4\",\"13\",\"7\",\"S\",\"J\",\"85\"
\"\",\"\",\"approach-retreat\",\"234\",\"1491727\",\"0.0-234.0\",\"\",\"\",\"3-1\",\"3935\",\"39\",\"1\",\"Testing\",\"Stims/Figures/74-J-10-4.bmp\",\"nama:la\",\"Left\",\"39\",\"4\",\"14\",\"7\",\"S\",\"J\",\"86\"
\"\",\"\",\"approach-retreat\",\"235\",\"1497262\",\"0.0-235.0\",\"\",\"\",\"3-1\",\"4027\",\"37\",\"1\",\"Testing\",\"Stims/Figures/85-C-20-2.bmp\",\"pa:ka:ta\",\"Left\",\"37\",\"4\",\"15\",\"7\",\"P\",\"J\",\"87\"
\"\",\"\",\"approach-retreat\",\"236\",\"1502799\",\"0.0-236.0\",\"\",\"\",\"3-1\",\"4030\",\"37\",\"1\",\"Testing\",\"Stims/Figures/102-J-10-4.bmp\",\"namala\",\"Right\",\"37\",\"4\",\"16\",\"7\",\"S\",\"J\",\"88\"
\"\",\"\",\"approach-retreat\",\"237\",\"1508422\",\"0.0-237.0\",\"\",\"\",\"3-1\",\"4116\",\"39\",\"1\",\"Testing\",\"Stims/Figures/139-J-0-2.bmp\",\"ta:ka:ka\",\"Left\",\"39\",\"4\",\"17\",\"7\",\"P\",\"J\",\"89\"
\"\",\"\",\"approach-retreat\",\"238\",\"1514215\",\"0.0-238.0\",\"\",\"\",\"3-1\",\"4285\",\"40\",\"1\",\"Testing\",\"Stims/Figures/93-C-30-1.bmp\",\"pa:pa:ka\",\"Down\",\"40\",\"4\",\"18\",\"7\",\"P\",\"J\",\"90\"
\"\",\"\",\"approach-retreat\",\"239\",\"1519854\",\"0.0-239.0\",\"\",\"\",\"3-1\",\"4133\",\"37\",\"1\",\"Testing\",\"Stims/Figures/71-J-0-1.bmp\",\"papata\",\"Right\",\"37\",\"4\",\"19\",\"7\",\"P\",\"J\",\"91\"
\"\",\"\",\"approach-retreat\",\"240\",\"1525478\",\"0.0-240.0\",\"\",\"\",\"3-1\",\"4119\",\"38\",\"1\",\"Testing\",\"Stims/Figures/139-C-20-2.bmp\",\"paka:ka\",\"Up\",\"38\",\"4\",\"20\",\"7\",\"P\",\"J\",\"92\"
\"\",\"\",\"approach-retreat\",\"241\",\"1531398\",\"0.0-241.0\",\"\",\"\",\"3-1\",\"4413\",\"40\",\"1\",\"Testing\",\"Stims/Figures/111-C-30-3.bmp\",\"ma:mana\",\"Down\",\"40\",\"4\",\"21\",\"7\",\"S\",\"J\",\"93\"
\"\",\"\",\"approach-retreat\",\"242\",\"1536990\",\"0.0-242.0\",\"\",\"\",\"3-1\",\"4086\",\"38\",\"1\",\"Testing\",\"Stims/Figures/102-C-20-4.bmp\",\"na:mala\",\"Up\",\"38\",\"4\",\"22\",\"7\",\"S\",\"J\",\"94\"
\"\",\"\",\"approach-retreat\",\"243\",\"1542871\",\"0.0-243.0\",\"\",\"\",\"3-1\",\"4373\",\"38\",\"1\",\"Testing\",\"Stims/Figures/100-J-10-3.bmp\",\"mamana\",\"Down\",\"38\",\"4\",\"23\",\"7\",\"S\",\"J\",\"95\"
\"\",\"\",\"approach-retreat\",\"244\",\"1548735\",\"0.0-244.0\",\"\",\"\",\"3-1\",\"4358\",\"39\",\"0\",\"Testing\",\"Stims/Figures/19-C-20-4.bmp\",\"na:lala\",\"Left\",\"37\",\"4\",\"24\",\"7\",\"S\",\"J\",\"96\"
\"19510\",\"\",\"survey-text\",\"245\",\"1568250\",\"0.0-245.0\",\"\",\"{\"\"Q0\"\":\"\"PS160079\"\"}\",\"\",\"\",\"\",\"\",\"\",\"\",\"\",\"\",\"\",\"\",\"\",\"\",\"\",\"\",\"\"
