\"rt\",\"key_press\",\"trial_type\",\"trial_index\",\"time_elapsed\",\"internal_node_id\",\"view_history\",\"responses\",\"Id\",\"Rt\",\"ResKeyCode\",\"ResCorr\",\"TrialType2\",\"Image\",\"Label\",\"Location\",\"CorrectResponse\",\"Block\",\"BlockTrial\",\"Condition\",\"LabelType\",\"Subcondition\",\"trialNum\"
\"51631\",\"32\",\"text\",\"0\",\"51634\",\"0.0-0.0-0.0\",\"\",\"\",\"\",\"\",\"\",\"\",\"\",\"\",\"\",\"\",\"\",\"\",\"\",\"\",\"\",\"\",\"\"
\"63730\",\"\",\"instructions\",\"1\",\"115366\",\"0.0-1.0\",\"[{\"\"page_index\"\":0,\"\"viewing_time\"\":63728}]\",\"\",\"\",\"\",\"\",\"\",\"\",\"\",\"\",\"\",\"\",\"\",\"\",\"\",\"\",\"\",\"\"
\"25873\",\"\",\"survey-multi-choice\",\"2\",\"141260\",\"0.0-2.0\",\"\",\"{\"\"Q0\"\":\"\"Da\"\",\"\"Q1\"\":\"\"Da\"\",\"\"Q2\"\":\"\"Da\"\",\"\"Q3\"\":\"\"Da\"\",\"\"Q4\"\":\"\"Da\"\",\"\"Q5\"\":\"\"Da\"\"}\",\"\",\"\",\"\",\"\",\"\",\"\",\"\",\"\",\"\",\"\",\"\",\"\",\"\",\"\",\"\"
\"\",\"\",\"bio\",\"3\",\"151335\",\"0.0-3.0\",\"\",\"{\"\"age\"\":\"\"20\"\",\"\"gender\"\":\"\"f\"\",\"\"specify\"\":\"\"\"\"}\",\"\",\"\",\"\",\"\",\"\",\"\",\"\",\"\",\"\",\"\",\"\",\"\",\"\",\"\",\"\"
\"\",\"\",\"approach-retreat\",\"4\",\"165045\",\"0.0-4.0\",\"\",\"\",\"2-2\",\"12203\",\"40\",\"0\",\"Training\",\"Stims/Figures/128-C-30-3.bmp\",\"ma:la:na\",\"Up\",\"38\",\"1\",\"1\",\"4\",\"S\",\"J\",\"1\"
\"\",\"\",\"approach-retreat\",\"5\",\"174631\",\"0.0-5.0\",\"\",\"\",\"2-2\",\"8075\",\"37\",\"0\",\"Training\",\"Stims/Figures/71-J-0-1.bmp\",\"ta:kata\",\"Left\",\"39\",\"1\",\"2\",\"4\",\"P\",\"J\",\"2\"
\"\",\"\",\"approach-retreat\",\"6\",\"183433\",\"0.0-6.0\",\"\",\"\",\"2-2\",\"7294\",\"40\",\"1\",\"Training\",\"Stims/Figures/139-C-20-2.bmp\",\"namana\",\"Down\",\"40\",\"1\",\"3\",\"4\",\"S\",\"J\",\"3\"
\"\",\"\",\"approach-retreat\",\"7\",\"190747\",\"0.0-7.0\",\"\",\"\",\"2-2\",\"5806\",\"38\",\"0\",\"Training\",\"Stims/Figures/87-J-10-4.bmp\",\"takaka\",\"Up\",\"40\",\"1\",\"4\",\"4\",\"P\",\"J\",\"4\"
\"\",\"\",\"approach-retreat\",\"8\",\"198300\",\"0.0-8.0\",\"\",\"\",\"2-2\",\"6044\",\"37\",\"0\",\"Training\",\"Stims/Figures/111-C-30-3.bmp\",\"ma:ma:na\",\"Right\",\"39\",\"1\",\"5\",\"4\",\"S\",\"J\",\"5\"
\"\",\"\",\"approach-retreat\",\"9\",\"205248\",\"0.0-9.0\",\"\",\"\",\"2-2\",\"5440\",\"37\",\"0\",\"Training\",\"Stims/Figures/139-J-0-2.bmp\",\"ta:pa:ka\",\"Left\",\"39\",\"1\",\"6\",\"4\",\"P\",\"J\",\"6\"
\"\",\"\",\"approach-retreat\",\"10\",\"213397\",\"0.0-10.0\",\"\",\"\",\"2-2\",\"6638\",\"40\",\"1\",\"Training\",\"Stims/Figures/111-J-10-3.bmp\",\"paka:ta\",\"Up\",\"40\",\"1\",\"7\",\"4\",\"P\",\"J\",\"7\"
\"\",\"\",\"approach-retreat\",\"11\",\"220493\",\"0.0-11.0\",\"\",\"\",\"2-2\",\"5589\",\"39\",\"1\",\"Training\",\"Stims/Figures/27-J-0-1.bmp\",\"tapata\",\"Left\",\"39\",\"1\",\"8\",\"4\",\"P\",\"J\",\"8\"
\"\",\"\",\"approach-retreat\",\"12\",\"228386\",\"0.0-12.0\",\"\",\"\",\"2-2\",\"6382\",\"38\",\"1\",\"Training\",\"Stims/Figures/27-C-30-1.bmp\",\"na:ma:na\",\"Up\",\"38\",\"1\",\"9\",\"4\",\"S\",\"J\",\"9\"
\"\",\"\",\"approach-retreat\",\"13\",\"237237\",\"0.0-13.0\",\"\",\"\",\"2-2\",\"7344\",\"37\",\"0\",\"Training\",\"Stims/Figures/84-C-20-2.bmp\",\"na:lala\",\"Right\",\"39\",\"1\",\"10\",\"4\",\"S\",\"J\",\"10\"
\"\",\"\",\"approach-retreat\",\"14\",\"245647\",\"0.0-14.0\",\"\",\"\",\"2-2\",\"6902\",\"38\",\"1\",\"Training\",\"Stims/Figures/84-J-0-2.bmp\",\"taka:ka\",\"Down\",\"38\",\"1\",\"11\",\"4\",\"P\",\"J\",\"11\"
\"\",\"\",\"approach-retreat\",\"15\",\"253114\",\"0.0-15.0\",\"\",\"\",\"2-2\",\"5958\",\"39\",\"0\",\"Training\",\"Stims/Figures/7-C-20-4.bmp\",\"ma:ma:la\",\"Left\",\"37\",\"1\",\"12\",\"4\",\"S\",\"J\",\"12\"
\"\",\"\",\"approach-retreat\",\"16\",\"260190\",\"0.0-16.0\",\"\",\"\",\"2-2\",\"5569\",\"38\",\"0\",\"Training\",\"Stims/Figures/71-C-30-1.bmp\",\"nala:la\",\"Down\",\"40\",\"1\",\"13\",\"4\",\"S\",\"J\",\"13\"
\"\",\"\",\"approach-retreat\",\"17\",\"268895\",\"0.0-17.0\",\"\",\"\",\"2-2\",\"7197\",\"40\",\"1\",\"Training\",\"Stims/Figures/87-C-20-4.bmp\",\"nama:na\",\"Down\",\"40\",\"1\",\"14\",\"4\",\"S\",\"J\",\"14\"
\"\",\"\",\"approach-retreat\",\"18\",\"276457\",\"0.0-18.0\",\"\",\"\",\"2-2\",\"6055\",\"37\",\"1\",\"Training\",\"Stims/Figures/7-J-10-4.bmp\",\"pa:pa:ta\",\"Right\",\"37\",\"1\",\"15\",\"4\",\"P\",\"J\",\"15\"
\"\",\"\",\"approach-retreat\",\"19\",\"283881\",\"0.0-19.0\",\"\",\"\",\"2-2\",\"5913\",\"37\",\"1\",\"Training\",\"Stims/Figures/128-J-10-3.bmp\",\"pa:ka:ka\",\"Right\",\"37\",\"1\",\"16\",\"4\",\"P\",\"J\",\"16\"
\"\",\"\",\"approach-retreat\",\"20\",\"290411\",\"0.0-20.0\",\"\",\"\",\"2-2\",\"5020\",\"38\",\"0\",\"Training\",\"Stims/Figures/7-C-20-4.bmp\",\"ma:ma:la\",\"Down\",\"40\",\"2\",\"1\",\"4\",\"S\",\"J\",\"17\"
\"\",\"\",\"approach-retreat\",\"21\",\"297061\",\"0.0-21.0\",\"\",\"\",\"2-2\",\"5142\",\"40\",\"1\",\"Training\",\"Stims/Figures/111-J-10-3.bmp\",\"paka:ta\",\"Up\",\"40\",\"2\",\"2\",\"4\",\"P\",\"J\",\"18\"
\"\",\"\",\"approach-retreat\",\"22\",\"303936\",\"0.0-22.0\",\"\",\"\",\"2-2\",\"5366\",\"38\",\"0\",\"Training\",\"Stims/Figures/128-C-30-3.bmp\",\"ma:la:na\",\"Down\",\"40\",\"2\",\"3\",\"4\",\"S\",\"J\",\"19\"
\"\",\"\",\"approach-retreat\",\"23\",\"310557\",\"0.0-23.0\",\"\",\"\",\"2-2\",\"5113\",\"37\",\"0\",\"Training\",\"Stims/Figures/111-C-30-3.bmp\",\"ma:ma:na\",\"Right\",\"39\",\"2\",\"4\",\"4\",\"S\",\"J\",\"20\"
\"\",\"\",\"approach-retreat\",\"24\",\"316888\",\"0.0-24.0\",\"\",\"\",\"2-2\",\"4823\",\"38\",\"1\",\"Training\",\"Stims/Figures/139-C-20-2.bmp\",\"namana\",\"Up\",\"38\",\"2\",\"5\",\"4\",\"S\",\"J\",\"21\"
\"\",\"\",\"approach-retreat\",\"25\",\"323111\",\"0.0-25.0\",\"\",\"\",\"2-2\",\"4716\",\"38\",\"0\",\"Training\",\"Stims/Figures/27-J-0-1.bmp\",\"tapata\",\"Up\",\"40\",\"2\",\"6\",\"4\",\"P\",\"J\",\"22\"
\"\",\"\",\"approach-retreat\",\"26\",\"329809\",\"0.0-26.0\",\"\",\"\",\"2-2\",\"5191\",\"37\",\"1\",\"Training\",\"Stims/Figures/7-J-10-4.bmp\",\"pa:pa:ta\",\"Right\",\"37\",\"2\",\"7\",\"4\",\"P\",\"J\",\"23\"
\"\",\"\",\"approach-retreat\",\"27\",\"335791\",\"0.0-27.0\",\"\",\"\",\"2-2\",\"4471\",\"37\",\"0\",\"Training\",\"Stims/Figures/128-J-10-3.bmp\",\"pa:ka:ka\",\"Left\",\"39\",\"2\",\"8\",\"4\",\"P\",\"J\",\"24\"
\"\",\"\",\"approach-retreat\",\"28\",\"341865\",\"0.0-28.0\",\"\",\"\",\"2-2\",\"4567\",\"39\",\"1\",\"Training\",\"Stims/Figures/71-J-0-1.bmp\",\"ta:kata\",\"Left\",\"39\",\"2\",\"9\",\"4\",\"P\",\"J\",\"25\"
\"\",\"\",\"approach-retreat\",\"29\",\"348434\",\"0.0-29.0\",\"\",\"\",\"2-2\",\"5061\",\"38\",\"0\",\"Training\",\"Stims/Figures/87-C-20-4.bmp\",\"nama:na\",\"Down\",\"40\",\"2\",\"10\",\"4\",\"S\",\"J\",\"26\"
\"\",\"\",\"approach-retreat\",\"30\",\"355240\",\"0.0-30.0\",\"\",\"\",\"2-2\",\"5297\",\"37\",\"1\",\"Training\",\"Stims/Figures/87-J-10-4.bmp\",\"takaka\",\"Right\",\"37\",\"2\",\"11\",\"4\",\"P\",\"J\",\"27\"
\"\",\"\",\"approach-retreat\",\"31\",\"361220\",\"0.0-31.0\",\"\",\"\",\"2-2\",\"4471\",\"38\",\"0\",\"Training\",\"Stims/Figures/71-C-30-1.bmp\",\"nala:la\",\"Down\",\"40\",\"2\",\"12\",\"4\",\"S\",\"J\",\"28\"
\"\",\"\",\"approach-retreat\",\"32\",\"367650\",\"0.0-32.0\",\"\",\"\",\"2-2\",\"4920\",\"39\",\"1\",\"Training\",\"Stims/Figures/84-J-0-2.bmp\",\"taka:ka\",\"Left\",\"39\",\"2\",\"13\",\"4\",\"P\",\"J\",\"29\"
\"\",\"\",\"approach-retreat\",\"33\",\"373953\",\"0.0-33.0\",\"\",\"\",\"2-2\",\"4792\",\"37\",\"0\",\"Training\",\"Stims/Figures/27-C-30-1.bmp\",\"na:ma:na\",\"Right\",\"39\",\"2\",\"14\",\"4\",\"S\",\"J\",\"30\"
\"\",\"\",\"approach-retreat\",\"34\",\"379890\",\"0.0-34.0\",\"\",\"\",\"2-2\",\"4428\",\"39\",\"0\",\"Training\",\"Stims/Figures/84-C-20-2.bmp\",\"na:lala\",\"Left\",\"37\",\"2\",\"15\",\"4\",\"S\",\"J\",\"31\"
\"\",\"\",\"approach-retreat\",\"35\",\"385802\",\"0.0-35.0\",\"\",\"\",\"2-2\",\"4403\",\"38\",\"0\",\"Training\",\"Stims/Figures/139-J-0-2.bmp\",\"ta:pa:ka\",\"Up\",\"40\",\"2\",\"16\",\"4\",\"P\",\"J\",\"32\"
\"\",\"\",\"approach-retreat\",\"36\",\"391763\",\"0.0-36.0\",\"\",\"\",\"2-2\",\"4453\",\"38\",\"0\",\"Training\",\"Stims/Figures/87-C-20-4.bmp\",\"nama:na\",\"Down\",\"40\",\"3\",\"1\",\"4\",\"S\",\"J\",\"33\"
\"\",\"\",\"approach-retreat\",\"37\",\"398044\",\"0.0-37.0\",\"\",\"\",\"2-2\",\"4774\",\"40\",\"0\",\"Training\",\"Stims/Figures/111-C-30-3.bmp\",\"ma:ma:na\",\"Up\",\"38\",\"3\",\"2\",\"4\",\"S\",\"J\",\"34\"
\"\",\"\",\"approach-retreat\",\"38\",\"403743\",\"0.0-38.0\",\"\",\"\",\"2-2\",\"4186\",\"38\",\"0\",\"Training\",\"Stims/Figures/111-J-10-3.bmp\",\"paka:ta\",\"Up\",\"40\",\"3\",\"3\",\"4\",\"P\",\"J\",\"35\"
\"\",\"\",\"approach-retreat\",\"39\",\"409954\",\"0.0-39.0\",\"\",\"\",\"2-2\",\"4700\",\"40\",\"0\",\"Training\",\"Stims/Figures/87-J-10-4.bmp\",\"takaka\",\"Down\",\"38\",\"3\",\"4\",\"4\",\"P\",\"J\",\"36\"
\"\",\"\",\"approach-retreat\",\"40\",\"416631\",\"0.0-40.0\",\"\",\"\",\"2-2\",\"5168\",\"37\",\"0\",\"Training\",\"Stims/Figures/71-C-30-1.bmp\",\"nala:la\",\"Right\",\"39\",\"3\",\"5\",\"4\",\"S\",\"J\",\"37\"
\"\",\"\",\"approach-retreat\",\"41\",\"422610\",\"0.0-41.0\",\"\",\"\",\"2-2\",\"4472\",\"38\",\"0\",\"Training\",\"Stims/Figures/84-C-20-2.bmp\",\"na:lala\",\"Down\",\"40\",\"3\",\"6\",\"4\",\"S\",\"J\",\"38\"
\"\",\"\",\"approach-retreat\",\"42\",\"428310\",\"0.0-42.0\",\"\",\"\",\"2-2\",\"4196\",\"37\",\"1\",\"Training\",\"Stims/Figures/71-J-0-1.bmp\",\"ta:kata\",\"Right\",\"37\",\"3\",\"7\",\"4\",\"P\",\"J\",\"39\"
\"\",\"\",\"approach-retreat\",\"43\",\"433891\",\"0.0-43.0\",\"\",\"\",\"2-2\",\"4070\",\"37\",\"0\",\"Training\",\"Stims/Figures/27-C-30-1.bmp\",\"na:ma:na\",\"Right\",\"39\",\"3\",\"8\",\"4\",\"S\",\"J\",\"40\"
\"\",\"\",\"approach-retreat\",\"44\",\"439903\",\"0.0-44.0\",\"\",\"\",\"2-2\",\"4502\",\"38\",\"1\",\"Training\",\"Stims/Figures/139-C-20-2.bmp\",\"namana\",\"Up\",\"38\",\"3\",\"9\",\"4\",\"S\",\"J\",\"41\"
\"\",\"\",\"approach-retreat\",\"45\",\"445840\",\"0.0-45.0\",\"\",\"\",\"2-2\",\"4429\",\"37\",\"1\",\"Training\",\"Stims/Figures/7-C-20-4.bmp\",\"ma:ma:la\",\"Left\",\"37\",\"3\",\"10\",\"4\",\"S\",\"J\",\"42\"
\"\",\"\",\"approach-retreat\",\"46\",\"451983\",\"0.0-46.0\",\"\",\"\",\"2-2\",\"4635\",\"38\",\"1\",\"Training\",\"Stims/Figures/7-J-10-4.bmp\",\"pa:pa:ta\",\"Down\",\"38\",\"3\",\"11\",\"4\",\"P\",\"J\",\"43\"
\"\",\"\",\"approach-retreat\",\"47\",\"457914\",\"0.0-47.0\",\"\",\"\",\"2-2\",\"4420\",\"39\",\"1\",\"Training\",\"Stims/Figures/84-J-0-2.bmp\",\"taka:ka\",\"Left\",\"39\",\"3\",\"12\",\"4\",\"P\",\"J\",\"44\"
\"\",\"\",\"approach-retreat\",\"48\",\"464338\",\"0.0-48.0\",\"\",\"\",\"2-2\",\"4914\",\"40\",\"0\",\"Training\",\"Stims/Figures/128-C-30-3.bmp\",\"ma:la:na\",\"Up\",\"38\",\"3\",\"13\",\"4\",\"S\",\"J\",\"45\"
\"\",\"\",\"approach-retreat\",\"49\",\"470470\",\"0.0-49.0\",\"\",\"\",\"2-2\",\"4622\",\"37\",\"0\",\"Training\",\"Stims/Figures/139-J-0-2.bmp\",\"ta:pa:ka\",\"Left\",\"39\",\"3\",\"14\",\"4\",\"P\",\"J\",\"46\"
\"\",\"\",\"approach-retreat\",\"50\",\"477659\",\"0.0-50.0\",\"\",\"\",\"2-2\",\"5679\",\"39\",\"0\",\"Training\",\"Stims/Figures/27-J-0-1.bmp\",\"tapata\",\"Right\",\"37\",\"3\",\"15\",\"4\",\"P\",\"J\",\"47\"
\"\",\"\",\"approach-retreat\",\"51\",\"486729\",\"0.0-51.0\",\"\",\"\",\"2-2\",\"7562\",\"37\",\"0\",\"Training\",\"Stims/Figures/128-J-10-3.bmp\",\"pa:ka:ka\",\"Left\",\"39\",\"3\",\"16\",\"4\",\"P\",\"J\",\"48\"
\"\",\"\",\"approach-retreat\",\"52\",\"492444\",\"0.0-52.0\",\"\",\"\",\"2-2\",\"4207\",\"37\",\"0\",\"Training\",\"Stims/Figures/71-J-0-1.bmp\",\"ta:kata\",\"Left\",\"39\",\"4\",\"1\",\"4\",\"P\",\"J\",\"49\"
\"\",\"\",\"approach-retreat\",\"53\",\"498370\",\"0.0-53.0\",\"\",\"\",\"2-2\",\"4415\",\"38\",\"0\",\"Training\",\"Stims/Figures/84-J-0-2.bmp\",\"taka:ka\",\"Up\",\"40\",\"4\",\"2\",\"4\",\"P\",\"J\",\"50\"
\"\",\"\",\"approach-retreat\",\"54\",\"505274\",\"0.0-54.0\",\"\",\"\",\"2-2\",\"5393\",\"40\",\"1\",\"Training\",\"Stims/Figures/7-C-20-4.bmp\",\"ma:ma:la\",\"Down\",\"40\",\"4\",\"3\",\"4\",\"S\",\"J\",\"51\"
\"\",\"\",\"approach-retreat\",\"55\",\"512397\",\"0.0-55.0\",\"\",\"\",\"2-2\",\"5614\",\"37\",\"1\",\"Training\",\"Stims/Figures/111-J-10-3.bmp\",\"paka:ta\",\"Right\",\"37\",\"4\",\"4\",\"4\",\"P\",\"J\",\"52\"
\"\",\"\",\"approach-retreat\",\"56\",\"519093\",\"0.0-56.0\",\"\",\"\",\"2-2\",\"5188\",\"38\",\"0\",\"Training\",\"Stims/Figures/7-J-10-4.bmp\",\"pa:pa:ta\",\"Up\",\"40\",\"4\",\"5\",\"4\",\"P\",\"J\",\"53\"
\"\",\"\",\"approach-retreat\",\"57\",\"526852\",\"0.0-57.0\",\"\",\"\",\"2-2\",\"6249\",\"37\",\"0\",\"Training\",\"Stims/Figures/71-C-30-1.bmp\",\"nala:la\",\"Right\",\"39\",\"4\",\"6\",\"4\",\"S\",\"J\",\"54\"
\"\",\"\",\"approach-retreat\",\"58\",\"534236\",\"0.0-58.0\",\"\",\"\",\"2-2\",\"5879\",\"40\",\"1\",\"Training\",\"Stims/Figures/111-C-30-3.bmp\",\"ma:ma:na\",\"Down\",\"40\",\"4\",\"7\",\"4\",\"S\",\"J\",\"55\"
\"\",\"\",\"approach-retreat\",\"59\",\"540134\",\"0.0-59.0\",\"\",\"\",\"2-2\",\"4388\",\"39\",\"1\",\"Training\",\"Stims/Figures/128-J-10-3.bmp\",\"pa:ka:ka\",\"Left\",\"39\",\"4\",\"8\",\"4\",\"P\",\"J\",\"56\"
\"\",\"\",\"approach-retreat\",\"60\",\"546009\",\"0.0-60.0\",\"\",\"\",\"2-2\",\"4364\",\"40\",\"0\",\"Training\",\"Stims/Figures/87-J-10-4.bmp\",\"takaka\",\"Down\",\"38\",\"4\",\"9\",\"4\",\"P\",\"J\",\"57\"
\"\",\"\",\"approach-retreat\",\"61\",\"551942\",\"0.0-61.0\",\"\",\"\",\"2-2\",\"4424\",\"37\",\"0\",\"Training\",\"Stims/Figures/87-C-20-4.bmp\",\"nama:na\",\"Right\",\"39\",\"4\",\"10\",\"4\",\"S\",\"J\",\"58\"
\"\",\"\",\"approach-retreat\",\"62\",\"557956\",\"0.0-62.0\",\"\",\"\",\"2-2\",\"4503\",\"39\",\"1\",\"Training\",\"Stims/Figures/27-J-0-1.bmp\",\"tapata\",\"Left\",\"39\",\"4\",\"11\",\"4\",\"P\",\"J\",\"59\"
\"\",\"\",\"approach-retreat\",\"63\",\"563856\",\"0.0-63.0\",\"\",\"\",\"2-2\",\"4389\",\"37\",\"1\",\"Training\",\"Stims/Figures/84-C-20-2.bmp\",\"na:lala\",\"Left\",\"37\",\"4\",\"12\",\"4\",\"S\",\"J\",\"60\"
\"\",\"\",\"approach-retreat\",\"64\",\"570071\",\"0.0-64.0\",\"\",\"\",\"2-2\",\"4703\",\"37\",\"0\",\"Training\",\"Stims/Figures/27-C-30-1.bmp\",\"na:ma:na\",\"Right\",\"39\",\"4\",\"13\",\"4\",\"S\",\"J\",\"61\"
\"\",\"\",\"approach-retreat\",\"65\",\"576887\",\"0.0-65.0\",\"\",\"\",\"2-2\",\"5307\",\"38\",\"0\",\"Training\",\"Stims/Figures/139-J-0-2.bmp\",\"ta:pa:ka\",\"Up\",\"40\",\"4\",\"14\",\"4\",\"P\",\"J\",\"62\"
\"\",\"\",\"approach-retreat\",\"66\",\"582674\",\"0.0-66.0\",\"\",\"\",\"2-2\",\"4280\",\"38\",\"1\",\"Training\",\"Stims/Figures/139-C-20-2.bmp\",\"namana\",\"Up\",\"38\",\"4\",\"15\",\"4\",\"S\",\"J\",\"63\"
\"\",\"\",\"approach-retreat\",\"67\",\"590742\",\"0.0-67.0\",\"\",\"\",\"2-2\",\"6557\",\"38\",\"0\",\"Training\",\"Stims/Figures/128-C-30-3.bmp\",\"ma:la:na\",\"Down\",\"40\",\"4\",\"16\",\"4\",\"S\",\"J\",\"64\"
\"\",\"\",\"approach-retreat\",\"68\",\"596837\",\"0.0-68.0\",\"\",\"\",\"2-2\",\"4585\",\"37\",\"1\",\"Training\",\"Stims/Figures/71-J-0-1.bmp\",\"ta:kata\",\"Right\",\"37\",\"5\",\"1\",\"4\",\"P\",\"J\",\"65\"
\"\",\"\",\"approach-retreat\",\"69\",\"602947\",\"0.0-69.0\",\"\",\"\",\"2-2\",\"4599\",\"39\",\"0\",\"Training\",\"Stims/Figures/128-C-30-3.bmp\",\"ma:la:na\",\"Left\",\"37\",\"5\",\"2\",\"4\",\"S\",\"J\",\"66\"
\"\",\"\",\"approach-retreat\",\"70\",\"610390\",\"0.0-70.0\",\"\",\"\",\"2-2\",\"5933\",\"38\",\"0\",\"Training\",\"Stims/Figures/71-C-30-1.bmp\",\"nala:la\",\"Down\",\"40\",\"5\",\"3\",\"4\",\"S\",\"J\",\"67\"
\"\",\"\",\"approach-retreat\",\"71\",\"617567\",\"0.0-71.0\",\"\",\"\",\"2-2\",\"5667\",\"39\",\"0\",\"Training\",\"Stims/Figures/84-J-0-2.bmp\",\"taka:ka\",\"Right\",\"37\",\"5\",\"4\",\"4\",\"P\",\"J\",\"68\"
\"\",\"\",\"approach-retreat\",\"72\",\"623956\",\"0.0-72.0\",\"\",\"\",\"2-2\",\"4877\",\"38\",\"0\",\"Training\",\"Stims/Figures/7-C-20-4.bmp\",\"ma:ma:la\",\"Down\",\"40\",\"5\",\"5\",\"4\",\"S\",\"J\",\"69\"
\"\",\"\",\"approach-retreat\",\"73\",\"629869\",\"0.0-73.0\",\"\",\"\",\"2-2\",\"4405\",\"38\",\"0\",\"Training\",\"Stims/Figures/139-J-0-2.bmp\",\"ta:pa:ka\",\"Up\",\"40\",\"5\",\"6\",\"4\",\"P\",\"J\",\"70\"
\"\",\"\",\"approach-retreat\",\"74\",\"636057\",\"0.0-74.0\",\"\",\"\",\"2-2\",\"4680\",\"40\",\"0\",\"Training\",\"Stims/Figures/7-J-10-4.bmp\",\"pa:pa:ta\",\"Down\",\"38\",\"5\",\"7\",\"4\",\"P\",\"J\",\"71\"
\"\",\"\",\"approach-retreat\",\"75\",\"642018\",\"0.0-75.0\",\"\",\"\",\"2-2\",\"4452\",\"40\",\"1\",\"Training\",\"Stims/Figures/87-J-10-4.bmp\",\"takaka\",\"Up\",\"40\",\"5\",\"8\",\"4\",\"P\",\"J\",\"72\"
\"\",\"\",\"approach-retreat\",\"76\",\"648382\",\"0.0-76.0\",\"\",\"\",\"2-2\",\"4855\",\"37\",\"1\",\"Training\",\"Stims/Figures/87-C-20-4.bmp\",\"nama:na\",\"Left\",\"37\",\"5\",\"9\",\"4\",\"S\",\"J\",\"73\"
\"\",\"\",\"approach-retreat\",\"77\",\"654434\",\"0.0-77.0\",\"\",\"\",\"2-2\",\"4542\",\"38\",\"0\",\"Training\",\"Stims/Figures/27-C-30-1.bmp\",\"na:ma:na\",\"Down\",\"40\",\"5\",\"10\",\"4\",\"S\",\"J\",\"74\"
\"\",\"\",\"approach-retreat\",\"78\",\"660279\",\"0.0-78.0\",\"\",\"\",\"2-2\",\"4333\",\"40\",\"0\",\"Training\",\"Stims/Figures/139-C-20-2.bmp\",\"namana\",\"Up\",\"38\",\"5\",\"11\",\"4\",\"S\",\"J\",\"75\"
\"\",\"\",\"approach-retreat\",\"79\",\"666271\",\"0.0-79.0\",\"\",\"\",\"2-2\",\"4483\",\"37\",\"1\",\"Training\",\"Stims/Figures/128-J-10-3.bmp\",\"pa:ka:ka\",\"Right\",\"37\",\"5\",\"12\",\"4\",\"P\",\"J\",\"76\"
\"\",\"\",\"approach-retreat\",\"80\",\"672241\",\"0.0-80.0\",\"\",\"\",\"2-2\",\"4460\",\"37\",\"0\",\"Training\",\"Stims/Figures/111-J-10-3.bmp\",\"paka:ta\",\"Left\",\"39\",\"5\",\"13\",\"4\",\"P\",\"J\",\"77\"
\"\",\"\",\"approach-retreat\",\"81\",\"678023\",\"0.0-81.0\",\"\",\"\",\"2-2\",\"4275\",\"37\",\"1\",\"Training\",\"Stims/Figures/27-J-0-1.bmp\",\"tapata\",\"Right\",\"37\",\"5\",\"14\",\"4\",\"P\",\"J\",\"78\"
\"\",\"\",\"approach-retreat\",\"82\",\"684439\",\"0.0-82.0\",\"\",\"\",\"2-2\",\"4907\",\"38\",\"1\",\"Training\",\"Stims/Figures/111-C-30-3.bmp\",\"ma:ma:na\",\"Up\",\"38\",\"5\",\"15\",\"4\",\"S\",\"J\",\"79\"
\"\",\"\",\"approach-retreat\",\"83\",\"690374\",\"0.0-83.0\",\"\",\"\",\"2-2\",\"4425\",\"39\",\"0\",\"Training\",\"Stims/Figures/84-C-20-2.bmp\",\"na:lala\",\"Left\",\"37\",\"5\",\"16\",\"4\",\"S\",\"J\",\"80\"
\"\",\"\",\"approach-retreat\",\"84\",\"697115\",\"0.0-84.0\",\"\",\"\",\"2-2\",\"5232\",\"38\",\"0\",\"Training\",\"Stims/Figures/139-J-0-2.bmp\",\"ta:pa:ka\",\"Up\",\"40\",\"6\",\"1\",\"4\",\"P\",\"J\",\"81\"
\"\",\"\",\"approach-retreat\",\"85\",\"703323\",\"0.0-85.0\",\"\",\"\",\"2-2\",\"4699\",\"39\",\"1\",\"Training\",\"Stims/Figures/7-J-10-4.bmp\",\"pa:pa:ta\",\"Left\",\"39\",\"6\",\"2\",\"4\",\"P\",\"J\",\"82\"
\"\",\"\",\"approach-retreat\",\"86\",\"709361\",\"0.0-86.0\",\"\",\"\",\"2-2\",\"4527\",\"39\",\"0\",\"Training\",\"Stims/Figures/111-J-10-3.bmp\",\"paka:ta\",\"Right\",\"37\",\"6\",\"3\",\"4\",\"P\",\"J\",\"83\"
\"\",\"\",\"approach-retreat\",\"87\",\"715839\",\"0.0-87.0\",\"\",\"\",\"2-2\",\"4968\",\"38\",\"1\",\"Training\",\"Stims/Figures/71-J-0-1.bmp\",\"ta:kata\",\"Down\",\"38\",\"6\",\"4\",\"4\",\"P\",\"J\",\"84\"
\"\",\"\",\"approach-retreat\",\"88\",\"722684\",\"0.0-88.0\",\"\",\"\",\"2-2\",\"5336\",\"37\",\"1\",\"Training\",\"Stims/Figures/27-J-0-1.bmp\",\"tapata\",\"Right\",\"37\",\"6\",\"5\",\"4\",\"P\",\"J\",\"85\"
\"\",\"\",\"approach-retreat\",\"89\",\"728650\",\"0.0-89.0\",\"\",\"\",\"2-2\",\"4455\",\"37\",\"1\",\"Training\",\"Stims/Figures/128-C-30-3.bmp\",\"ma:la:na\",\"Left\",\"37\",\"6\",\"6\",\"4\",\"S\",\"J\",\"86\"
\"\",\"\",\"approach-retreat\",\"90\",\"734829\",\"0.0-90.0\",\"\",\"\",\"2-2\",\"4669\",\"39\",\"0\",\"Training\",\"Stims/Figures/84-C-20-2.bmp\",\"na:lala\",\"Left\",\"37\",\"6\",\"7\",\"4\",\"S\",\"J\",\"87\"
\"\",\"\",\"approach-retreat\",\"91\",\"740740\",\"0.0-91.0\",\"\",\"\",\"2-2\",\"4399\",\"39\",\"0\",\"Training\",\"Stims/Figures/7-C-20-4.bmp\",\"ma:ma:la\",\"Left\",\"37\",\"6\",\"8\",\"4\",\"S\",\"J\",\"88\"
\"\",\"\",\"approach-retreat\",\"92\",\"746813\",\"0.0-92.0\",\"\",\"\",\"2-2\",\"4563\",\"40\",\"0\",\"Training\",\"Stims/Figures/27-C-30-1.bmp\",\"na:ma:na\",\"Up\",\"38\",\"6\",\"9\",\"4\",\"S\",\"J\",\"89\"
\"\",\"\",\"approach-retreat\",\"93\",\"752974\",\"0.0-93.0\",\"\",\"\",\"2-2\",\"4650\",\"40\",\"1\",\"Training\",\"Stims/Figures/139-C-20-2.bmp\",\"namana\",\"Down\",\"40\",\"6\",\"10\",\"4\",\"S\",\"J\",\"90\"
\"\",\"\",\"approach-retreat\",\"94\",\"758833\",\"0.0-94.0\",\"\",\"\",\"2-2\",\"4351\",\"37\",\"0\",\"Training\",\"Stims/Figures/87-C-20-4.bmp\",\"nama:na\",\"Right\",\"39\",\"6\",\"11\",\"4\",\"S\",\"J\",\"91\"
\"\",\"\",\"approach-retreat\",\"95\",\"764506\",\"0.0-95.0\",\"\",\"\",\"2-2\",\"4164\",\"40\",\"0\",\"Training\",\"Stims/Figures/71-C-30-1.bmp\",\"nala:la\",\"Up\",\"38\",\"6\",\"12\",\"4\",\"S\",\"J\",\"92\"
\"\",\"\",\"approach-retreat\",\"96\",\"770537\",\"0.0-96.0\",\"\",\"\",\"2-2\",\"4525\",\"38\",\"1\",\"Training\",\"Stims/Figures/84-J-0-2.bmp\",\"taka:ka\",\"Down\",\"38\",\"6\",\"13\",\"4\",\"P\",\"J\",\"93\"
\"\",\"\",\"approach-retreat\",\"97\",\"776317\",\"0.0-97.0\",\"\",\"\",\"2-2\",\"4273\",\"38\",\"1\",\"Training\",\"Stims/Figures/87-J-10-4.bmp\",\"takaka\",\"Down\",\"38\",\"6\",\"14\",\"4\",\"P\",\"J\",\"94\"
\"\",\"\",\"approach-retreat\",\"98\",\"782217\",\"0.0-98.0\",\"\",\"\",\"2-2\",\"4391\",\"37\",\"0\",\"Training\",\"Stims/Figures/111-C-30-3.bmp\",\"ma:ma:na\",\"Right\",\"39\",\"6\",\"15\",\"4\",\"S\",\"J\",\"95\"
\"\",\"\",\"approach-retreat\",\"99\",\"788758\",\"0.0-99.0\",\"\",\"\",\"2-2\",\"5030\",\"40\",\"1\",\"Training\",\"Stims/Figures/128-J-10-3.bmp\",\"pa:ka:ka\",\"Up\",\"40\",\"6\",\"16\",\"4\",\"P\",\"J\",\"96\"
\"\",\"\",\"approach-retreat\",\"100\",\"794803\",\"0.0-100.0\",\"\",\"\",\"2-2\",\"4534\",\"37\",\"0\",\"Training\",\"Stims/Figures/71-C-30-1.bmp\",\"nala:la\",\"Right\",\"39\",\"7\",\"1\",\"4\",\"S\",\"J\",\"97\"
\"\",\"\",\"approach-retreat\",\"101\",\"801254\",\"0.0-101.0\",\"\",\"\",\"2-2\",\"4943\",\"39\",\"1\",\"Training\",\"Stims/Figures/71-J-0-1.bmp\",\"ta:kata\",\"Left\",\"39\",\"7\",\"2\",\"4\",\"P\",\"J\",\"98\"
\"\",\"\",\"approach-retreat\",\"102\",\"807233\",\"0.0-102.0\",\"\",\"\",\"2-2\",\"4468\",\"38\",\"0\",\"Training\",\"Stims/Figures/84-J-0-2.bmp\",\"taka:ka\",\"Up\",\"40\",\"7\",\"3\",\"4\",\"P\",\"J\",\"99\"
\"\",\"\",\"approach-retreat\",\"103\",\"813081\",\"0.0-103.0\",\"\",\"\",\"2-2\",\"4339\",\"38\",\"0\",\"Training\",\"Stims/Figures/87-C-20-4.bmp\",\"nama:na\",\"Down\",\"40\",\"7\",\"4\",\"4\",\"S\",\"J\",\"100\"
\"\",\"\",\"approach-retreat\",\"104\",\"819127\",\"0.0-104.0\",\"\",\"\",\"2-2\",\"4534\",\"38\",\"0\",\"Training\",\"Stims/Figures/111-C-30-3.bmp\",\"ma:ma:na\",\"Down\",\"40\",\"7\",\"5\",\"4\",\"S\",\"J\",\"101\"
\"\",\"\",\"approach-retreat\",\"105\",\"825480\",\"0.0-105.0\",\"\",\"\",\"2-2\",\"4844\",\"40\",\"0\",\"Training\",\"Stims/Figures/139-C-20-2.bmp\",\"namana\",\"Up\",\"38\",\"7\",\"6\",\"4\",\"S\",\"J\",\"102\"
\"\",\"\",\"approach-retreat\",\"106\",\"832553\",\"0.0-106.0\",\"\",\"\",\"2-2\",\"5564\",\"37\",\"1\",\"Training\",\"Stims/Figures/128-J-10-3.bmp\",\"pa:ka:ka\",\"Right\",\"37\",\"7\",\"7\",\"4\",\"P\",\"J\",\"103\"
\"\",\"\",\"approach-retreat\",\"107\",\"838709\",\"0.0-107.0\",\"\",\"\",\"2-2\",\"4647\",\"40\",\"1\",\"Training\",\"Stims/Figures/139-J-0-2.bmp\",\"ta:pa:ka\",\"Up\",\"40\",\"7\",\"8\",\"4\",\"P\",\"J\",\"104\"
\"\",\"\",\"approach-retreat\",\"108\",\"844809\",\"0.0-108.0\",\"\",\"\",\"2-2\",\"4590\",\"40\",\"1\",\"Training\",\"Stims/Figures/84-C-20-2.bmp\",\"na:lala\",\"Down\",\"40\",\"7\",\"9\",\"4\",\"S\",\"J\",\"105\"
\"\",\"\",\"approach-retreat\",\"109\",\"850583\",\"0.0-109.0\",\"\",\"\",\"2-2\",\"4263\",\"37\",\"1\",\"Training\",\"Stims/Figures/87-J-10-4.bmp\",\"takaka\",\"Right\",\"37\",\"7\",\"10\",\"4\",\"P\",\"J\",\"106\"
\"\",\"\",\"approach-retreat\",\"110\",\"856017\",\"0.0-110.0\",\"\",\"\",\"2-2\",\"3926\",\"37\",\"1\",\"Training\",\"Stims/Figures/111-J-10-3.bmp\",\"paka:ta\",\"Right\",\"37\",\"7\",\"11\",\"4\",\"P\",\"J\",\"107\"
\"\",\"\",\"approach-retreat\",\"111\",\"862583\",\"0.0-111.0\",\"\",\"\",\"2-2\",\"5056\",\"37\",\"0\",\"Training\",\"Stims/Figures/7-J-10-4.bmp\",\"pa:pa:ta\",\"Left\",\"39\",\"7\",\"12\",\"4\",\"P\",\"J\",\"108\"
\"\",\"\",\"approach-retreat\",\"112\",\"868431\",\"0.0-112.0\",\"\",\"\",\"2-2\",\"4339\",\"38\",\"1\",\"Training\",\"Stims/Figures/27-J-0-1.bmp\",\"tapata\",\"Down\",\"38\",\"7\",\"13\",\"4\",\"P\",\"J\",\"109\"
\"\",\"\",\"approach-retreat\",\"113\",\"874278\",\"0.0-113.0\",\"\",\"\",\"2-2\",\"4338\",\"37\",\"1\",\"Training\",\"Stims/Figures/27-C-30-1.bmp\",\"na:ma:na\",\"Left\",\"37\",\"7\",\"14\",\"4\",\"S\",\"J\",\"110\"
\"\",\"\",\"approach-retreat\",\"114\",\"881690\",\"0.0-114.0\",\"\",\"\",\"2-2\",\"5904\",\"40\",\"0\",\"Training\",\"Stims/Figures/128-C-30-3.bmp\",\"ma:la:na\",\"Up\",\"38\",\"7\",\"15\",\"4\",\"S\",\"J\",\"111\"
\"\",\"\",\"approach-retreat\",\"115\",\"889281\",\"0.0-115.0\",\"\",\"\",\"2-2\",\"6082\",\"37\",\"1\",\"Training\",\"Stims/Figures/7-C-20-4.bmp\",\"ma:ma:la\",\"Left\",\"37\",\"7\",\"16\",\"4\",\"S\",\"J\",\"112\"
\"\",\"\",\"approach-retreat\",\"116\",\"895196\",\"0.0-116.0\",\"\",\"\",\"2-2\",\"4404\",\"39\",\"1\",\"Training\",\"Stims/Figures/128-J-10-3.bmp\",\"pa:ka:ka\",\"Left\",\"39\",\"8\",\"1\",\"4\",\"P\",\"J\",\"113\"
\"\",\"\",\"approach-retreat\",\"117\",\"901534\",\"0.0-117.0\",\"\",\"\",\"2-2\",\"4828\",\"38\",\"1\",\"Training\",\"Stims/Figures/139-C-20-2.bmp\",\"namana\",\"Up\",\"38\",\"8\",\"2\",\"4\",\"S\",\"J\",\"114\"
\"\",\"\",\"approach-retreat\",\"118\",\"907700\",\"0.0-118.0\",\"\",\"\",\"2-2\",\"4657\",\"37\",\"1\",\"Training\",\"Stims/Figures/128-C-30-3.bmp\",\"ma:la:na\",\"Left\",\"37\",\"8\",\"3\",\"4\",\"S\",\"J\",\"115\"
\"\",\"\",\"approach-retreat\",\"119\",\"913989\",\"0.0-119.0\",\"\",\"\",\"2-2\",\"4780\",\"38\",\"1\",\"Training\",\"Stims/Figures/84-C-20-2.bmp\",\"na:lala\",\"Up\",\"38\",\"8\",\"4\",\"4\",\"S\",\"J\",\"116\"
\"\",\"\",\"approach-retreat\",\"120\",\"919716\",\"0.0-120.0\",\"\",\"\",\"2-2\",\"4218\",\"37\",\"1\",\"Training\",\"Stims/Figures/87-C-20-4.bmp\",\"nama:na\",\"Left\",\"37\",\"8\",\"5\",\"4\",\"S\",\"J\",\"117\"
\"\",\"\",\"approach-retreat\",\"121\",\"925568\",\"0.0-121.0\",\"\",\"\",\"2-2\",\"4346\",\"38\",\"1\",\"Training\",\"Stims/Figures/27-J-0-1.bmp\",\"tapata\",\"Down\",\"38\",\"8\",\"6\",\"4\",\"P\",\"J\",\"118\"
\"\",\"\",\"approach-retreat\",\"122\",\"931553\",\"0.0-122.0\",\"\",\"\",\"2-2\",\"4478\",\"40\",\"1\",\"Training\",\"Stims/Figures/139-J-0-2.bmp\",\"ta:pa:ka\",\"Up\",\"40\",\"8\",\"7\",\"4\",\"P\",\"J\",\"119\"
\"\",\"\",\"approach-retreat\",\"123\",\"937402\",\"0.0-123.0\",\"\",\"\",\"2-2\",\"4339\",\"40\",\"1\",\"Training\",\"Stims/Figures/87-J-10-4.bmp\",\"takaka\",\"Up\",\"40\",\"8\",\"8\",\"4\",\"P\",\"J\",\"120\"
\"\",\"\",\"approach-retreat\",\"124\",\"943118\",\"0.0-124.0\",\"\",\"\",\"2-2\",\"4209\",\"37\",\"1\",\"Training\",\"Stims/Figures/84-J-0-2.bmp\",\"taka:ka\",\"Right\",\"37\",\"8\",\"9\",\"4\",\"P\",\"J\",\"121\"
\"\",\"\",\"approach-retreat\",\"125\",\"949503\",\"0.0-125.0\",\"\",\"\",\"2-2\",\"4877\",\"38\",\"1\",\"Training\",\"Stims/Figures/111-J-10-3.bmp\",\"paka:ta\",\"Down\",\"38\",\"8\",\"10\",\"4\",\"P\",\"J\",\"122\"
\"\",\"\",\"approach-retreat\",\"126\",\"955757\",\"0.0-126.0\",\"\",\"\",\"2-2\",\"4741\",\"39\",\"1\",\"Training\",\"Stims/Figures/27-C-30-1.bmp\",\"na:ma:na\",\"Right\",\"39\",\"8\",\"11\",\"4\",\"S\",\"J\",\"123\"
\"\",\"\",\"approach-retreat\",\"127\",\"961805\",\"0.0-127.0\",\"\",\"\",\"2-2\",\"4538\",\"40\",\"1\",\"Training\",\"Stims/Figures/111-C-30-3.bmp\",\"ma:ma:na\",\"Down\",\"40\",\"8\",\"12\",\"4\",\"S\",\"J\",\"124\"
\"\",\"\",\"approach-retreat\",\"128\",\"968023\",\"0.0-128.0\",\"\",\"\",\"2-2\",\"4707\",\"38\",\"1\",\"Training\",\"Stims/Figures/7-J-10-4.bmp\",\"pa:pa:ta\",\"Down\",\"38\",\"8\",\"13\",\"4\",\"P\",\"J\",\"125\"
\"\",\"\",\"approach-retreat\",\"129\",\"974214\",\"0.0-129.0\",\"\",\"\",\"2-2\",\"4683\",\"39\",\"1\",\"Training\",\"Stims/Figures/71-C-30-1.bmp\",\"nala:la\",\"Right\",\"39\",\"8\",\"14\",\"4\",\"S\",\"J\",\"126\"
\"\",\"\",\"approach-retreat\",\"130\",\"980049\",\"0.0-130.0\",\"\",\"\",\"2-2\",\"4324\",\"39\",\"1\",\"Training\",\"Stims/Figures/71-J-0-1.bmp\",\"ta:kata\",\"Left\",\"39\",\"8\",\"15\",\"4\",\"P\",\"J\",\"127\"
\"\",\"\",\"approach-retreat\",\"131\",\"986605\",\"0.0-131.0\",\"\",\"\",\"2-2\",\"5046\",\"39\",\"1\",\"Training\",\"Stims/Figures/7-C-20-4.bmp\",\"ma:ma:la\",\"Right\",\"39\",\"8\",\"16\",\"4\",\"S\",\"J\",\"128\"
\"\",\"\",\"approach-retreat\",\"132\",\"992396\",\"0.0-132.0\",\"\",\"\",\"2-2\",\"4283\",\"37\",\"1\",\"Training\",\"Stims/Figures/139-J-0-2.bmp\",\"ta:pa:ka\",\"Right\",\"37\",\"9\",\"1\",\"4\",\"P\",\"J\",\"129\"
\"\",\"\",\"approach-retreat\",\"133\",\"998206\",\"0.0-133.0\",\"\",\"\",\"2-2\",\"4302\",\"39\",\"1\",\"Training\",\"Stims/Figures/87-J-10-4.bmp\",\"takaka\",\"Left\",\"39\",\"9\",\"2\",\"4\",\"P\",\"J\",\"130\"
\"\",\"\",\"approach-retreat\",\"134\",\"1004057\",\"0.0-134.0\",\"\",\"\",\"2-2\",\"4339\",\"38\",\"1\",\"Training\",\"Stims/Figures/128-J-10-3.bmp\",\"pa:ka:ka\",\"Down\",\"38\",\"9\",\"3\",\"4\",\"P\",\"J\",\"131\"
\"\",\"\",\"approach-retreat\",\"135\",\"1010568\",\"0.0-135.0\",\"\",\"\",\"2-2\",\"5003\",\"39\",\"1\",\"Training\",\"Stims/Figures/128-C-30-3.bmp\",\"ma:la:na\",\"Right\",\"39\",\"9\",\"4\",\"4\",\"S\",\"J\",\"132\"
\"\",\"\",\"approach-retreat\",\"136\",\"1016583\",\"0.0-136.0\",\"\",\"\",\"2-2\",\"4508\",\"37\",\"1\",\"Training\",\"Stims/Figures/27-C-30-1.bmp\",\"na:ma:na\",\"Left\",\"37\",\"9\",\"5\",\"4\",\"S\",\"J\",\"133\"
\"\",\"\",\"approach-retreat\",\"137\",\"1022920\",\"0.0-137.0\",\"\",\"\",\"2-2\",\"4828\",\"39\",\"1\",\"Training\",\"Stims/Figures/84-C-20-2.bmp\",\"na:lala\",\"Right\",\"39\",\"9\",\"6\",\"4\",\"S\",\"J\",\"134\"
\"\",\"\",\"approach-retreat\",\"138\",\"1029691\",\"0.0-138.0\",\"\",\"\",\"2-2\",\"5261\",\"37\",\"1\",\"Training\",\"Stims/Figures/111-C-30-3.bmp\",\"ma:ma:na\",\"Left\",\"37\",\"9\",\"7\",\"4\",\"S\",\"J\",\"135\"
\"\",\"\",\"approach-retreat\",\"139\",\"1035746\",\"0.0-139.0\",\"\",\"\",\"2-2\",\"4546\",\"40\",\"1\",\"Training\",\"Stims/Figures/71-J-0-1.bmp\",\"ta:kata\",\"Up\",\"40\",\"9\",\"8\",\"4\",\"P\",\"J\",\"136\"
\"\",\"\",\"approach-retreat\",\"140\",\"1041298\",\"0.0-140.0\",\"\",\"\",\"2-2\",\"4040\",\"40\",\"1\",\"Training\",\"Stims/Figures/84-J-0-2.bmp\",\"taka:ka\",\"Up\",\"40\",\"9\",\"9\",\"4\",\"P\",\"J\",\"137\"
\"\",\"\",\"approach-retreat\",\"141\",\"1048338\",\"0.0-141.0\",\"\",\"\",\"2-2\",\"5532\",\"38\",\"1\",\"Training\",\"Stims/Figures/87-C-20-4.bmp\",\"nama:na\",\"Up\",\"38\",\"9\",\"10\",\"4\",\"S\",\"J\",\"138\"
\"\",\"\",\"approach-retreat\",\"142\",\"1054264\",\"0.0-142.0\",\"\",\"\",\"2-2\",\"4416\",\"38\",\"1\",\"Training\",\"Stims/Figures/27-J-0-1.bmp\",\"tapata\",\"Down\",\"38\",\"9\",\"11\",\"4\",\"P\",\"J\",\"139\"
\"\",\"\",\"approach-retreat\",\"143\",\"1060667\",\"0.0-143.0\",\"\",\"\",\"2-2\",\"4896\",\"40\",\"1\",\"Training\",\"Stims/Figures/71-C-30-1.bmp\",\"nala:la\",\"Down\",\"40\",\"9\",\"12\",\"4\",\"S\",\"J\",\"140\"
\"\",\"\",\"approach-retreat\",\"144\",\"1067523\",\"0.0-144.0\",\"\",\"\",\"2-2\",\"5346\",\"39\",\"0\",\"Training\",\"Stims/Figures/7-J-10-4.bmp\",\"pa:pa:ta\",\"Right\",\"37\",\"9\",\"13\",\"4\",\"P\",\"J\",\"141\"
\"\",\"\",\"approach-retreat\",\"145\",\"1073527\",\"0.0-145.0\",\"\",\"\",\"2-2\",\"4497\",\"37\",\"1\",\"Training\",\"Stims/Figures/139-C-20-2.bmp\",\"namana\",\"Left\",\"37\",\"9\",\"14\",\"4\",\"S\",\"J\",\"142\"
\"\",\"\",\"approach-retreat\",\"146\",\"1080078\",\"0.0-146.0\",\"\",\"\",\"2-2\",\"5044\",\"38\",\"1\",\"Training\",\"Stims/Figures/7-C-20-4.bmp\",\"ma:ma:la\",\"Up\",\"38\",\"9\",\"15\",\"4\",\"S\",\"J\",\"143\"
\"\",\"\",\"approach-retreat\",\"147\",\"1086202\",\"0.0-147.0\",\"\",\"\",\"2-2\",\"4615\",\"38\",\"1\",\"Training\",\"Stims/Figures/111-J-10-3.bmp\",\"paka:ta\",\"Down\",\"38\",\"9\",\"16\",\"4\",\"P\",\"J\",\"144\"
\"13618\",\"\",\"instructions\",\"148\",\"1099820\",\"0.0-148.0\",\"[{\"\"page_index\"\":0,\"\"viewing_time\"\":13618}]\",\"\",\"\",\"\",\"\",\"\",\"\",\"\",\"\",\"\",\"\",\"\",\"\",\"\",\"\",\"\",\"\"
\"\",\"\",\"approach-retreat\",\"149\",\"1107236\",\"0.0-149.0\",\"\",\"\",\"2-2\",\"5907\",\"40\",\"0\",\"Testing\",\"Stims/Figures/94-J-0-2.bmp\",\"takata\",\"Down\",\"38\",\"1\",\"1\",\"4\",\"P\",\"J\",\"1\"
\"\",\"\",\"approach-retreat\",\"150\",\"1118058\",\"0.0-150.0\",\"\",\"\",\"2-2\",\"9312\",\"40\",\"1\",\"Testing\",\"Stims/Figures/144-C-30-3.bmp\",\"nalala\",\"Down\",\"40\",\"1\",\"2\",\"4\",\"S\",\"J\",\"2\"
\"\",\"\",\"approach-retreat\",\"151\",\"1126919\",\"0.0-151.0\",\"\",\"\",\"2-2\",\"7351\",\"40\",\"0\",\"Testing\",\"Stims/Figures/7-C-20-4.bmp\",\"ma:ma:la\",\"Up\",\"38\",\"1\",\"3\",\"4\",\"S\",\"J\",\"3\"
\"\",\"\",\"approach-retreat\",\"152\",\"1135765\",\"0.0-152.0\",\"\",\"\",\"2-2\",\"7338\",\"38\",\"1\",\"Testing\",\"Stims/Figures/128-C-30-3.bmp\",\"ma:la:na\",\"Up\",\"38\",\"1\",\"4\",\"4\",\"S\",\"J\",\"4\"
\"\",\"\",\"approach-retreat\",\"153\",\"1142195\",\"0.0-153.0\",\"\",\"\",\"2-2\",\"4923\",\"39\",\"0\",\"Testing\",\"Stims/Figures/84-C-20-2.bmp\",\"na:lala\",\"Left\",\"37\",\"1\",\"5\",\"4\",\"S\",\"J\",\"5\"
\"\",\"\",\"approach-retreat\",\"154\",\"1148135\",\"0.0-154.0\",\"\",\"\",\"2-2\",\"4431\",\"39\",\"0\",\"Testing\",\"Stims/Figures/111-C-30-3.bmp\",\"ma:ma:na\",\"Left\",\"37\",\"1\",\"6\",\"4\",\"S\",\"J\",\"6\"
\"\",\"\",\"approach-retreat\",\"155\",\"1154028\",\"0.0-155.0\",\"\",\"\",\"2-2\",\"4388\",\"38\",\"1\",\"Testing\",\"Stims/Figures/74-J-10-4.bmp\",\"tapa:ta\",\"Down\",\"38\",\"1\",\"7\",\"4\",\"P\",\"J\",\"7\"
\"\",\"\",\"approach-retreat\",\"156\",\"1159784\",\"0.0-156.0\",\"\",\"\",\"2-2\",\"4250\",\"37\",\"1\",\"Testing\",\"Stims/Figures/128-J-10-3.bmp\",\"pa:ka:ka\",\"Right\",\"37\",\"1\",\"8\",\"4\",\"P\",\"J\",\"8\"
\"\",\"\",\"approach-retreat\",\"157\",\"1165574\",\"0.0-157.0\",\"\",\"\",\"2-2\",\"4283\",\"37\",\"1\",\"Testing\",\"Stims/Figures/93-C-30-1.bmp\",\"ma:lana\",\"Left\",\"37\",\"1\",\"9\",\"4\",\"S\",\"J\",\"9\"
\"\",\"\",\"approach-retreat\",\"158\",\"1171661\",\"0.0-158.0\",\"\",\"\",\"2-2\",\"4581\",\"39\",\"0\",\"Testing\",\"Stims/Figures/71-J-0-1.bmp\",\"ta:kata\",\"Right\",\"37\",\"1\",\"10\",\"4\",\"P\",\"J\",\"10\"
\"\",\"\",\"approach-retreat\",\"159\",\"1178536\",\"0.0-159.0\",\"\",\"\",\"2-2\",\"5368\",\"39\",\"1\",\"Testing\",\"Stims/Figures/94-C-20-2.bmp\",\"ma:lala\",\"Right\",\"39\",\"1\",\"11\",\"4\",\"S\",\"J\",\"11\"
\"\",\"\",\"approach-retreat\",\"160\",\"1184443\",\"0.0-160.0\",\"\",\"\",\"2-2\",\"4396\",\"37\",\"1\",\"Testing\",\"Stims/Figures/84-J-0-2.bmp\",\"taka:ka\",\"Right\",\"37\",\"1\",\"12\",\"4\",\"P\",\"J\",\"12\"
\"\",\"\",\"approach-retreat\",\"161\",\"1190283\",\"0.0-161.0\",\"\",\"\",\"2-2\",\"4332\",\"38\",\"1\",\"Testing\",\"Stims/Figures/87-C-20-4.bmp\",\"nama:na\",\"Up\",\"38\",\"1\",\"13\",\"4\",\"S\",\"J\",\"13\"
\"\",\"\",\"approach-retreat\",\"162\",\"1197675\",\"0.0-162.0\",\"\",\"\",\"2-2\",\"5884\",\"40\",\"1\",\"Testing\",\"Stims/Figures/111-J-10-3.bmp\",\"paka:ta\",\"Up\",\"40\",\"1\",\"14\",\"4\",\"P\",\"J\",\"14\"
\"\",\"\",\"approach-retreat\",\"163\",\"1203519\",\"0.0-163.0\",\"\",\"\",\"2-2\",\"4337\",\"38\",\"0\",\"Testing\",\"Stims/Figures/27-C-30-1.bmp\",\"na:ma:na\",\"Down\",\"40\",\"1\",\"15\",\"4\",\"S\",\"J\",\"15\"
\"\",\"\",\"approach-retreat\",\"164\",\"1211104\",\"0.0-164.0\",\"\",\"\",\"2-2\",\"6077\",\"37\",\"0\",\"Testing\",\"Stims/Figures/27-J-0-1.bmp\",\"tapata\",\"Left\",\"39\",\"1\",\"16\",\"4\",\"P\",\"J\",\"16\"
\"\",\"\",\"approach-retreat\",\"165\",\"1217566\",\"0.0-165.0\",\"\",\"\",\"2-2\",\"4950\",\"40\",\"0\",\"Testing\",\"Stims/Figures/93-J-0-1.bmp\",\"ta:paka\",\"Down\",\"38\",\"1\",\"17\",\"4\",\"P\",\"J\",\"17\"
\"\",\"\",\"approach-retreat\",\"166\",\"1223504\",\"0.0-166.0\",\"\",\"\",\"2-2\",\"4427\",\"38\",\"1\",\"Testing\",\"Stims/Figures/7-J-10-4.bmp\",\"pa:pa:ta\",\"Down\",\"38\",\"1\",\"18\",\"4\",\"P\",\"J\",\"18\"
\"\",\"\",\"approach-retreat\",\"167\",\"1229290\",\"0.0-167.0\",\"\",\"\",\"2-2\",\"4276\",\"37\",\"0\",\"Testing\",\"Stims/Figures/139-J-0-2.bmp\",\"ta:pa:ka\",\"Left\",\"39\",\"1\",\"19\",\"4\",\"P\",\"J\",\"19\"
\"\",\"\",\"approach-retreat\",\"168\",\"1237169\",\"0.0-168.0\",\"\",\"\",\"2-2\",\"6370\",\"38\",\"0\",\"Testing\",\"Stims/Figures/87-J-10-4.bmp\",\"takaka\",\"Up\",\"40\",\"1\",\"20\",\"4\",\"P\",\"J\",\"20\"
\"\",\"\",\"approach-retreat\",\"169\",\"1244301\",\"0.0-169.0\",\"\",\"\",\"2-2\",\"5623\",\"37\",\"1\",\"Testing\",\"Stims/Figures/139-C-20-2.bmp\",\"namana\",\"Left\",\"37\",\"1\",\"21\",\"4\",\"S\",\"J\",\"21\"
\"\",\"\",\"approach-retreat\",\"170\",\"1250111\",\"0.0-170.0\",\"\",\"\",\"2-2\",\"4303\",\"38\",\"0\",\"Testing\",\"Stims/Figures/144-J-10-3.bmp\",\"pa:pata\",\"Up\",\"40\",\"1\",\"22\",\"4\",\"P\",\"J\",\"22\"
\"\",\"\",\"approach-retreat\",\"171\",\"1256534\",\"0.0-171.0\",\"\",\"\",\"2-2\",\"4915\",\"39\",\"1\",\"Testing\",\"Stims/Figures/74-C-20-4.bmp\",\"mamala\",\"Right\",\"39\",\"1\",\"23\",\"4\",\"S\",\"J\",\"23\"
\"\",\"\",\"approach-retreat\",\"172\",\"1262283\",\"0.0-172.0\",\"\",\"\",\"2-2\",\"4241\",\"39\",\"1\",\"Testing\",\"Stims/Figures/71-C-30-1.bmp\",\"nala:la\",\"Right\",\"39\",\"1\",\"24\",\"4\",\"S\",\"J\",\"24\"
\"\",\"\",\"approach-retreat\",\"173\",\"1268775\",\"0.0-173.0\",\"\",\"\",\"2-2\",\"4984\",\"39\",\"1\",\"Testing\",\"Stims/Figures/7-J-10-4.bmp\",\"pa:pa:ta\",\"Left\",\"39\",\"2\",\"1\",\"4\",\"P\",\"J\",\"25\"
\"\",\"\",\"approach-retreat\",\"174\",\"1274638\",\"0.0-174.0\",\"\",\"\",\"2-2\",\"4355\",\"38\",\"0\",\"Testing\",\"Stims/Figures/7-C-20-4.bmp\",\"ma:ma:la\",\"Down\",\"40\",\"2\",\"2\",\"4\",\"S\",\"J\",\"26\"
\"\",\"\",\"approach-retreat\",\"175\",\"1280967\",\"0.0-175.0\",\"\",\"\",\"2-2\",\"4821\",\"40\",\"1\",\"Testing\",\"Stims/Figures/74-J-10-4.bmp\",\"tapa:ta\",\"Up\",\"40\",\"2\",\"3\",\"4\",\"P\",\"J\",\"27\"
\"\",\"\",\"approach-retreat\",\"176\",\"1287210\",\"0.0-176.0\",\"\",\"\",\"2-2\",\"4735\",\"40\",\"0\",\"Testing\",\"Stims/Figures/139-J-0-2.bmp\",\"ta:pa:ka\",\"Down\",\"38\",\"2\",\"4\",\"4\",\"P\",\"J\",\"28\"
\"\",\"\",\"approach-retreat\",\"177\",\"1293616\",\"0.0-177.0\",\"\",\"\",\"2-2\",\"4898\",\"38\",\"1\",\"Testing\",\"Stims/Figures/84-J-0-2.bmp\",\"taka:ka\",\"Down\",\"38\",\"2\",\"5\",\"4\",\"P\",\"J\",\"29\"
\"\",\"\",\"approach-retreat\",\"178\",\"1300334\",\"0.0-178.0\",\"\",\"\",\"2-2\",\"5209\",\"39\",\"1\",\"Testing\",\"Stims/Figures/128-J-10-3.bmp\",\"pa:ka:ka\",\"Left\",\"39\",\"2\",\"6\",\"4\",\"P\",\"J\",\"30\"
\"\",\"\",\"approach-retreat\",\"179\",\"1306135\",\"0.0-179.0\",\"\",\"\",\"2-2\",\"4293\",\"39\",\"1\",\"Testing\",\"Stims/Figures/87-J-10-4.bmp\",\"takaka\",\"Left\",\"39\",\"2\",\"7\",\"4\",\"P\",\"J\",\"31\"
\"\",\"\",\"approach-retreat\",\"180\",\"1312827\",\"0.0-180.0\",\"\",\"\",\"2-2\",\"5185\",\"38\",\"1\",\"Testing\",\"Stims/Figures/144-C-30-3.bmp\",\"nalala\",\"Up\",\"38\",\"2\",\"8\",\"4\",\"S\",\"J\",\"32\"
\"\",\"\",\"approach-retreat\",\"181\",\"1318994\",\"0.0-181.0\",\"\",\"\",\"2-2\",\"4661\",\"38\",\"0\",\"Testing\",\"Stims/Figures/27-J-0-1.bmp\",\"tapata\",\"Up\",\"40\",\"2\",\"9\",\"4\",\"P\",\"J\",\"33\"
\"\",\"\",\"approach-retreat\",\"182\",\"1326004\",\"0.0-182.0\",\"\",\"\",\"2-2\",\"5501\",\"40\",\"1\",\"Testing\",\"Stims/Figures/74-C-20-4.bmp\",\"mamala\",\"Down\",\"40\",\"2\",\"10\",\"4\",\"S\",\"J\",\"34\"
\"\",\"\",\"approach-retreat\",\"183\",\"1332887\",\"0.0-183.0\",\"\",\"\",\"2-2\",\"5379\",\"38\",\"1\",\"Testing\",\"Stims/Figures/27-C-30-1.bmp\",\"na:ma:na\",\"Up\",\"38\",\"2\",\"11\",\"4\",\"S\",\"J\",\"35\"
\"\",\"\",\"approach-retreat\",\"184\",\"1340339\",\"0.0-184.0\",\"\",\"\",\"2-2\",\"5947\",\"37\",\"0\",\"Testing\",\"Stims/Figures/84-C-20-2.bmp\",\"na:lala\",\"Right\",\"39\",\"2\",\"12\",\"4\",\"S\",\"J\",\"36\"
\"\",\"\",\"approach-retreat\",\"185\",\"1346009\",\"0.0-185.0\",\"\",\"\",\"2-2\",\"4163\",\"37\",\"1\",\"Testing\",\"Stims/Figures/144-J-10-3.bmp\",\"pa:pata\",\"Right\",\"37\",\"2\",\"13\",\"4\",\"P\",\"J\",\"37\"
\"\",\"\",\"approach-retreat\",\"186\",\"1351727\",\"0.0-186.0\",\"\",\"\",\"2-2\",\"4217\",\"39\",\"0\",\"Testing\",\"Stims/Figures/71-J-0-1.bmp\",\"ta:kata\",\"Right\",\"37\",\"2\",\"14\",\"4\",\"P\",\"J\",\"38\"
\"\",\"\",\"approach-retreat\",\"187\",\"1357850\",\"0.0-187.0\",\"\",\"\",\"2-2\",\"4616\",\"39\",\"0\",\"Testing\",\"Stims/Figures/87-C-20-4.bmp\",\"nama:na\",\"Left\",\"37\",\"2\",\"15\",\"4\",\"S\",\"J\",\"39\"
\"\",\"\",\"approach-retreat\",\"188\",\"1363915\",\"0.0-188.0\",\"\",\"\",\"2-2\",\"4558\",\"38\",\"1\",\"Testing\",\"Stims/Figures/111-J-10-3.bmp\",\"paka:ta\",\"Down\",\"38\",\"2\",\"16\",\"4\",\"P\",\"J\",\"40\"
\"\",\"\",\"approach-retreat\",\"189\",\"1370101\",\"0.0-189.0\",\"\",\"\",\"2-2\",\"4680\",\"39\",\"1\",\"Testing\",\"Stims/Figures/94-C-20-2.bmp\",\"ma:lala\",\"Right\",\"39\",\"2\",\"17\",\"4\",\"S\",\"J\",\"41\"
\"\",\"\",\"approach-retreat\",\"190\",\"1376563\",\"0.0-190.0\",\"\",\"\",\"2-2\",\"4957\",\"38\",\"0\",\"Testing\",\"Stims/Figures/93-J-0-1.bmp\",\"ta:paka\",\"Up\",\"40\",\"2\",\"18\",\"4\",\"P\",\"J\",\"42\"
\"\",\"\",\"approach-retreat\",\"191\",\"1384259\",\"0.0-191.0\",\"\",\"\",\"2-2\",\"6188\",\"39\",\"0\",\"Testing\",\"Stims/Figures/94-J-0-2.bmp\",\"takata\",\"Right\",\"37\",\"2\",\"19\",\"4\",\"P\",\"J\",\"43\"
\"\",\"\",\"approach-retreat\",\"192\",\"1390718\",\"0.0-192.0\",\"\",\"\",\"2-2\",\"4947\",\"39\",\"1\",\"Testing\",\"Stims/Figures/139-C-20-2.bmp\",\"namana\",\"Right\",\"39\",\"2\",\"20\",\"4\",\"S\",\"J\",\"44\"
\"\",\"\",\"approach-retreat\",\"193\",\"1397515\",\"0.0-193.0\",\"\",\"\",\"2-2\",\"5288\",\"39\",\"0\",\"Testing\",\"Stims/Figures/128-C-30-3.bmp\",\"ma:la:na\",\"Left\",\"37\",\"2\",\"21\",\"4\",\"S\",\"J\",\"45\"
\"\",\"\",\"approach-retreat\",\"194\",\"1404116\",\"0.0-194.0\",\"\",\"\",\"2-2\",\"5097\",\"37\",\"1\",\"Testing\",\"Stims/Figures/71-C-30-1.bmp\",\"nala:la\",\"Left\",\"37\",\"2\",\"22\",\"4\",\"S\",\"J\",\"46\"
\"\",\"\",\"approach-retreat\",\"195\",\"1410220\",\"0.0-195.0\",\"\",\"\",\"2-2\",\"4597\",\"38\",\"1\",\"Testing\",\"Stims/Figures/93-C-30-1.bmp\",\"ma:lana\",\"Up\",\"38\",\"2\",\"23\",\"4\",\"S\",\"J\",\"47\"
\"\",\"\",\"approach-retreat\",\"196\",\"1416208\",\"0.0-196.0\",\"\",\"\",\"2-2\",\"4480\",\"40\",\"1\",\"Testing\",\"Stims/Figures/111-C-30-3.bmp\",\"ma:ma:na\",\"Down\",\"40\",\"2\",\"24\",\"4\",\"S\",\"J\",\"48\"
\"\",\"\",\"approach-retreat\",\"197\",\"1425520\",\"0.0-197.0\",\"\",\"\",\"2-2\",\"7805\",\"40\",\"1\",\"Testing\",\"Stims/Figures/144-C-30-3.bmp\",\"nalala\",\"Down\",\"40\",\"3\",\"1\",\"4\",\"S\",\"J\",\"49\"
\"\",\"\",\"approach-retreat\",\"198\",\"1437127\",\"0.0-198.0\",\"\",\"\",\"2-2\",\"10099\",\"40\",\"1\",\"Testing\",\"Stims/Figures/7-J-10-4.bmp\",\"pa:pa:ta\",\"Up\",\"40\",\"3\",\"2\",\"4\",\"P\",\"J\",\"50\"
\"\",\"\",\"approach-retreat\",\"199\",\"1444879\",\"0.0-199.0\",\"\",\"\",\"2-2\",\"6246\",\"39\",\"1\",\"Testing\",\"Stims/Figures/94-C-20-2.bmp\",\"ma:lala\",\"Right\",\"39\",\"3\",\"3\",\"4\",\"S\",\"J\",\"51\"
\"\",\"\",\"approach-retreat\",\"200\",\"1451567\",\"0.0-200.0\",\"\",\"\",\"2-2\",\"5179\",\"37\",\"0\",\"Testing\",\"Stims/Figures/111-C-30-3.bmp\",\"ma:ma:na\",\"Right\",\"39\",\"3\",\"4\",\"4\",\"S\",\"J\",\"52\"
\"\",\"\",\"approach-retreat\",\"201\",\"1457326\",\"0.0-201.0\",\"\",\"\",\"2-2\",\"4251\",\"40\",\"1\",\"Testing\",\"Stims/Figures/111-J-10-3.bmp\",\"paka:ta\",\"Up\",\"40\",\"3\",\"5\",\"4\",\"P\",\"J\",\"53\"
\"\",\"\",\"approach-retreat\",\"202\",\"1463290\",\"0.0-202.0\",\"\",\"\",\"2-2\",\"4454\",\"38\",\"1\",\"Testing\",\"Stims/Figures/84-J-0-2.bmp\",\"taka:ka\",\"Down\",\"38\",\"3\",\"6\",\"4\",\"P\",\"J\",\"54\"
\"\",\"\",\"approach-retreat\",\"203\",\"1469034\",\"0.0-203.0\",\"\",\"\",\"2-2\",\"4237\",\"37\",\"0\",\"Testing\",\"Stims/Figures/84-C-20-2.bmp\",\"na:lala\",\"Right\",\"39\",\"3\",\"7\",\"4\",\"S\",\"J\",\"55\"
\"\",\"\",\"approach-retreat\",\"204\",\"1474586\",\"0.0-204.0\",\"\",\"\",\"2-2\",\"4044\",\"39\",\"0\",\"Testing\",\"Stims/Figures/74-C-20-4.bmp\",\"mamala\",\"Left\",\"37\",\"3\",\"8\",\"4\",\"S\",\"J\",\"56\"
\"\",\"\",\"approach-retreat\",\"205\",\"1480255\",\"0.0-205.0\",\"\",\"\",\"2-2\",\"4161\",\"39\",\"0\",\"Testing\",\"Stims/Figures/93-C-30-1.bmp\",\"ma:lana\",\"Left\",\"37\",\"3\",\"9\",\"4\",\"S\",\"J\",\"57\"
\"\",\"\",\"approach-retreat\",\"206\",\"1486660\",\"0.0-206.0\",\"\",\"\",\"2-2\",\"4896\",\"38\",\"1\",\"Testing\",\"Stims/Figures/74-J-10-4.bmp\",\"tapa:ta\",\"Down\",\"38\",\"3\",\"10\",\"4\",\"P\",\"J\",\"58\"
\"\",\"\",\"approach-retreat\",\"207\",\"1492659\",\"0.0-207.0\",\"\",\"\",\"2-2\",\"4492\",\"40\",\"1\",\"Testing\",\"Stims/Figures/27-J-0-1.bmp\",\"tapata\",\"Up\",\"40\",\"3\",\"11\",\"4\",\"P\",\"J\",\"59\"
\"\",\"\",\"approach-retreat\",\"208\",\"1498488\",\"0.0-208.0\",\"\",\"\",\"2-2\",\"4322\",\"39\",\"0\",\"Testing\",\"Stims/Figures/27-C-30-1.bmp\",\"na:ma:na\",\"Left\",\"37\",\"3\",\"12\",\"4\",\"S\",\"J\",\"60\"
\"\",\"\",\"approach-retreat\",\"209\",\"1505265\",\"0.0-209.0\",\"\",\"\",\"2-2\",\"5271\",\"40\",\"1\",\"Testing\",\"Stims/Figures/94-J-0-2.bmp\",\"takata\",\"Up\",\"40\",\"3\",\"13\",\"4\",\"P\",\"J\",\"61\"
\"\",\"\",\"approach-retreat\",\"210\",\"1512513\",\"0.0-210.0\",\"\",\"\",\"2-2\",\"5740\",\"38\",\"0\",\"Testing\",\"Stims/Figures/7-C-20-4.bmp\",\"ma:ma:la\",\"Down\",\"40\",\"3\",\"14\",\"4\",\"S\",\"J\",\"62\"
\"\",\"\",\"approach-retreat\",\"211\",\"1519150\",\"0.0-211.0\",\"\",\"\",\"2-2\",\"5128\",\"40\",\"0\",\"Testing\",\"Stims/Figures/71-C-30-1.bmp\",\"nala:la\",\"Up\",\"38\",\"3\",\"15\",\"4\",\"S\",\"J\",\"63\"
\"\",\"\",\"approach-retreat\",\"212\",\"1526975\",\"0.0-212.0\",\"\",\"\",\"2-2\",\"6316\",\"39\",\"1\",\"Testing\",\"Stims/Figures/139-J-0-2.bmp\",\"ta:pa:ka\",\"Left\",\"39\",\"3\",\"16\",\"4\",\"P\",\"J\",\"64\"
\"\",\"\",\"approach-retreat\",\"213\",\"1532754\",\"0.0-213.0\",\"\",\"\",\"2-2\",\"4270\",\"38\",\"1\",\"Testing\",\"Stims/Figures/87-J-10-4.bmp\",\"takaka\",\"Down\",\"38\",\"3\",\"17\",\"4\",\"P\",\"J\",\"65\"
\"\",\"\",\"approach-retreat\",\"214\",\"1539155\",\"0.0-214.0\",\"\",\"\",\"2-2\",\"4893\",\"37\",\"1\",\"Testing\",\"Stims/Figures/93-J-0-1.bmp\",\"ta:paka\",\"Right\",\"37\",\"3\",\"18\",\"4\",\"P\",\"J\",\"66\"
\"\",\"\",\"approach-retreat\",\"215\",\"1545260\",\"0.0-215.0\",\"\",\"\",\"2-2\",\"4598\",\"38\",\"0\",\"Testing\",\"Stims/Figures/144-J-10-3.bmp\",\"pa:pata\",\"Up\",\"40\",\"3\",\"19\",\"4\",\"P\",\"J\",\"67\"
\"\",\"\",\"approach-retreat\",\"216\",\"1551200\",\"0.0-216.0\",\"\",\"\",\"2-2\",\"4433\",\"37\",\"1\",\"Testing\",\"Stims/Figures/139-C-20-2.bmp\",\"namana\",\"Left\",\"37\",\"3\",\"20\",\"4\",\"S\",\"J\",\"68\"
\"\",\"\",\"approach-retreat\",\"217\",\"1557426\",\"0.0-217.0\",\"\",\"\",\"2-2\",\"4715\",\"40\",\"0\",\"Testing\",\"Stims/Figures/71-J-0-1.bmp\",\"ta:kata\",\"Down\",\"38\",\"3\",\"21\",\"4\",\"P\",\"J\",\"69\"
\"\",\"\",\"approach-retreat\",\"218\",\"1564688\",\"0.0-218.0\",\"\",\"\",\"2-2\",\"5756\",\"37\",\"0\",\"Testing\",\"Stims/Figures/87-C-20-4.bmp\",\"nama:na\",\"Right\",\"39\",\"3\",\"22\",\"4\",\"S\",\"J\",\"70\"
\"\",\"\",\"approach-retreat\",\"219\",\"1570941\",\"0.0-219.0\",\"\",\"\",\"2-2\",\"4744\",\"37\",\"0\",\"Testing\",\"Stims/Figures/128-C-30-3.bmp\",\"ma:la:na\",\"Right\",\"39\",\"3\",\"23\",\"4\",\"S\",\"J\",\"71\"
\"\",\"\",\"approach-retreat\",\"220\",\"1577335\",\"0.0-220.0\",\"\",\"\",\"2-2\",\"4887\",\"39\",\"1\",\"Testing\",\"Stims/Figures/128-J-10-3.bmp\",\"pa:ka:ka\",\"Left\",\"39\",\"3\",\"24\",\"4\",\"P\",\"J\",\"72\"
\"\",\"\",\"approach-retreat\",\"221\",\"1582951\",\"0.0-221.0\",\"\",\"\",\"2-2\",\"4110\",\"39\",\"0\",\"Testing\",\"Stims/Figures/87-C-20-4.bmp\",\"nama:na\",\"Left\",\"37\",\"4\",\"1\",\"4\",\"S\",\"J\",\"73\"
\"\",\"\",\"approach-retreat\",\"222\",\"1590089\",\"0.0-222.0\",\"\",\"\",\"2-2\",\"5628\",\"39\",\"1\",\"Testing\",\"Stims/Figures/84-J-0-2.bmp\",\"taka:ka\",\"Left\",\"39\",\"4\",\"2\",\"4\",\"P\",\"J\",\"74\"
\"\",\"\",\"approach-retreat\",\"223\",\"1596165\",\"0.0-223.0\",\"\",\"\",\"2-2\",\"4570\",\"40\",\"1\",\"Testing\",\"Stims/Figures/144-J-10-3.bmp\",\"pa:pata\",\"Up\",\"40\",\"4\",\"3\",\"4\",\"P\",\"J\",\"75\"
\"\",\"\",\"approach-retreat\",\"224\",\"1602102\",\"0.0-224.0\",\"\",\"\",\"2-2\",\"4430\",\"40\",\"1\",\"Testing\",\"Stims/Figures/84-C-20-2.bmp\",\"na:lala\",\"Down\",\"40\",\"4\",\"4\",\"4\",\"S\",\"J\",\"76\"
\"\",\"\",\"approach-retreat\",\"225\",\"1608353\",\"0.0-225.0\",\"\",\"\",\"2-2\",\"4742\",\"37\",\"1\",\"Testing\",\"Stims/Figures/7-J-10-4.bmp\",\"pa:pa:ta\",\"Right\",\"37\",\"4\",\"5\",\"4\",\"P\",\"J\",\"77\"
\"\",\"\",\"approach-retreat\",\"226\",\"1614213\",\"0.0-226.0\",\"\",\"\",\"2-2\",\"4351\",\"39\",\"1\",\"Testing\",\"Stims/Figures/74-J-10-4.bmp\",\"tapa:ta\",\"Left\",\"39\",\"4\",\"6\",\"4\",\"P\",\"J\",\"78\"
\"\",\"\",\"approach-retreat\",\"227\",\"1620043\",\"0.0-227.0\",\"\",\"\",\"2-2\",\"4322\",\"37\",\"0\",\"Testing\",\"Stims/Figures/94-J-0-2.bmp\",\"takata\",\"Left\",\"39\",\"4\",\"7\",\"4\",\"P\",\"J\",\"79\"
\"\",\"\",\"approach-retreat\",\"228\",\"1625832\",\"0.0-228.0\",\"\",\"\",\"2-2\",\"4280\",\"40\",\"0\",\"Testing\",\"Stims/Figures/144-C-30-3.bmp\",\"nalala\",\"Up\",\"38\",\"4\",\"8\",\"4\",\"S\",\"J\",\"80\"
\"\",\"\",\"approach-retreat\",\"229\",\"1632599\",\"0.0-229.0\",\"\",\"\",\"2-2\",\"5259\",\"39\",\"1\",\"Testing\",\"Stims/Figures/111-C-30-3.bmp\",\"ma:ma:na\",\"Right\",\"39\",\"4\",\"9\",\"4\",\"S\",\"J\",\"81\"
\"\",\"\",\"approach-retreat\",\"230\",\"1638684\",\"0.0-230.0\",\"\",\"\",\"2-2\",\"4578\",\"37\",\"1\",\"Testing\",\"Stims/Figures/7-C-20-4.bmp\",\"ma:ma:la\",\"Left\",\"37\",\"4\",\"10\",\"4\",\"S\",\"J\",\"82\"
\"\",\"\",\"approach-retreat\",\"231\",\"1644576\",\"0.0-231.0\",\"\",\"\",\"2-2\",\"4386\",\"40\",\"1\",\"Testing\",\"Stims/Figures/128-J-10-3.bmp\",\"pa:ka:ka\",\"Up\",\"40\",\"4\",\"11\",\"4\",\"P\",\"J\",\"83\"
\"\",\"\",\"approach-retreat\",\"232\",\"1650787\",\"0.0-232.0\",\"\",\"\",\"2-2\",\"4701\",\"37\",\"0\",\"Testing\",\"Stims/Figures/71-J-0-1.bmp\",\"ta:kata\",\"Left\",\"39\",\"4\",\"12\",\"4\",\"P\",\"J\",\"84\"
\"\",\"\",\"approach-retreat\",\"233\",\"1657596\",\"0.0-233.0\",\"\",\"\",\"2-2\",\"5300\",\"40\",\"1\",\"Testing\",\"Stims/Figures/94-C-20-2.bmp\",\"ma:lala\",\"Down\",\"40\",\"4\",\"13\",\"4\",\"S\",\"J\",\"85\"
\"\",\"\",\"approach-retreat\",\"234\",\"1665152\",\"0.0-234.0\",\"\",\"\",\"2-2\",\"6049\",\"40\",\"1\",\"Testing\",\"Stims/Figures/93-J-0-1.bmp\",\"ta:paka\",\"Up\",\"40\",\"4\",\"14\",\"4\",\"P\",\"J\",\"86\"
\"\",\"\",\"approach-retreat\",\"235\",\"1672092\",\"0.0-235.0\",\"\",\"\",\"2-2\",\"5432\",\"38\",\"0\",\"Testing\",\"Stims/Figures/139-C-20-2.bmp\",\"namana\",\"Down\",\"40\",\"4\",\"15\",\"4\",\"S\",\"J\",\"87\"
\"\",\"\",\"approach-retreat\",\"236\",\"1678082\",\"0.0-236.0\",\"\",\"\",\"2-2\",\"4480\",\"40\",\"1\",\"Testing\",\"Stims/Figures/111-J-10-3.bmp\",\"paka:ta\",\"Up\",\"40\",\"4\",\"16\",\"4\",\"P\",\"J\",\"88\"
\"\",\"\",\"approach-retreat\",\"237\",\"1685812\",\"0.0-237.0\",\"\",\"\",\"2-2\",\"6220\",\"37\",\"0\",\"Testing\",\"Stims/Figures/27-C-30-1.bmp\",\"na:ma:na\",\"Right\",\"39\",\"4\",\"17\",\"4\",\"S\",\"J\",\"89\"
\"\",\"\",\"approach-retreat\",\"238\",\"1691941\",\"0.0-238.0\",\"\",\"\",\"2-2\",\"4619\",\"38\",\"1\",\"Testing\",\"Stims/Figures/139-J-0-2.bmp\",\"ta:pa:ka\",\"Down\",\"38\",\"4\",\"18\",\"4\",\"P\",\"J\",\"90\"
\"\",\"\",\"approach-retreat\",\"239\",\"1698882\",\"0.0-239.0\",\"\",\"\",\"2-2\",\"5433\",\"37\",\"1\",\"Testing\",\"Stims/Figures/87-J-10-4.bmp\",\"takaka\",\"Right\",\"37\",\"4\",\"19\",\"4\",\"P\",\"J\",\"91\"
\"\",\"\",\"approach-retreat\",\"240\",\"1704652\",\"0.0-240.0\",\"\",\"\",\"2-2\",\"4265\",\"38\",\"1\",\"Testing\",\"Stims/Figures/74-C-20-4.bmp\",\"mamala\",\"Up\",\"38\",\"4\",\"20\",\"4\",\"S\",\"J\",\"92\"
\"\",\"\",\"approach-retreat\",\"241\",\"1710981\",\"0.0-241.0\",\"\",\"\",\"2-2\",\"4820\",\"37\",\"0\",\"Testing\",\"Stims/Figures/71-C-30-1.bmp\",\"nala:la\",\"Right\",\"39\",\"4\",\"21\",\"4\",\"S\",\"J\",\"93\"
\"\",\"\",\"approach-retreat\",\"242\",\"1719447\",\"0.0-242.0\",\"\",\"\",\"2-2\",\"6957\",\"40\",\"0\",\"Testing\",\"Stims/Figures/27-J-0-1.bmp\",\"tapata\",\"Down\",\"38\",\"4\",\"22\",\"4\",\"P\",\"J\",\"94\"
\"\",\"\",\"approach-retreat\",\"243\",\"1725585\",\"0.0-243.0\",\"\",\"\",\"2-2\",\"4632\",\"39\",\"1\",\"Testing\",\"Stims/Figures/128-C-30-3.bmp\",\"ma:la:na\",\"Right\",\"39\",\"4\",\"23\",\"4\",\"S\",\"J\",\"95\"
\"\",\"\",\"approach-retreat\",\"244\",\"1734648\",\"0.0-244.0\",\"\",\"\",\"2-2\",\"7553\",\"40\",\"1\",\"Testing\",\"Stims/Figures/93-C-30-1.bmp\",\"ma:lana\",\"Down\",\"40\",\"4\",\"24\",\"4\",\"S\",\"J\",\"96\"
\"35421\",\"\",\"survey-text\",\"245\",\"1770073\",\"0.0-245.0\",\"\",\"{\"\"Q0\"\":\"\"1251/2017\"\"}\",\"\",\"\",\"\",\"\",\"\",\"\",\"\",\"\",\"\",\"\",\"\",\"\",\"\",\"\",\"\"
