"rt","key_press","trial_type","trial_index","time_elapsed","internal_node_id","view_history","responses","Id","Rt","ResKeyCode","ResCorr","TrialType2","Image","Label","Location","CorrectResponse","Block","BlockTrial","Condition","LabelType","Subcondition","trialNum"
"29040","32","text","0","29044","0.0-0.0-0.0","","","","","","","","","","","","","","","","",""
"44265","","instructions","1","73310","0.0-1.0","[{""page_index"":0,""viewing_time"":44264}]","","","","","","","","","","","","","","","",""
"10526","","survey-multi-choice","2","83856","0.0-2.0","","{""Q0"":""Da"",""Q1"":""Da"",""Q2"":""Da"",""Q3"":""Da"",""Q4"":""Da"",""Q5"":""Da""}","","","","","","","","","","","","","","",""
"","","bio","3","91344","0.0-3.0","","{""age"":""19"",""gender"":""f"",""specify"":""""}","","","","","","","","","","","","","","",""
"","","approach-retreat","4","101709","0.0-4.0","","","1-2","8857","37","1","Training","Stims/Figures/71-J-0-1.bmp","sa:sa:za","Right","37","1","1","3B","C2","J","1"
"","","approach-retreat","5","109141","0.0-5.0","","","1-2","5915","40","1","Training","Stims/Figures/128-J-10-3.bmp","sa:sa:za","Up","40","1","2","3B","C2","J","2"
"","","approach-retreat","6","116753","0.0-6.0","","","1-2","6105","39","1","Training","Stims/Figures/19-C-20-4.bmp","fashava","Right","39","1","3","3B","C1","J","3"
"","","approach-retreat","7","123037","0.0-7.0","","","1-2","4771","40","1","Training","Stims/Figures/19-J-10-4.bmp","sa:sa:za","Up","40","1","4","3B","C2","J","4"
"","","approach-retreat","8","129727","0.0-8.0","","","1-2","5177","38","1","Training","Stims/Figures/85-C-20-2.bmp","fashava","Up","38","1","5","3B","C1","J","5"
"","","approach-retreat","9","136923","0.0-9.0","","","1-2","5686","39","0","Training","Stims/Figures/86-C-30-1.bmp","fashava","Left","37","1","6","3B","C1","J","6"
"","","approach-retreat","10","143896","0.0-10.0","","","1-2","5459","40","1","Training","Stims/Figures/44-J-10-3.bmp","sa:sa:za","Up","40","1","7","3B","C2","J","7"
"","","approach-retreat","11","153483","0.0-11.0","","","1-2","8069","37","1","Training","Stims/Figures/84-J-0-2.bmp","sa:sa:za","Right","37","1","8","3B","C2","J","8"
"","","approach-retreat","12","163111","0.0-12.0","","","1-2","8123","37","1","Training","Stims/Figures/84-C-20-2.bmp","fashava","Left","37","1","9","3B","C1","J","9"
"","","approach-retreat","13","170029","0.0-13.0","","","1-2","5405","37","1","Training","Stims/Figures/44-C-30-3.bmp","fashava","Left","37","1","10","3B","C1","J","10"
"","","approach-retreat","14","176874","0.0-14.0","","","1-2","5330","40","1","Training","Stims/Figures/128-C-30-3.bmp","fashava","Down","40","1","11","3B","C1","J","11"
"","","approach-retreat","15","184168","0.0-15.0","","","1-2","5784","38","1","Training","Stims/Figures/85-J-0-2.bmp","sa:sa:za","Down","38","1","12","3B","C2","J","12"
"","","approach-retreat","16","191415","0.0-16.0","","","1-2","5734","37","1","Training","Stims/Figures/86-J-0-1.bmp","sa:sa:za","Right","37","1","13","3B","C2","J","13"
"","","approach-retreat","17","197484","0.0-17.0","","","1-2","4561","38","1","Training","Stims/Figures/7-J-10-4.bmp","sa:sa:za","Down","38","1","14","3B","C2","J","14"
"","","approach-retreat","18","204217","0.0-18.0","","","1-2","5223","37","1","Training","Stims/Figures/7-C-20-4.bmp","fashava","Left","37","1","15","3B","C1","J","15"
"","","approach-retreat","19","210799","0.0-19.0","","","1-2","5070","40","1","Training","Stims/Figures/71-C-30-1.bmp","fashava","Down","40","1","16","3B","C1","J","16"
"","","approach-retreat","20","217830","0.0-20.0","","","1-2","5518","40","1","Training","Stims/Figures/85-C-20-2.bmp","fashava","Down","40","2","1","3B","C1","J","17"
"","","approach-retreat","21","223830","0.0-21.0","","","1-2","4491","40","1","Training","Stims/Figures/7-C-20-4.bmp","fashava","Down","40","2","2","3B","C1","J","18"
"","","approach-retreat","22","229489","0.0-22.0","","","1-2","4147","40","1","Training","Stims/Figures/86-C-30-1.bmp","fashava","Down","40","2","3","3B","C1","J","19"
"","","approach-retreat","23","236982","0.0-23.0","","","1-2","5984","39","0","Training","Stims/Figures/85-J-0-2.bmp","sa:sa:za","Right","37","2","4","3B","C2","J","20"
"","","approach-retreat","24","245041","0.0-24.0","","","1-2","6545","40","1","Training","Stims/Figures/71-C-30-1.bmp","fashava","Down","40","2","5","3B","C1","J","21"
"","","approach-retreat","25","251780","0.0-25.0","","","1-2","5232","39","1","Training","Stims/Figures/44-C-30-3.bmp","fashava","Right","39","2","6","3B","C1","J","22"
"","","approach-retreat","26","257911","0.0-26.0","","","1-2","4616","39","1","Training","Stims/Figures/128-C-30-3.bmp","fashava","Right","39","2","7","3B","C1","J","23"
"","","approach-retreat","27","264426","0.0-27.0","","","1-2","5000","37","1","Training","Stims/Figures/44-J-10-3.bmp","sa:sa:za","Right","37","2","8","3B","C2","J","24"
"","","approach-retreat","28","271027","0.0-28.0","","","1-2","5088","37","1","Training","Stims/Figures/19-C-20-4.bmp","fashava","Left","37","2","9","3B","C1","J","25"
"","","approach-retreat","29","280082","0.0-29.0","","","1-2","7547","39","1","Training","Stims/Figures/7-J-10-4.bmp","sa:sa:za","Left","39","2","10","3B","C2","J","26"
"","","approach-retreat","30","286442","0.0-30.0","","","1-2","4845","38","1","Training","Stims/Figures/84-C-20-2.bmp","fashava","Up","38","2","11","3B","C1","J","27"
"","","approach-retreat","31","294376","0.0-31.0","","","1-2","6420","40","1","Training","Stims/Figures/19-J-10-4.bmp","sa:sa:za","Up","40","2","12","3B","C2","J","28"
"","","approach-retreat","32","303012","0.0-32.0","","","1-2","7122","39","1","Training","Stims/Figures/71-J-0-1.bmp","sa:sa:za","Left","39","2","13","3B","C2","J","29"
"","","approach-retreat","33","309924","0.0-33.0","","","1-2","5402","39","1","Training","Stims/Figures/128-J-10-3.bmp","sa:sa:za","Left","39","2","14","3B","C2","J","30"
"","","approach-retreat","34","341710","0.0-34.0","","","1-2","30272","38","0","Training","Stims/Figures/84-J-0-2.bmp","sa:sa:za","Up","40","2","15","3B","C2","J","31"
"","","approach-retreat","35","351686","0.0-35.0","","","1-2","8462","40","1","Training","Stims/Figures/86-J-0-1.bmp","sa:sa:za","Up","40","2","16","3B","C2","J","32"
"","","approach-retreat","36","360768","0.0-36.0","","","1-2","7575","39","1","Training","Stims/Figures/86-C-30-1.bmp","fashava","Right","39","3","1","3B","C1","J","33"
"","","approach-retreat","37","369286","0.0-37.0","","","1-2","7011","37","1","Training","Stims/Figures/7-C-20-4.bmp","fashava","Left","37","3","2","3B","C1","J","34"
"","","approach-retreat","38","377788","0.0-38.0","","","1-2","6990","37","1","Training","Stims/Figures/19-C-20-4.bmp","fashava","Left","37","3","3","3B","C1","J","35"
"","","approach-retreat","39","384275","0.0-39.0","","","1-2","4981","38","1","Training","Stims/Figures/85-C-20-2.bmp","fashava","Up","38","3","4","3B","C1","J","36"
"","","approach-retreat","40","390524","0.0-40.0","","","1-2","4738","40","1","Training","Stims/Figures/71-C-30-1.bmp","fashava","Down","40","3","5","3B","C1","J","37"
"","","approach-retreat","41","397930","0.0-41.0","","","1-2","5891","38","1","Training","Stims/Figures/19-J-10-4.bmp","sa:sa:za","Down","38","3","6","3B","C2","J","38"
"","","approach-retreat","42","403899","0.0-42.0","","","1-2","4457","37","1","Training","Stims/Figures/128-C-30-3.bmp","fashava","Left","37","3","7","3B","C1","J","39"
"","","approach-retreat","43","410963","0.0-43.0","","","1-2","5550","38","1","Training","Stims/Figures/71-J-0-1.bmp","sa:sa:za","Down","38","3","8","3B","C2","J","40"
"","","approach-retreat","44","417119","0.0-44.0","","","1-2","4647","39","0","Training","Stims/Figures/84-J-0-2.bmp","sa:sa:za","Right","37","3","9","3B","C2","J","41"
"","","approach-retreat","45","424603","0.0-45.0","","","1-2","5972","37","1","Training","Stims/Figures/128-J-10-3.bmp","sa:sa:za","Right","37","3","10","3B","C2","J","42"
"","","approach-retreat","46","431447","0.0-46.0","","","1-2","5330","40","1","Training","Stims/Figures/86-J-0-1.bmp","sa:sa:za","Up","40","3","11","3B","C2","J","43"
"","","approach-retreat","47","437576","0.0-47.0","","","1-2","4616","39","1","Training","Stims/Figures/44-J-10-3.bmp","sa:sa:za","Left","39","3","12","3B","C2","J","44"
"","","approach-retreat","48","446195","0.0-48.0","","","1-2","7111","40","1","Training","Stims/Figures/85-J-0-2.bmp","sa:sa:za","Up","40","3","13","3B","C2","J","45"
"","","approach-retreat","49","453527","0.0-49.0","","","1-2","5825","40","1","Training","Stims/Figures/44-C-30-3.bmp","fashava","Down","40","3","14","3B","C1","J","46"
"","","approach-retreat","50","460778","0.0-50.0","","","1-2","5743","38","1","Training","Stims/Figures/84-C-20-2.bmp","fashava","Up","38","3","15","3B","C1","J","47"
"","","approach-retreat","51","467843","0.0-51.0","","","1-2","5558","37","1","Training","Stims/Figures/7-J-10-4.bmp","sa:sa:za","Right","37","3","16","3B","C2","J","48"
"","","approach-retreat","52","481013","0.0-52.0","","","1-2","11657","39","1","Training","Stims/Figures/85-J-0-2.bmp","sa:sa:za","Left","39","4","1","3B","C2","J","49"
"","","approach-retreat","53","489362","0.0-53.0","","","1-2","6835","39","1","Training","Stims/Figures/84-C-20-2.bmp","fashava","Right","39","4","2","3B","C1","J","50"
"","","approach-retreat","54","496334","0.0-54.0","","","1-2","5465","38","1","Training","Stims/Figures/86-C-30-1.bmp","fashava","Up","38","4","3","3B","C1","J","51"
"","","approach-retreat","55","519377","0.0-55.0","","","1-2","21536","38","1","Training","Stims/Figures/71-C-30-1.bmp","fashava","Up","38","4","4","3B","C1","J","52"
"","","approach-retreat","56","528085","0.0-56.0","","","1-2","7196","40","1","Training","Stims/Figures/44-C-30-3.bmp","fashava","Down","40","4","5","3B","C1","J","53"
"","","approach-retreat","57","535705","0.0-57.0","","","1-2","6105","38","1","Training","Stims/Figures/86-J-0-1.bmp","sa:sa:za","Down","38","4","6","3B","C2","J","54"
"","","approach-retreat","58","543053","0.0-58.0","","","1-2","5838","38","1","Training","Stims/Figures/128-C-30-3.bmp","fashava","Up","38","4","7","3B","C1","J","55"
"","","approach-retreat","59","555112","0.0-59.0","","","1-2","10547","39","0","Training","Stims/Figures/44-J-10-3.bmp","sa:sa:za","Right","37","4","8","3B","C2","J","56"
"","","approach-retreat","60","561975","0.0-60.0","","","1-2","5355","37","1","Training","Stims/Figures/7-C-20-4.bmp","fashava","Left","37","4","9","3B","C1","J","57"
"","","approach-retreat","61","568173","0.0-61.0","","","1-2","4691","38","1","Training","Stims/Figures/71-J-0-1.bmp","sa:sa:za","Down","38","4","10","3B","C2","J","58"
"","","approach-retreat","62","579045","0.0-62.0","","","1-2","9357","37","1","Training","Stims/Figures/7-J-10-4.bmp","sa:sa:za","Right","37","4","11","3B","C2","J","59"
"","","approach-retreat","63","590786","0.0-63.0","","","1-2","10234","40","1","Training","Stims/Figures/85-C-20-2.bmp","fashava","Down","40","4","12","3B","C1","J","60"
"","","approach-retreat","64","597061","0.0-64.0","","","1-2","4766","37","1","Training","Stims/Figures/84-J-0-2.bmp","sa:sa:za","Right","37","4","13","3B","C2","J","61"
"","","approach-retreat","65","605240","0.0-65.0","","","1-2","6665","37","1","Training","Stims/Figures/19-C-20-4.bmp","fashava","Left","37","4","14","3B","C1","J","62"
"","","approach-retreat","66","611166","0.0-66.0","","","1-2","4416","40","1","Training","Stims/Figures/128-J-10-3.bmp","sa:sa:za","Up","40","4","15","3B","C2","J","63"
"","","approach-retreat","67","618734","0.0-67.0","","","1-2","6056","39","1","Training","Stims/Figures/19-J-10-4.bmp","sa:sa:za","Left","39","4","16","3B","C2","J","64"
"","","approach-retreat","68","625097","0.0-68.0","","","1-2","4851","40","1","Training","Stims/Figures/84-C-20-2.bmp","fashava","Down","40","5","1","3B","C1","J","65"
"","","approach-retreat","69","634753","0.0-69.0","","","1-2","8142","39","1","Training","Stims/Figures/19-C-20-4.bmp","fashava","Right","39","5","2","3B","C1","J","66"
"","","approach-retreat","70","644140","0.0-70.0","","","1-2","7878","37","1","Training","Stims/Figures/85-C-20-2.bmp","fashava","Left","37","5","3","3B","C1","J","67"
"","","approach-retreat","71","650793","0.0-71.0","","","1-2","5139","40","1","Training","Stims/Figures/7-C-20-4.bmp","fashava","Down","40","5","4","3B","C1","J","68"
"","","approach-retreat","72","661223","0.0-72.0","","","1-2","8913","37","1","Training","Stims/Figures/71-C-30-1.bmp","fashava","Left","37","5","5","3B","C1","J","69"
"","","approach-retreat","73","668737","0.0-73.0","","","1-2","6003","37","1","Training","Stims/Figures/86-C-30-1.bmp","fashava","Left","37","5","6","3B","C1","J","70"
"","","approach-retreat","74","675262","0.0-74.0","","","1-2","5017","38","1","Training","Stims/Figures/128-C-30-3.bmp","fashava","Up","38","5","7","3B","C1","J","71"
"","","approach-retreat","75","681487","0.0-75.0","","","1-2","4712","39","1","Training","Stims/Figures/44-J-10-3.bmp","sa:sa:za","Left","39","5","8","3B","C2","J","72"
"","","approach-retreat","76","687838","0.0-76.0","","","1-2","4837","40","1","Training","Stims/Figures/7-J-10-4.bmp","sa:sa:za","Up","40","5","9","3B","C2","J","73"
"","","approach-retreat","77","694488","0.0-77.0","","","1-2","5137","37","1","Training","Stims/Figures/19-J-10-4.bmp","sa:sa:za","Right","37","5","10","3B","C2","J","74"
"","","approach-retreat","78","700790","0.0-78.0","","","1-2","4795","38","1","Training","Stims/Figures/84-J-0-2.bmp","sa:sa:za","Down","38","5","11","3B","C2","J","75"
"","","approach-retreat","79","707019","0.0-79.0","","","1-2","4720","37","1","Training","Stims/Figures/71-J-0-1.bmp","sa:sa:za","Right","37","5","12","3B","C2","J","76"
"","","approach-retreat","80","713137","0.0-80.0","","","1-2","4604","40","1","Training","Stims/Figures/85-J-0-2.bmp","sa:sa:za","Up","40","5","13","3B","C2","J","77"
"","","approach-retreat","81","724069","0.0-81.0","","","1-2","9426","40","1","Training","Stims/Figures/44-C-30-3.bmp","fashava","Down","40","5","14","3B","C1","J","78"
"","","approach-retreat","82","735627","0.0-82.0","","","1-2","10043","37","1","Training","Stims/Figures/86-J-0-1.bmp","sa:sa:za","Right","37","5","15","3B","C2","J","79"
"","","approach-retreat","83","742043","0.0-83.0","","","1-2","4903","40","1","Training","Stims/Figures/128-J-10-3.bmp","sa:sa:za","Up","40","5","16","3B","C2","J","80"
"","","approach-retreat","84","748631","0.0-84.0","","","1-2","5078","40","1","Training","Stims/Figures/7-C-20-4.bmp","fashava","Down","40","6","1","3B","C1","J","81"
"","","approach-retreat","85","755079","0.0-85.0","","","1-2","4932","37","1","Training","Stims/Figures/86-J-0-1.bmp","sa:sa:za","Right","37","6","2","3B","C2","J","82"
"","","approach-retreat","86","762271","0.0-86.0","","","1-2","5676","37","1","Training","Stims/Figures/7-J-10-4.bmp","sa:sa:za","Right","37","6","3","3B","C2","J","83"
"","","approach-retreat","87","772471","0.0-87.0","","","1-2","8687","37","1","Training","Stims/Figures/19-J-10-4.bmp","sa:sa:za","Right","37","6","4","3B","C2","J","84"
"","","approach-retreat","88","783202","0.0-88.0","","","1-2","9217","37","1","Training","Stims/Figures/86-C-30-1.bmp","fashava","Left","37","6","5","3B","C1","J","85"
"","","approach-retreat","89","792025","0.0-89.0","","","1-2","7315","39","1","Training","Stims/Figures/44-J-10-3.bmp","sa:sa:za","Left","39","6","6","3B","C2","J","86"
"","","approach-retreat","90","798775","0.0-90.0","","","1-2","5244","39","1","Training","Stims/Figures/128-J-10-3.bmp","sa:sa:za","Left","39","6","7","3B","C2","J","87"
"","","approach-retreat","91","807088","0.0-91.0","","","1-2","6806","38","1","Training","Stims/Figures/44-C-30-3.bmp","fashava","Up","38","6","8","3B","C1","J","88"
"","","approach-retreat","92","813988","0.0-92.0","","","1-2","5388","39","1","Training","Stims/Figures/85-J-0-2.bmp","sa:sa:za","Left","39","6","9","3B","C2","J","89"
"","","approach-retreat","93","820385","0.0-93.0","","","1-2","4883","40","1","Training","Stims/Figures/71-J-0-1.bmp","sa:sa:za","Up","40","6","10","3B","C2","J","90"
"","","approach-retreat","94","829341","0.0-94.0","","","1-2","7448","38","1","Training","Stims/Figures/84-J-0-2.bmp","sa:sa:za","Down","38","6","11","3B","C2","J","91"
"","","approach-retreat","95","837656","0.0-95.0","","","1-2","6807","38","1","Training","Stims/Figures/84-C-20-2.bmp","fashava","Up","38","6","12","3B","C1","J","92"
"","","approach-retreat","96","846215","0.0-96.0","","","1-2","7045","40","1","Training","Stims/Figures/71-C-30-1.bmp","fashava","Down","40","6","13","3B","C1","J","93"
"","","approach-retreat","97","853155","0.0-97.0","","","1-2","5428","39","1","Training","Stims/Figures/19-C-20-4.bmp","fashava","Right","39","6","14","3B","C1","J","94"
"","","approach-retreat","98","859737","0.0-98.0","","","1-2","5074","38","1","Training","Stims/Figures/128-C-30-3.bmp","fashava","Up","38","6","15","3B","C1","J","95"
"","","approach-retreat","99","865902","0.0-99.0","","","1-2","4653","40","1","Training","Stims/Figures/85-C-20-2.bmp","fashava","Down","40","6","16","3B","C1","J","96"
"","","approach-retreat","100","872425","0.0-100.0","","","1-2","5012","37","1","Training","Stims/Figures/7-J-10-4.bmp","sa:sa:za","Right","37","7","1","3B","C2","J","97"
"","","approach-retreat","101","885786","0.0-101.0","","","1-2","11847","37","1","Training","Stims/Figures/71-C-30-1.bmp","fashava","Left","37","7","2","3B","C1","J","98"
"","","approach-retreat","102","892683","0.0-102.0","","","1-2","5382","38","1","Training","Stims/Figures/7-C-20-4.bmp","fashava","Up","38","7","3","3B","C1","J","99"
"","","approach-retreat","103","900613","0.0-103.0","","","1-2","6418","39","1","Training","Stims/Figures/85-C-20-2.bmp","fashava","Right","39","7","4","3B","C1","J","100"
"","","approach-retreat","104","907042","0.0-104.0","","","1-2","4917","37","1","Training","Stims/Figures/84-C-20-2.bmp","fashava","Left","37","7","5","3B","C1","J","101"
"","","approach-retreat","105","914053","0.0-105.0","","","1-2","5497","39","1","Training","Stims/Figures/71-J-0-1.bmp","sa:sa:za","Left","39","7","6","3B","C2","J","102"
"","","approach-retreat","106","923147","0.0-106.0","","","1-2","7586","40","1","Training","Stims/Figures/44-C-30-3.bmp","fashava","Down","40","7","7","3B","C1","J","103"
"","","approach-retreat","107","930214","0.0-107.0","","","1-2","5560","38","1","Training","Stims/Figures/84-J-0-2.bmp","sa:sa:za","Down","38","7","8","3B","C2","J","104"
"","","approach-retreat","108","935863","0.0-108.0","","","1-2","4141","39","1","Training","Stims/Figures/44-J-10-3.bmp","sa:sa:za","Left","39","7","9","3B","C2","J","105"
"","","approach-retreat","109","946980","0.0-109.0","","","1-2","9605","38","1","Training","Stims/Figures/128-J-10-3.bmp","sa:sa:za","Down","38","7","10","3B","C2","J","106"
"","","approach-retreat","110","953628","0.0-110.0","","","1-2","5134","38","1","Training","Stims/Figures/19-C-20-4.bmp","fashava","Up","38","7","11","3B","C1","J","107"
"","","approach-retreat","111","959710","0.0-111.0","","","1-2","4573","38","1","Training","Stims/Figures/128-C-30-3.bmp","fashava","Up","38","7","12","3B","C1","J","108"
"","","approach-retreat","112","967005","0.0-112.0","","","1-2","5786","39","0","Training","Stims/Figures/85-J-0-2.bmp","sa:sa:za","Right","37","7","13","3B","C2","J","109"
"","","approach-retreat","113","973495","0.0-113.0","","","1-2","4973","37","1","Training","Stims/Figures/86-J-0-1.bmp","sa:sa:za","Right","37","7","14","3B","C2","J","110"
"","","approach-retreat","114","979662","0.0-114.0","","","1-2","4655","40","1","Training","Stims/Figures/19-J-10-4.bmp","sa:sa:za","Up","40","7","15","3B","C2","J","111"
"","","approach-retreat","115","986470","0.0-115.0","","","1-2","5294","40","1","Training","Stims/Figures/86-C-30-1.bmp","fashava","Down","40","7","16","3B","C1","J","112"
"","","approach-retreat","116","995655","0.0-116.0","","","1-2","7674","40","1","Training","Stims/Figures/85-C-20-2.bmp","fashava","Down","40","8","1","3B","C1","J","113"
"","","approach-retreat","117","1001556","0.0-117.0","","","1-2","4388","39","1","Training","Stims/Figures/128-C-30-3.bmp","fashava","Right","39","8","2","3B","C1","J","114"
"","","approach-retreat","118","1008066","0.0-118.0","","","1-2","4999","38","1","Training","Stims/Figures/19-C-20-4.bmp","fashava","Up","38","8","3","3B","C1","J","115"
"","","approach-retreat","119","1014807","0.0-119.0","","","1-2","5233","40","1","Training","Stims/Figures/7-J-10-4.bmp","sa:sa:za","Up","40","8","4","3B","C2","J","116"
"","","approach-retreat","120","1024278","0.0-120.0","","","1-2","7960","39","1","Training","Stims/Figures/44-J-10-3.bmp","sa:sa:za","Left","39","8","5","3B","C2","J","117"
"","","approach-retreat","121","1030662","0.0-121.0","","","1-2","4872","38","1","Training","Stims/Figures/71-J-0-1.bmp","sa:sa:za","Down","38","8","6","3B","C2","J","118"
"","","approach-retreat","122","1036921","0.0-122.0","","","1-2","4745","39","1","Training","Stims/Figures/44-C-30-3.bmp","fashava","Right","39","8","7","3B","C1","J","119"
"","","approach-retreat","123","1043356","0.0-123.0","","","1-2","4924","39","1","Training","Stims/Figures/86-J-0-1.bmp","sa:sa:za","Left","39","8","8","3B","C2","J","120"
"","","approach-retreat","124","1051888","0.0-124.0","","","1-2","7019","39","1","Training","Stims/Figures/7-C-20-4.bmp","fashava","Right","39","8","9","3B","C1","J","121"
"","","approach-retreat","125","1060285","0.0-125.0","","","1-2","6885","40","1","Training","Stims/Figures/71-C-30-1.bmp","fashava","Down","40","8","10","3B","C1","J","122"
"","","approach-retreat","126","1067011","0.0-126.0","","","1-2","5214","39","1","Training","Stims/Figures/85-J-0-2.bmp","sa:sa:za","Left","39","8","11","3B","C2","J","123"
"","","approach-retreat","127","1074095","0.0-127.0","","","1-2","5569","40","1","Training","Stims/Figures/84-J-0-2.bmp","sa:sa:za","Up","40","8","12","3B","C2","J","124"
"","","approach-retreat","128","1088601","0.0-128.0","","","1-2","12991","37","1","Training","Stims/Figures/128-J-10-3.bmp","sa:sa:za","Right","37","8","13","3B","C2","J","125"
"","","approach-retreat","129","1094295","0.0-129.0","","","1-2","4182","40","1","Training","Stims/Figures/19-J-10-4.bmp","sa:sa:za","Up","40","8","14","3B","C2","J","126"
"","","approach-retreat","130","1100437","0.0-130.0","","","1-2","4626","37","1","Training","Stims/Figures/84-C-20-2.bmp","fashava","Left","37","8","15","3B","C1","J","127"
"","","approach-retreat","131","1106243","0.0-131.0","","","1-2","4298","40","1","Training","Stims/Figures/86-C-30-1.bmp","fashava","Down","40","8","16","3B","C1","J","128"
"","","approach-retreat","132","1112189","0.0-132.0","","","1-2","4433","37","1","Training","Stims/Figures/7-C-20-4.bmp","fashava","Left","37","9","1","3B","C1","J","129"
"","","approach-retreat","133","1117926","0.0-133.0","","","1-2","4224","37","1","Training","Stims/Figures/71-C-30-1.bmp","fashava","Left","37","9","2","3B","C1","J","130"
"","","approach-retreat","134","1123926","0.0-134.0","","","1-2","4486","39","1","Training","Stims/Figures/84-J-0-2.bmp","sa:sa:za","Left","39","9","3","3B","C2","J","131"
"","","approach-retreat","135","1129768","0.0-135.0","","","1-2","4332","37","1","Training","Stims/Figures/71-J-0-1.bmp","sa:sa:za","Right","37","9","4","3B","C2","J","132"
"","","approach-retreat","136","1136296","0.0-136.0","","","1-2","5016","38","1","Training","Stims/Figures/19-C-20-4.bmp","fashava","Up","38","9","5","3B","C1","J","133"
"","","approach-retreat","137","1143043","0.0-137.0","","","1-2","5234","38","1","Training","Stims/Figures/86-C-30-1.bmp","fashava","Up","38","9","6","3B","C1","J","134"
"","","approach-retreat","138","1150068","0.0-138.0","","","1-2","5513","40","1","Training","Stims/Figures/84-C-20-2.bmp","fashava","Down","40","9","7","3B","C1","J","135"
"","","approach-retreat","139","1157910","0.0-139.0","","","1-2","6329","39","1","Training","Stims/Figures/44-C-30-3.bmp","fashava","Right","39","9","8","3B","C1","J","136"
"","","approach-retreat","140","1163954","0.0-140.0","","","1-2","4530","38","1","Training","Stims/Figures/7-J-10-4.bmp","sa:sa:za","Down","38","9","9","3B","C2","J","137"
"","","approach-retreat","141","1177156","0.0-141.0","","","1-2","11689","37","1","Training","Stims/Figures/44-J-10-3.bmp","sa:sa:za","Right","37","9","10","3B","C2","J","138"
"","","approach-retreat","142","1183669","0.0-142.0","","","1-2","5003","38","1","Training","Stims/Figures/85-J-0-2.bmp","sa:sa:za","Down","38","9","11","3B","C2","J","139"
"","","approach-retreat","143","1190892","0.0-143.0","","","1-2","5715","38","1","Training","Stims/Figures/128-C-30-3.bmp","fashava","Up","38","9","12","3B","C1","J","140"
"","","approach-retreat","144","1197589","0.0-144.0","","","1-2","5184","40","1","Training","Stims/Figures/128-J-10-3.bmp","sa:sa:za","Up","40","9","13","3B","C2","J","141"
"","","approach-retreat","145","1205146","0.0-145.0","","","1-2","6051","37","1","Training","Stims/Figures/86-J-0-1.bmp","sa:sa:za","Right","37","9","14","3B","C2","J","142"
"","","approach-retreat","146","1213005","0.0-146.0","","","1-2","6344","37","1","Training","Stims/Figures/85-C-20-2.bmp","fashava","Left","37","9","15","3B","C1","J","143"
"","","approach-retreat","147","1218847","0.0-147.0","","","1-2","4332","38","1","Training","Stims/Figures/19-J-10-4.bmp","sa:sa:za","Down","38","9","16","3B","C2","J","144"
"16514","","instructions","148","1235361","0.0-148.0","[{""page_index"":0,""viewing_time"":16513}]","","","","","","","","","","","","","","","",""
"","","approach-retreat","149","1250490","0.0-149.0","","","1-2","13626","40","1","Testing","Stims/Figures/19-J-10-4.bmp","sa:sa:za","Up","40","1","1","3B","C2","J","1"
"","","approach-retreat","150","1257604","0.0-150.0","","","1-2","5602","40","0","Testing","Stims/Figures/7-C-20-4.bmp","fashava","Up","38","1","2","3B","C1","J","2"
"","","approach-retreat","151","1266124","0.0-151.0","","","1-2","7012","40","0","Testing","Stims/Figures/44-J-10-3.bmp","sa:sa:za","Down","38","1","3","3B","C2","J","3"
"","","approach-retreat","152","1276076","0.0-152.0","","","1-2","8445","37","1","Testing","Stims/Figures/87-C-20-4.bmp","fashava","Left","37","1","4","3B","C1","J","4"
"","","approach-retreat","153","1284259","0.0-153.0","","","1-2","6673","38","0","Testing","Stims/Figures/93-J-0-1.bmp","sa:sa:za","Up","40","1","5","3B","C2","J","5"
"","","approach-retreat","154","1295287","0.0-154.0","","","1-2","9520","39","0","Testing","Stims/Figures/86-J-0-1.bmp","sa:sa:za","Right","37","1","6","3B","C2","J","6"
"","","approach-retreat","155","1301545","0.0-155.0","","","1-2","4749","40","0","Testing","Stims/Figures/93-C-30-1.bmp","fashava","Up","38","1","7","3B","C1","J","7"
"","","approach-retreat","156","1307859","0.0-156.0","","","1-2","4806","39","0","Testing","Stims/Figures/139-C-20-2.bmp","fashava","Left","37","1","8","3B","C1","J","8"
"","","approach-retreat","157","1315778","0.0-157.0","","","1-2","6410","39","1","Testing","Stims/Figures/19-C-20-4.bmp","fashava","Right","39","1","9","3B","C1","J","9"
"","","approach-retreat","158","1322079","0.0-158.0","","","1-2","4791","40","0","Testing","Stims/Figures/71-J-0-1.bmp","sa:sa:za","Down","38","1","10","3B","C2","J","10"
"","","approach-retreat","159","1327982","0.0-159.0","","","1-2","4396","39","0","Testing","Stims/Figures/111-C-30-3.bmp","fashava","Left","37","1","11","3B","C1","J","11"
"","","approach-retreat","160","1335190","0.0-160.0","","","1-2","5699","39","0","Testing","Stims/Figures/128-J-10-3.bmp","sa:sa:za","Right","37","1","12","3B","C2","J","12"
"","","approach-retreat","161","1341873","0.0-161.0","","","1-2","5176","39","0","Testing","Stims/Figures/85-C-20-2.bmp","fashava","Left","37","1","13","3B","C1","J","13"
"","","approach-retreat","162","1347585","0.0-162.0","","","1-2","4205","39","0","Testing","Stims/Figures/71-C-30-1.bmp","fashava","Left","37","1","14","3B","C1","J","14"
"","","approach-retreat","163","1353719","0.0-163.0","","","1-2","4626","40","0","Testing","Stims/Figures/84-C-20-2.bmp","fashava","Up","38","1","15","3B","C1","J","15"
"","","approach-retreat","164","1363303","0.0-164.0","","","1-2","8076","38","0","Testing","Stims/Figures/86-C-30-1.bmp","fashava","Down","40","1","16","3B","C1","J","16"
"","","approach-retreat","165","1370393","0.0-165.0","","","1-2","5581","40","0","Testing","Stims/Figures/139-J-0-2.bmp","sa:sa:za","Down","38","1","17","3B","C2","J","17"
"","","approach-retreat","166","1379598","0.0-166.0","","","1-2","7697","37","0","Testing","Stims/Figures/7-J-10-4.bmp","sa:sa:za","Left","39","1","18","3B","C2","J","18"
"","","approach-retreat","167","1386563","0.0-167.0","","","1-2","5453","37","0","Testing","Stims/Figures/128-C-30-3.bmp","fashava","Right","39","1","19","3B","C1","J","19"
"","","approach-retreat","168","1393116","0.0-168.0","","","1-2","5046","40","0","Testing","Stims/Figures/85-J-0-2.bmp","sa:sa:za","Down","38","1","20","3B","C2","J","20"
"","","approach-retreat","169","1399497","0.0-169.0","","","1-2","4871","38","0","Testing","Stims/Figures/87-J-10-4.bmp","sa:sa:za","Up","40","1","21","3B","C2","J","21"
"","","approach-retreat","170","1405834","0.0-170.0","","","1-2","4828","37","0","Testing","Stims/Figures/44-C-30-3.bmp","fashava","Right","39","1","22","3B","C1","J","22"
"","","approach-retreat","171","1411716","0.0-171.0","","","1-2","4374","39","0","Testing","Stims/Figures/84-J-0-2.bmp","sa:sa:za","Right","37","1","23","3B","C2","J","23"
"","","approach-retreat","172","1418099","0.0-172.0","","","1-2","4876","40","0","Testing","Stims/Figures/111-J-10-3.bmp","sa:sa:za","Down","38","1","24","3B","C2","J","24"
"","","approach-retreat","173","1425340","0.0-173.0","","","1-2","5734","38","0","Testing","Stims/Figures/128-J-10-3.bmp","sa:sa:za","Up","40","2","1","3B","C2","J","25"
"","","approach-retreat","174","1432977","0.0-174.0","","","1-2","6128","37","0","Testing","Stims/Figures/7-C-20-4.bmp","fashava","Right","39","2","2","3B","C1","J","26"
"","","approach-retreat","175","1439075","0.0-175.0","","","1-2","4590","39","0","Testing","Stims/Figures/86-C-30-1.bmp","fashava","Left","37","2","3","3B","C1","J","27"
"","","approach-retreat","176","1446506","0.0-176.0","","","1-2","5924","39","0","Testing","Stims/Figures/111-C-30-3.bmp","fashava","Left","37","2","4","3B","C1","J","28"
"","","approach-retreat","177","1452683","0.0-177.0","","","1-2","4666","38","0","Testing","Stims/Figures/87-C-20-4.bmp","fashava","Down","40","2","5","3B","C1","J","29"
"","","approach-retreat","178","1459315","0.0-178.0","","","1-2","5126","38","1","Testing","Stims/Figures/139-C-20-2.bmp","fashava","Up","38","2","6","3B","C1","J","30"
"","","approach-retreat","179","1465546","0.0-179.0","","","1-2","4721","40","1","Testing","Stims/Figures/84-C-20-2.bmp","fashava","Down","40","2","7","3B","C1","J","31"
"","","approach-retreat","180","1471218","0.0-180.0","","","1-2","4166","40","1","Testing","Stims/Figures/19-C-20-4.bmp","fashava","Down","40","2","8","3B","C1","J","32"
"","","approach-retreat","181","1477646","0.0-181.0","","","1-2","4919","38","0","Testing","Stims/Figures/111-J-10-3.bmp","sa:sa:za","Up","40","2","9","3B","C2","J","33"
"","","approach-retreat","182","1483891","0.0-182.0","","","1-2","4736","38","0","Testing","Stims/Figures/44-J-10-3.bmp","sa:sa:za","Up","40","2","10","3B","C2","J","34"
"","","approach-retreat","183","1490077","0.0-183.0","","","1-2","4680","37","0","Testing","Stims/Figures/87-J-10-4.bmp","sa:sa:za","Left","39","2","11","3B","C2","J","35"
"","","approach-retreat","184","1496377","0.0-184.0","","","1-2","4793","38","1","Testing","Stims/Figures/7-J-10-4.bmp","sa:sa:za","Down","38","2","12","3B","C2","J","36"
"","","approach-retreat","185","1502483","0.0-185.0","","","1-2","4598","38","0","Testing","Stims/Figures/139-J-0-2.bmp","sa:sa:za","Up","40","2","13","3B","C2","J","37"
"","","approach-retreat","186","1509681","0.0-186.0","","","1-2","5692","39","1","Testing","Stims/Figures/19-J-10-4.bmp","sa:sa:za","Left","39","2","14","3B","C2","J","38"
"","","approach-retreat","187","1518376","0.0-187.0","","","1-2","7188","37","0","Testing","Stims/Figures/71-C-30-1.bmp","fashava","Right","39","2","15","3B","C1","J","39"
"","","approach-retreat","188","1524738","0.0-188.0","","","1-2","4852","39","0","Testing","Stims/Figures/86-J-0-1.bmp","sa:sa:za","Right","37","2","16","3B","C2","J","40"
"","","approach-retreat","189","1531901","0.0-189.0","","","1-2","5655","40","0","Testing","Stims/Figures/128-C-30-3.bmp","fashava","Up","38","2","17","3B","C1","J","41"
"","","approach-retreat","190","1540512","0.0-190.0","","","1-2","7103","40","0","Testing","Stims/Figures/71-J-0-1.bmp","sa:sa:za","Down","38","2","18","3B","C2","J","42"
"","","approach-retreat","191","1547303","0.0-191.0","","","1-2","5282","37","0","Testing","Stims/Figures/44-C-30-3.bmp","fashava","Right","39","2","19","3B","C1","J","43"
"","","approach-retreat","192","1554290","0.0-192.0","","","1-2","5480","39","0","Testing","Stims/Figures/85-J-0-2.bmp","sa:sa:za","Right","37","2","20","3B","C2","J","44"
"","","approach-retreat","193","1583549","0.0-193.0","","","1-2","27752","39","0","Testing","Stims/Figures/93-J-0-1.bmp","sa:sa:za","Right","37","2","21","3B","C2","J","45"
"","","approach-retreat","194","1606115","0.0-194.0","","","1-2","21058","39","0","Testing","Stims/Figures/93-C-30-1.bmp","fashava","Left","37","2","22","3B","C1","J","46"
"","","approach-retreat","195","1612312","0.0-195.0","","","1-2","4690","39","0","Testing","Stims/Figures/85-C-20-2.bmp","fashava","Left","37","2","23","3B","C1","J","47"
"","","approach-retreat","196","1618257","0.0-196.0","","","1-2","4437","40","0","Testing","Stims/Figures/84-J-0-2.bmp","sa:sa:za","Down","38","2","24","3B","C2","J","48"
"","","approach-retreat","197","1626345","0.0-197.0","","","1-2","6579","38","0","Testing","Stims/Figures/87-C-20-4.bmp","fashava","Down","40","3","1","3B","C1","J","49"
"","","approach-retreat","198","1633710","0.0-198.0","","","1-2","5858","37","0","Testing","Stims/Figures/19-C-20-4.bmp","fashava","Right","39","3","2","3B","C1","J","50"
"","","approach-retreat","199","1646547","0.0-199.0","","","1-2","11329","37","0","Testing","Stims/Figures/128-C-30-3.bmp","fashava","Right","39","3","3","3B","C1","J","51"
"","","approach-retreat","200","1656225","0.0-200.0","","","1-2","8170","37","0","Testing","Stims/Figures/44-C-30-3.bmp","fashava","Right","39","3","4","3B","C1","J","52"
"","","approach-retreat","201","1666315","0.0-201.0","","","1-2","8582","40","1","Testing","Stims/Figures/19-J-10-4.bmp","sa:sa:za","Up","40","3","5","3B","C2","J","53"
"","","approach-retreat","202","1672788","0.0-202.0","","","1-2","4966","40","0","Testing","Stims/Figures/86-J-0-1.bmp","sa:sa:za","Down","38","3","6","3B","C2","J","54"
"","","approach-retreat","203","1682398","0.0-203.0","","","1-2","8101","37","0","Testing","Stims/Figures/7-J-10-4.bmp","sa:sa:za","Left","39","3","7","3B","C2","J","55"
"","","approach-retreat","204","1690914","0.0-204.0","","","1-2","7009","38","0","Testing","Stims/Figures/93-J-0-1.bmp","sa:sa:za","Up","40","3","8","3B","C2","J","56"
"","","approach-retreat","205","1700015","0.0-205.0","","","1-2","7593","40","0","Testing","Stims/Figures/128-J-10-3.bmp","sa:sa:za","Down","38","3","9","3B","C2","J","57"
"","","approach-retreat","206","1717149","0.0-206.0","","","1-2","15627","40","0","Testing","Stims/Figures/85-C-20-2.bmp","fashava","Up","38","3","10","3B","C1","J","58"
"","","approach-retreat","207","1723896","0.0-207.0","","","1-2","5240","39","0","Testing","Stims/Figures/86-C-30-1.bmp","fashava","Left","37","3","11","3B","C1","J","59"
"","","approach-retreat","208","1732281","0.0-208.0","","","1-2","6873","38","0","Testing","Stims/Figures/111-C-30-3.bmp","fashava","Down","40","3","12","3B","C1","J","60"
"","","approach-retreat","209","1740546","0.0-209.0","","","1-2","6757","40","0","Testing","Stims/Figures/139-C-20-2.bmp","fashava","Up","38","3","13","3B","C1","J","61"
"","","approach-retreat","210","1747135","0.0-210.0","","","1-2","5080","37","0","Testing","Stims/Figures/7-C-20-4.bmp","fashava","Right","39","3","14","3B","C1","J","62"
"","","approach-retreat","211","1753164","0.0-211.0","","","1-2","4521","38","0","Testing","Stims/Figures/85-J-0-2.bmp","sa:sa:za","Up","40","3","15","3B","C2","J","63"
"","","approach-retreat","212","1760803","0.0-212.0","","","1-2","6131","38","0","Testing","Stims/Figures/84-J-0-2.bmp","sa:sa:za","Up","40","3","16","3B","C2","J","64"
"","","approach-retreat","213","1769882","0.0-213.0","","","1-2","7567","37","0","Testing","Stims/Figures/44-J-10-3.bmp","sa:sa:za","Left","39","3","17","3B","C2","J","65"
"","","approach-retreat","214","1777786","0.0-214.0","","","1-2","6396","40","0","Testing","Stims/Figures/139-J-0-2.bmp","sa:sa:za","Down","38","3","18","3B","C2","J","66"
"","","approach-retreat","215","1785747","0.0-215.0","","","1-2","6456","37","1","Testing","Stims/Figures/71-C-30-1.bmp","fashava","Left","37","3","19","3B","C1","J","67"
"","","approach-retreat","216","1792046","0.0-216.0","","","1-2","4792","37","0","Testing","Stims/Figures/93-C-30-1.bmp","fashava","Right","39","3","20","3B","C1","J","68"
"","","approach-retreat","217","1799754","0.0-217.0","","","1-2","6200","39","0","Testing","Stims/Figures/71-J-0-1.bmp","sa:sa:za","Right","37","3","21","3B","C2","J","69"
"","","approach-retreat","218","1813847","0.0-218.0","","","1-2","12586","37","0","Testing","Stims/Figures/87-J-10-4.bmp","sa:sa:za","Left","39","3","22","3B","C2","J","70"
"","","approach-retreat","219","1820218","0.0-219.0","","","1-2","4864","37","0","Testing","Stims/Figures/111-J-10-3.bmp","sa:sa:za","Left","39","3","23","3B","C2","J","71"
"","","approach-retreat","220","1826372","0.0-220.0","","","1-2","4646","38","0","Testing","Stims/Figures/84-C-20-2.bmp","fashava","Down","40","3","24","3B","C1","J","72"
"","","approach-retreat","221","1832249","0.0-221.0","","","1-2","4369","39","0","Testing","Stims/Figures/111-J-10-3.bmp","sa:sa:za","Right","37","4","1","3B","C2","J","73"
"","","approach-retreat","222","1838721","0.0-222.0","","","1-2","4966","39","0","Testing","Stims/Figures/139-J-0-2.bmp","sa:sa:za","Right","37","4","2","3B","C2","J","74"
"","","approach-retreat","223","1849297","0.0-223.0","","","1-2","9067","40","0","Testing","Stims/Figures/128-J-10-3.bmp","sa:sa:za","Down","38","4","3","3B","C2","J","75"
"","","approach-retreat","224","1855386","0.0-224.0","","","1-2","4582","39","0","Testing","Stims/Figures/86-C-30-1.bmp","fashava","Left","37","4","4","3B","C1","J","76"
"","","approach-retreat","225","1866039","0.0-225.0","","","1-2","9146","39","0","Testing","Stims/Figures/71-C-30-1.bmp","fashava","Left","37","4","5","3B","C1","J","77"
"","","approach-retreat","226","1873590","0.0-226.0","","","1-2","6046","38","0","Testing","Stims/Figures/128-C-30-3.bmp","fashava","Down","40","4","6","3B","C1","J","78"
"","","approach-retreat","227","1879780","0.0-227.0","","","1-2","4682","37","0","Testing","Stims/Figures/93-C-30-1.bmp","fashava","Right","39","4","7","3B","C1","J","79"
"","","approach-retreat","228","1886442","0.0-228.0","","","1-2","5154","37","0","Testing","Stims/Figures/7-J-10-4.bmp","sa:sa:za","Left","39","4","8","3B","C2","J","80"
"","","approach-retreat","229","1893659","0.0-229.0","","","1-2","5711","40","0","Testing","Stims/Figures/44-J-10-3.bmp","sa:sa:za","Down","38","4","9","3B","C2","J","81"
"","","approach-retreat","230","1901039","0.0-230.0","","","1-2","5869","40","0","Testing","Stims/Figures/44-C-30-3.bmp","fashava","Up","38","4","10","3B","C1","J","82"
"","","approach-retreat","231","1917912","0.0-231.0","","","1-2","15364","37","1","Testing","Stims/Figures/19-J-10-4.bmp","sa:sa:za","Right","37","4","11","3B","C2","J","83"
"","","approach-retreat","232","1923996","0.0-232.0","","","1-2","4577","40","0","Testing","Stims/Figures/85-J-0-2.bmp","sa:sa:za","Down","38","4","12","3B","C2","J","84"
"","","approach-retreat","233","1931996","0.0-233.0","","","1-2","6487","40","0","Testing","Stims/Figures/19-C-20-4.bmp","fashava","Up","38","4","13","3B","C1","J","85"
"","","approach-retreat","234","1938175","0.0-234.0","","","1-2","4666","38","0","Testing","Stims/Figures/7-C-20-4.bmp","fashava","Down","40","4","14","3B","C1","J","86"
"","","approach-retreat","235","1944607","0.0-235.0","","","1-2","4925","38","0","Testing","Stims/Figures/71-J-0-1.bmp","sa:sa:za","Up","40","4","15","3B","C2","J","87"
"","","approach-retreat","236","1951048","0.0-236.0","","","1-2","4934","38","0","Testing","Stims/Figures/84-C-20-2.bmp","fashava","Down","40","4","16","3B","C1","J","88"
"","","approach-retreat","237","1958563","0.0-237.0","","","1-2","6005","37","0","Testing","Stims/Figures/86-J-0-1.bmp","sa:sa:za","Left","39","4","17","3B","C2","J","89"
"","","approach-retreat","238","1966661","0.0-238.0","","","1-2","6591","37","0","Testing","Stims/Figures/87-J-10-4.bmp","sa:sa:za","Left","39","4","18","3B","C2","J","90"
"","","approach-retreat","239","1975145","0.0-239.0","","","1-2","6978","40","0","Testing","Stims/Figures/85-C-20-2.bmp","fashava","Up","38","4","19","3B","C1","J","91"
"","","approach-retreat","240","1987215","0.0-240.0","","","1-2","10562","40","0","Testing","Stims/Figures/139-C-20-2.bmp","fashava","Up","38","4","20","3B","C1","J","92"
"","","approach-retreat","241","1994239","0.0-241.0","","","1-2","5517","39","0","Testing","Stims/Figures/84-J-0-2.bmp","sa:sa:za","Right","37","4","21","3B","C2","J","93"
"","","approach-retreat","242","2002299","0.0-242.0","","","1-2","6552","37","0","Testing","Stims/Figures/111-C-30-3.bmp","fashava","Right","39","4","22","3B","C1","J","94"
"","","approach-retreat","243","2008155","0.0-243.0","","","1-2","4350","37","0","Testing","Stims/Figures/93-J-0-1.bmp","sa:sa:za","Left","39","4","23","3B","C2","J","95"
"","","approach-retreat","244","2023731","0.0-244.0","","","1-2","14068","40","0","Testing","Stims/Figures/87-C-20-4.bmp","fashava","Up","38","4","24","3B","C1","J","96"
"71800","","survey-text","245","2095539","0.0-245.0","","{""Q0"":""0088""}","","","","","","","","","","","","","","",""
