"rt","key_press","trial_type","trial_index","time_elapsed","internal_node_id","view_history","responses","Id","Rt","ResKeyCode","ResCorr","TrialType2","Image","Label","Location","CorrectResponse","Block","BlockTrial","Condition","LabelType","Subcondition","trialNum"
"76359","32","text","0","76363","0.0-0.0-0.0","","","","","","","","","","","","","","","","",""
"117966","","instructions","1","194332","0.0-1.0","[{""page_index"":0,""viewing_time"":117966}]","","","","","","","","","","","","","","","",""
"41316","","survey-multi-choice","2","235687","0.0-2.0","","{""Q0"":""Da"",""Q1"":""Da"",""Q2"":""Da"",""Q3"":""Da"",""Q4"":""Da"",""Q5"":""Da""}","","","","","","","","","","","","","","",""
"","","bio","3","253232","0.0-3.0","","{""age"":""19"",""gender"":""f"",""specify"":""""}","","","","","","","","","","","","","","",""
"","","approach-retreat","4","267862","0.0-4.0","","","1-1","13116","40","0","Training","Stims/Figures/87-J-10-4.bmp","tapaka","Up","38","1","1","1","P","C","1"
"","","approach-retreat","5","277737","0.0-5.0","","","1-1","8367","38","1","Training","Stims/Figures/94-C-20-2.bmp","nala:na","Down","38","1","2","1","S","C","2"
"","","approach-retreat","6","288794","0.0-6.0","","","1-1","9548","38","0","Training","Stims/Figures/71-C-30-1.bmp","nala:na","Up","40","1","3","1","S","C","3"
"","","approach-retreat","7","299455","0.0-7.0","","","1-1","9154","39","1","Training","Stims/Figures/144-C-30-3.bmp","nala:na","Left","39","1","4","1","S","C","4"
"","","approach-retreat","8","307743","0.0-8.0","","","1-1","6780","40","1","Training","Stims/Figures/100-J-10-3.bmp","tapaka","Down","40","1","5","1","P","C","5"
"","","approach-retreat","9","317783","0.0-9.0","","","1-1","8531","37","0","Training","Stims/Figures/27-J-0-1.bmp","tapaka","Right","39","1","6","1","P","C","6"
"","","approach-retreat","10","328746","0.0-10.0","","","1-1","9456","39","0","Training","Stims/Figures/100-C-30-3.bmp","nala:na","Right","37","1","7","1","S","C","7"
"","","approach-retreat","11","338782","0.0-11.0","","","1-1","8528","40","0","Training","Stims/Figures/74-J-10-4.bmp","tapaka","Up","38","1","8","1","P","C","8"
"","","approach-retreat","12","346676","0.0-12.0","","","1-1","6384","37","0","Training","Stims/Figures/144-J-10-3.bmp","tapaka","Right","39","1","9","1","P","C","9"
"","","approach-retreat","13","353699","0.0-13.0","","","1-1","5518","40","1","Training","Stims/Figures/71-J-0-1.bmp","tapaka","Down","40","1","10","1","P","C","10"
"","","approach-retreat","14","360870","0.0-14.0","","","1-1","5663","38","1","Training","Stims/Figures/87-C-20-4.bmp","nala:na","Down","38","1","11","1","S","C","11"
"","","approach-retreat","15","369186","0.0-15.0","","","1-1","6810","40","1","Training","Stims/Figures/84-C-20-2.bmp","nala:na","Up","40","1","12","1","S","C","12"
"","","approach-retreat","16","377006","0.0-16.0","","","1-1","6313","39","0","Training","Stims/Figures/84-J-0-2.bmp","tapaka","Left","37","1","13","1","P","C","13"
"","","approach-retreat","17","384491","0.0-17.0","","","1-1","5977","37","1","Training","Stims/Figures/27-C-30-1.bmp","nala:na","Right","37","1","14","1","S","C","14"
"","","approach-retreat","18","393512","0.0-18.0","","","1-1","7513","39","1","Training","Stims/Figures/74-C-20-4.bmp","nala:na","Left","39","1","15","1","S","C","15"
"","","approach-retreat","19","400827","0.0-19.0","","","1-1","5806","39","0","Training","Stims/Figures/94-J-0-2.bmp","tapaka","Left","37","1","16","1","P","C","16"
"","","approach-retreat","20","408845","0.0-20.0","","","1-1","6510","37","1","Training","Stims/Figures/100-C-30-3.bmp","nala:na","Right","37","2","1","1","S","C","17"
"","","approach-retreat","21","415236","0.0-21.0","","","1-1","4882","39","0","Training","Stims/Figures/87-J-10-4.bmp","tapaka","Left","37","2","2","1","P","C","18"
"","","approach-retreat","22","423071","0.0-22.0","","","1-1","6328","40","1","Training","Stims/Figures/74-C-20-4.bmp","nala:na","Up","40","2","3","1","S","C","19"
"","","approach-retreat","23","430790","0.0-23.0","","","1-1","6210","39","1","Training","Stims/Figures/144-J-10-3.bmp","tapaka","Right","39","2","4","1","P","C","20"
"","","approach-retreat","24","438139","0.0-24.0","","","1-1","5842","40","0","Training","Stims/Figures/87-C-20-4.bmp","nala:na","Down","38","2","5","1","S","C","21"
"","","approach-retreat","25","449150","0.0-25.0","","","1-1","9502","37","0","Training","Stims/Figures/71-C-30-1.bmp","nala:na","Left","39","2","6","1","S","C","22"
"","","approach-retreat","26","456519","0.0-26.0","","","1-1","5861","40","0","Training","Stims/Figures/27-J-0-1.bmp","tapaka","Up","38","2","7","1","P","C","23"
"","","approach-retreat","27","463163","0.0-27.0","","","1-1","5137","40","0","Training","Stims/Figures/94-C-20-2.bmp","nala:na","Down","38","2","8","1","S","C","24"
"","","approach-retreat","28","469601","0.0-28.0","","","1-1","4891","39","0","Training","Stims/Figures/84-J-0-2.bmp","tapaka","Left","37","2","9","1","P","C","25"
"","","approach-retreat","29","476028","0.0-29.0","","","1-1","4919","37","0","Training","Stims/Figures/27-C-30-1.bmp","nala:na","Left","39","2","10","1","S","C","26"
"","","approach-retreat","30","482355","0.0-30.0","","","1-1","4819","40","1","Training","Stims/Figures/94-J-0-2.bmp","tapaka","Down","40","2","11","1","P","C","27"
"","","approach-retreat","31","491397","0.0-31.0","","","1-1","7535","37","0","Training","Stims/Figures/71-J-0-1.bmp","tapaka","Right","39","2","12","1","P","C","28"
"","","approach-retreat","32","499998","0.0-32.0","","","1-1","7093","38","0","Training","Stims/Figures/144-C-30-3.bmp","nala:na","Up","40","2","13","1","S","C","29"
"","","approach-retreat","33","507825","0.0-33.0","","","1-1","6320","38","0","Training","Stims/Figures/74-J-10-4.bmp","tapaka","Down","40","2","14","1","P","C","30"
"","","approach-retreat","34","516399","0.0-34.0","","","1-1","7066","37","0","Training","Stims/Figures/100-J-10-3.bmp","tapaka","Right","39","2","15","1","P","C","31"
"","","approach-retreat","35","522534","0.0-35.0","","","1-1","4626","40","1","Training","Stims/Figures/84-C-20-2.bmp","nala:na","Up","40","2","16","1","S","C","32"
"","","approach-retreat","36","529161","0.0-36.0","","","1-1","5120","40","1","Training","Stims/Figures/27-C-30-1.bmp","nala:na","Up","40","3","1","1","S","C","33"
"","","approach-retreat","37","536209","0.0-37.0","","","1-1","5540","37","0","Training","Stims/Figures/100-J-10-3.bmp","tapaka","Right","39","3","2","1","P","C","34"
"","","approach-retreat","38","542696","0.0-38.0","","","1-1","4978","39","1","Training","Stims/Figures/74-C-20-4.bmp","nala:na","Left","39","3","3","1","S","C","35"
"","","approach-retreat","39","550105","0.0-39.0","","","1-1","5899","37","0","Training","Stims/Figures/84-C-20-2.bmp","nala:na","Left","39","3","4","1","S","C","36"
"","","approach-retreat","40","556742","0.0-40.0","","","1-1","5131","40","1","Training","Stims/Figures/87-C-20-4.bmp","nala:na","Up","40","3","5","1","S","C","37"
"","","approach-retreat","41","563423","0.0-41.0","","","1-1","5174","38","1","Training","Stims/Figures/71-J-0-1.bmp","tapaka","Up","38","3","6","1","P","C","38"
"","","approach-retreat","42","573834","0.0-42.0","","","1-1","8903","39","0","Training","Stims/Figures/94-C-20-2.bmp","nala:na","Right","37","3","7","1","S","C","39"
"","","approach-retreat","43","580967","0.0-43.0","","","1-1","5626","37","1","Training","Stims/Figures/144-C-30-3.bmp","nala:na","Right","37","3","8","1","S","C","40"
"","","approach-retreat","44","592539","0.0-44.0","","","1-1","10060","39","1","Training","Stims/Figures/74-J-10-4.bmp","tapaka","Right","39","3","9","1","P","C","41"
"","","approach-retreat","45","602414","0.0-45.0","","","1-1","8366","38","0","Training","Stims/Figures/144-J-10-3.bmp","tapaka","Down","40","3","10","1","P","C","42"
"","","approach-retreat","46","610311","0.0-46.0","","","1-1","6389","37","1","Training","Stims/Figures/94-J-0-2.bmp","tapaka","Left","37","3","11","1","P","C","43"
"","","approach-retreat","47","620967","0.0-47.0","","","1-1","9149","40","0","Training","Stims/Figures/84-J-0-2.bmp","tapaka","Up","38","3","12","1","P","C","44"
"","","approach-retreat","48","628343","0.0-48.0","","","1-1","5867","37","1","Training","Stims/Figures/27-J-0-1.bmp","tapaka","Left","37","3","13","1","P","C","45"
"","","approach-retreat","49","636552","0.0-49.0","","","1-1","6699","40","0","Training","Stims/Figures/100-C-30-3.bmp","nala:na","Down","38","3","14","1","S","C","46"
"","","approach-retreat","50","645117","0.0-50.0","","","1-1","7059","40","0","Training","Stims/Figures/71-C-30-1.bmp","nala:na","Down","38","3","15","1","S","C","47"
"","","approach-retreat","51","651405","0.0-51.0","","","1-1","4780","40","1","Training","Stims/Figures/87-J-10-4.bmp","tapaka","Down","40","3","16","1","P","C","48"
"","","approach-retreat","52","657260","0.0-52.0","","","1-1","4347","38","0","Training","Stims/Figures/144-J-10-3.bmp","tapaka","Down","40","4","1","1","P","C","49"
"","","approach-retreat","53","664522","0.0-53.0","","","1-1","5755","37","0","Training","Stims/Figures/87-C-20-4.bmp","nala:na","Left","39","4","2","1","S","C","50"
"","","approach-retreat","54","672516","0.0-54.0","","","1-1","6486","40","1","Training","Stims/Figures/71-C-30-1.bmp","nala:na","Up","40","4","3","1","S","C","51"
"","","approach-retreat","55","680937","0.0-55.0","","","1-1","6915","40","0","Training","Stims/Figures/84-C-20-2.bmp","nala:na","Down","38","4","4","1","S","C","52"
"","","approach-retreat","56","691155","0.0-56.0","","","1-1","8711","37","1","Training","Stims/Figures/100-C-30-3.bmp","nala:na","Right","37","4","5","1","S","C","53"
"","","approach-retreat","57","697740","0.0-57.0","","","1-1","5077","39","1","Training","Stims/Figures/94-C-20-2.bmp","nala:na","Left","39","4","6","1","S","C","54"
"","","approach-retreat","58","706574","0.0-58.0","","","1-1","7322","40","0","Training","Stims/Figures/100-J-10-3.bmp","tapaka","Up","38","4","7","1","P","C","55"
"","","approach-retreat","59","713193","0.0-59.0","","","1-1","5110","38","1","Training","Stims/Figures/84-J-0-2.bmp","tapaka","Up","38","4","8","1","P","C","56"
"","","approach-retreat","60","721683","0.0-60.0","","","1-1","6981","37","0","Training","Stims/Figures/27-C-30-1.bmp","nala:na","Left","39","4","9","1","S","C","57"
"","","approach-retreat","61","730322","0.0-61.0","","","1-1","7132","37","1","Training","Stims/Figures/144-C-30-3.bmp","nala:na","Right","37","4","10","1","S","C","58"
"","","approach-retreat","62","737003","0.0-62.0","","","1-1","5174","40","1","Training","Stims/Figures/74-J-10-4.bmp","tapaka","Down","40","4","11","1","P","C","59"
"","","approach-retreat","63","743875","0.0-63.0","","","1-1","5366","37","0","Training","Stims/Figures/94-J-0-2.bmp","tapaka","Right","39","4","12","1","P","C","60"
"","","approach-retreat","64","751807","0.0-64.0","","","1-1","6424","38","0","Training","Stims/Figures/74-C-20-4.bmp","nala:na","Up","40","4","13","1","S","C","61"
"","","approach-retreat","65","760070","0.0-65.0","","","1-1","6755","37","1","Training","Stims/Figures/71-J-0-1.bmp","tapaka","Left","37","4","14","1","P","C","62"
"","","approach-retreat","66","774019","0.0-66.0","","","1-1","12442","38","0","Training","Stims/Figures/87-J-10-4.bmp","tapaka","Down","40","4","15","1","P","C","63"
"","","approach-retreat","67","785139","0.0-67.0","","","1-1","9613","39","1","Training","Stims/Figures/27-J-0-1.bmp","tapaka","Right","39","4","16","1","P","C","64"
"","","approach-retreat","68","792762","0.0-68.0","","","1-1","6114","38","1","Training","Stims/Figures/94-C-20-2.bmp","nala:na","Down","38","5","1","1","S","C","65"
"","","approach-retreat","69","800701","0.0-69.0","","","1-1","6432","37","1","Training","Stims/Figures/71-C-30-1.bmp","nala:na","Right","37","5","2","1","S","C","66"
"","","approach-retreat","70","807175","0.0-70.0","","","1-1","4968","38","1","Training","Stims/Figures/74-J-10-4.bmp","tapaka","Up","38","5","3","1","P","C","67"
"","","approach-retreat","71","817930","0.0-71.0","","","1-1","9243","38","0","Training","Stims/Figures/84-J-0-2.bmp","tapaka","Down","40","5","4","1","P","C","68"
"","","approach-retreat","72","838739","0.0-72.0","","","1-1","19303","37","0","Training","Stims/Figures/144-J-10-3.bmp","tapaka","Right","39","5","5","1","P","C","69"
"","","approach-retreat","73","851451","0.0-73.0","","","1-1","11203","37","0","Training","Stims/Figures/74-C-20-4.bmp","nala:na","Left","39","5","6","1","S","C","70"
"","","approach-retreat","74","864590","0.0-74.0","","","1-1","11631","40","1","Training","Stims/Figures/27-C-30-1.bmp","nala:na","Up","40","5","7","1","S","C","71"
"","","approach-retreat","75","878423","0.0-75.0","","","1-1","12326","40","1","Training","Stims/Figures/87-J-10-4.bmp","tapaka","Down","40","5","8","1","P","C","72"
"","","approach-retreat","76","889046","0.0-76.0","","","1-1","9116","39","0","Training","Stims/Figures/100-C-30-3.bmp","nala:na","Right","37","5","9","1","S","C","73"
"","","approach-retreat","77","909324","0.0-77.0","","","1-1","18772","39","1","Training","Stims/Figures/71-J-0-1.bmp","tapaka","Right","39","5","10","1","P","C","74"
"","","approach-retreat","78","929691","0.0-78.0","","","1-1","18859","40","0","Training","Stims/Figures/144-C-30-3.bmp","nala:na","Down","38","5","11","1","S","C","75"
"","","approach-retreat","79","943431","0.0-79.0","","","1-1","12233","38","1","Training","Stims/Figures/27-J-0-1.bmp","tapaka","Up","38","5","12","1","P","C","76"
"","","approach-retreat","80","965328","0.0-80.0","","","1-1","20388","39","0","Training","Stims/Figures/94-J-0-2.bmp","tapaka","Left","37","5","13","1","P","C","77"
"","","approach-retreat","81","983368","0.0-81.0","","","1-1","16532","37","1","Training","Stims/Figures/100-J-10-3.bmp","tapaka","Left","37","5","14","1","P","C","78"
"","","approach-retreat","82","998097","0.0-82.0","","","1-1","13222","37","0","Training","Stims/Figures/84-C-20-2.bmp","nala:na","Left","39","5","15","1","S","C","79"
"","","approach-retreat","83","1011454","0.0-83.0","","","1-1","11846","38","0","Training","Stims/Figures/87-C-20-4.bmp","nala:na","Up","40","5","16","1","S","C","80"
"","","approach-retreat","84","1025798","0.0-84.0","","","1-1","12838","39","0","Training","Stims/Figures/84-C-20-2.bmp","nala:na","Right","37","6","1","1","S","C","81"
"","","approach-retreat","85","1043527","0.0-85.0","","","1-1","16222","40","0","Training","Stims/Figures/87-C-20-4.bmp","nala:na","Down","38","6","2","1","S","C","82"
"","","approach-retreat","86","1049966","0.0-86.0","","","1-1","4930","39","1","Training","Stims/Figures/84-J-0-2.bmp","tapaka","Right","39","6","3","1","P","C","83"
"","","approach-retreat","87","1059054","0.0-87.0","","","1-1","7581","38","0","Training","Stims/Figures/27-J-0-1.bmp","tapaka","Down","40","6","4","1","P","C","84"
"","","approach-retreat","88","1065236","0.0-88.0","","","1-1","4676","40","0","Training","Stims/Figures/144-C-30-3.bmp","nala:na","Down","38","6","5","1","S","C","85"
"","","approach-retreat","89","1076194","0.0-89.0","","","1-1","9453","40","1","Training","Stims/Figures/94-C-20-2.bmp","nala:na","Up","40","6","6","1","S","C","86"
"","","approach-retreat","90","1082780","0.0-90.0","","","1-1","5079","37","1","Training","Stims/Figures/71-C-30-1.bmp","nala:na","Right","37","6","7","1","S","C","87"
"","","approach-retreat","91","1088817","0.0-91.0","","","1-1","4530","40","1","Training","Stims/Figures/74-J-10-4.bmp","tapaka","Down","40","6","8","1","P","C","88"
"","","approach-retreat","92","1094799","0.0-92.0","","","1-1","4472","37","0","Training","Stims/Figures/74-C-20-4.bmp","nala:na","Left","39","6","9","1","S","C","89"
"","","approach-retreat","93","1101434","0.0-93.0","","","1-1","5129","38","1","Training","Stims/Figures/100-J-10-3.bmp","tapaka","Up","38","6","10","1","P","C","90"
"","","approach-retreat","94","1108066","0.0-94.0","","","1-1","5124","37","1","Training","Stims/Figures/87-J-10-4.bmp","tapaka","Left","37","6","11","1","P","C","91"
"","","approach-retreat","95","1114983","0.0-95.0","","","1-1","5408","37","1","Training","Stims/Figures/94-J-0-2.bmp","tapaka","Left","37","6","12","1","P","C","92"
"","","approach-retreat","96","1122237","0.0-96.0","","","1-1","5746","39","0","Training","Stims/Figures/144-J-10-3.bmp","tapaka","Left","37","6","13","1","P","C","93"
"","","approach-retreat","97","1130962","0.0-97.0","","","1-1","7215","38","0","Training","Stims/Figures/100-C-30-3.bmp","nala:na","Up","40","6","14","1","S","C","94"
"","","approach-retreat","98","1137867","0.0-98.0","","","1-1","5397","38","1","Training","Stims/Figures/71-J-0-1.bmp","tapaka","Up","38","6","15","1","P","C","95"
"","","approach-retreat","99","1145398","0.0-99.0","","","1-1","6023","39","0","Training","Stims/Figures/27-C-30-1.bmp","nala:na","Right","37","6","16","1","S","C","96"
"","","approach-retreat","100","1151760","0.0-100.0","","","1-1","4852","37","1","Training","Stims/Figures/144-C-30-3.bmp","nala:na","Right","37","7","1","1","S","C","97"
"","","approach-retreat","101","1158556","0.0-101.0","","","1-1","5289","40","1","Training","Stims/Figures/84-C-20-2.bmp","nala:na","Up","40","7","2","1","S","C","98"
"","","approach-retreat","102","1164526","0.0-102.0","","","1-1","4463","37","1","Training","Stims/Figures/71-J-0-1.bmp","tapaka","Left","37","7","3","1","P","C","99"
"","","approach-retreat","103","1170825","0.0-103.0","","","1-1","4793","40","1","Training","Stims/Figures/100-J-10-3.bmp","tapaka","Down","40","7","4","1","P","C","100"
"","","approach-retreat","104","1178066","0.0-104.0","","","1-1","5733","37","1","Training","Stims/Figures/100-C-30-3.bmp","nala:na","Right","37","7","5","1","S","C","101"
"","","approach-retreat","105","1185339","0.0-105.0","","","1-1","5765","38","0","Training","Stims/Figures/27-C-30-1.bmp","nala:na","Up","40","7","6","1","S","C","102"
"","","approach-retreat","106","1191566","0.0-106.0","","","1-1","4720","37","1","Training","Stims/Figures/94-C-20-2.bmp","nala:na","Right","37","7","7","1","S","C","103"
"","","approach-retreat","107","1197461","0.0-107.0","","","1-1","4388","37","1","Training","Stims/Figures/87-J-10-4.bmp","tapaka","Left","37","7","8","1","P","C","104"
"","","approach-retreat","108","1204848","0.0-108.0","","","1-1","5879","38","1","Training","Stims/Figures/74-J-10-4.bmp","tapaka","Up","38","7","9","1","P","C","105"
"","","approach-retreat","109","1222951","0.0-109.0","","","1-1","16594","38","1","Training","Stims/Figures/71-C-30-1.bmp","nala:na","Down","38","7","10","1","S","C","106"
"","","approach-retreat","110","1236691","0.0-110.0","","","1-1","12231","37","1","Training","Stims/Figures/27-J-0-1.bmp","tapaka","Left","37","7","11","1","P","C","107"
"","","approach-retreat","111","1246216","0.0-111.0","","","1-1","8017","38","0","Training","Stims/Figures/74-C-20-4.bmp","nala:na","Up","40","7","12","1","S","C","108"
"","","approach-retreat","112","1253226","0.0-112.0","","","1-1","5500","39","1","Training","Stims/Figures/144-J-10-3.bmp","tapaka","Right","39","7","13","1","P","C","109"
"","","approach-retreat","113","1265708","0.0-113.0","","","1-1","10973","40","1","Training","Stims/Figures/94-J-0-2.bmp","tapaka","Down","40","7","14","1","P","C","110"
"","","approach-retreat","114","1274171","0.0-114.0","","","1-1","6957","37","1","Training","Stims/Figures/84-J-0-2.bmp","tapaka","Left","37","7","15","1","P","C","111"
"","","approach-retreat","115","1290230","0.0-115.0","","","1-1","14551","40","0","Training","Stims/Figures/87-C-20-4.bmp","nala:na","Down","38","7","16","1","S","C","112"
"","","approach-retreat","116","1301997","0.0-116.0","","","1-1","10260","39","0","Training","Stims/Figures/84-C-20-2.bmp","nala:na","Right","37","8","1","1","S","C","113"
"","","approach-retreat","117","1315003","0.0-117.0","","","1-1","11499","39","1","Training","Stims/Figures/71-C-30-1.bmp","nala:na","Left","39","8","2","1","S","C","114"
"","","approach-retreat","118","1328274","0.0-118.0","","","1-1","11764","38","0","Training","Stims/Figures/27-C-30-1.bmp","nala:na","Up","40","8","3","1","S","C","115"
"","","approach-retreat","119","1340774","0.0-119.0","","","1-1","10994","37","1","Training","Stims/Figures/94-J-0-2.bmp","tapaka","Left","37","8","4","1","P","C","116"
"","","approach-retreat","120","1348232","0.0-120.0","","","1-1","5949","37","1","Training","Stims/Figures/94-C-20-2.bmp","nala:na","Right","37","8","5","1","S","C","117"
"","","approach-retreat","121","1358162","0.0-121.0","","","1-1","8423","38","0","Training","Stims/Figures/74-C-20-4.bmp","nala:na","Up","40","8","6","1","S","C","118"
"","","approach-retreat","122","1367165","0.0-122.0","","","1-1","7496","38","1","Training","Stims/Figures/74-J-10-4.bmp","tapaka","Up","38","8","7","1","P","C","119"
"","","approach-retreat","123","1379204","0.0-123.0","","","1-1","10532","39","1","Training","Stims/Figures/144-J-10-3.bmp","tapaka","Right","39","8","8","1","P","C","120"
"","","approach-retreat","124","1392634","0.0-124.0","","","1-1","11922","40","1","Training","Stims/Figures/100-C-30-3.bmp","nala:na","Up","40","8","9","1","S","C","121"
"","","approach-retreat","125","1406525","0.0-125.0","","","1-1","12382","38","0","Training","Stims/Figures/100-J-10-3.bmp","tapaka","Down","40","8","10","1","P","C","122"
"","","approach-retreat","126","1414473","0.0-126.0","","","1-1","6439","39","1","Training","Stims/Figures/84-J-0-2.bmp","tapaka","Right","39","8","11","1","P","C","123"
"","","approach-retreat","127","1426953","0.0-127.0","","","1-1","10971","40","1","Training","Stims/Figures/87-J-10-4.bmp","tapaka","Down","40","8","12","1","P","C","124"
"","","approach-retreat","128","1434671","0.0-128.0","","","1-1","6210","37","1","Training","Stims/Figures/27-J-0-1.bmp","tapaka","Left","37","8","13","1","P","C","125"
"","","approach-retreat","129","1449876","0.0-129.0","","","1-1","13697","40","0","Training","Stims/Figures/87-C-20-4.bmp","nala:na","Down","38","8","14","1","S","C","126"
"","","approach-retreat","130","1465194","0.0-130.0","","","1-1","13810","40","1","Training","Stims/Figures/71-J-0-1.bmp","tapaka","Down","40","8","15","1","P","C","127"
"","","approach-retreat","131","1473605","0.0-131.0","","","1-1","6903","39","1","Training","Stims/Figures/144-C-30-3.bmp","nala:na","Left","39","8","16","1","S","C","128"
"","","approach-retreat","132","1487247","0.0-132.0","","","1-1","12135","40","1","Training","Stims/Figures/71-C-30-1.bmp","nala:na","Up","40","9","1","1","S","C","129"
"","","approach-retreat","133","1502215","0.0-133.0","","","1-1","13460","37","0","Training","Stims/Figures/100-C-30-3.bmp","nala:na","Left","39","9","2","1","S","C","130"
"","","approach-retreat","134","1509987","0.0-134.0","","","1-1","6266","38","1","Training","Stims/Figures/27-J-0-1.bmp","tapaka","Up","38","9","3","1","P","C","131"
"","","approach-retreat","135","1523898","0.0-135.0","","","1-1","12404","38","1","Training","Stims/Figures/144-J-10-3.bmp","tapaka","Up","38","9","4","1","P","C","132"
"","","approach-retreat","136","1536965","0.0-136.0","","","1-1","11558","39","0","Training","Stims/Figures/74-C-20-4.bmp","nala:na","Right","37","9","5","1","S","C","133"
"","","approach-retreat","137","1544714","0.0-137.0","","","1-1","6243","38","1","Training","Stims/Figures/94-C-20-2.bmp","nala:na","Down","38","9","6","1","S","C","134"
"","","approach-retreat","138","1557106","0.0-138.0","","","1-1","10883","39","0","Training","Stims/Figures/84-C-20-2.bmp","nala:na","Right","37","9","7","1","S","C","135"
"","","approach-retreat","139","1566655","0.0-139.0","","","1-1","8040","37","1","Training","Stims/Figures/100-J-10-3.bmp","tapaka","Left","37","9","8","1","P","C","136"
"","","approach-retreat","140","1578665","0.0-140.0","","","1-1","10502","37","1","Training","Stims/Figures/84-J-0-2.bmp","tapaka","Left","37","9","9","1","P","C","137"
"","","approach-retreat","141","1594285","0.0-141.0","","","1-1","14112","40","0","Training","Stims/Figures/144-C-30-3.bmp","nala:na","Down","38","9","10","1","S","C","138"
"","","approach-retreat","142","1601939","0.0-142.0","","","1-1","6146","40","1","Training","Stims/Figures/94-J-0-2.bmp","tapaka","Down","40","9","11","1","P","C","139"
"","","approach-retreat","143","1617597","0.0-143.0","","","1-1","14149","37","0","Training","Stims/Figures/87-C-20-4.bmp","nala:na","Left","39","9","12","1","S","C","140"
"","","approach-retreat","144","1626731","0.0-144.0","","","1-1","7629","39","1","Training","Stims/Figures/87-J-10-4.bmp","tapaka","Right","39","9","13","1","P","C","141"
"","","approach-retreat","145","1640834","0.0-145.0","","","1-1","12595","40","1","Training","Stims/Figures/74-J-10-4.bmp","tapaka","Down","40","9","14","1","P","C","142"
"","","approach-retreat","146","1649063","0.0-146.0","","","1-1","6720","39","1","Training","Stims/Figures/71-J-0-1.bmp","tapaka","Right","39","9","15","1","P","C","143"
"","","approach-retreat","147","1670596","0.0-147.0","","","1-1","20026","40","1","Training","Stims/Figures/27-C-30-1.bmp","nala:na","Up","40","9","16","1","S","C","144"
"19097","","instructions","148","1689694","0.0-148.0","[{""page_index"":0,""viewing_time"":19097}]","","","","","","","","","","","","","","","",""
"","","approach-retreat","149","1707311","0.0-149.0","","","1-1","16112","39","1","Testing","Stims/Figures/87-J-10-4.bmp","tapaka","Right","39","1","1","1","P","C","1"
"","","approach-retreat","150","1722656","0.0-150.0","","","1-1","13839","40","1","Testing","Stims/Figures/71-J-0-1.bmp","tapaka","Down","40","1","2","1","P","C","2"
"","","approach-retreat","151","1736538","0.0-151.0","","","1-1","12377","38","1","Testing","Stims/Figures/100-C-30-3.bmp","nala:na","Down","38","1","3","1","S","C","3"
"","","approach-retreat","152","1749345","0.0-152.0","","","1-1","11299","40","1","Testing","Stims/Figures/84-J-0-2.bmp","tapaka","Down","40","1","4","1","P","C","4"
"","","approach-retreat","153","1766210","0.0-153.0","","","1-1","15359","38","1","Testing","Stims/Figures/128-J-10-3.bmp","tapaka","Up","38","1","5","1","P","C","5"
"","","approach-retreat","154","1783090","0.0-154.0","","","1-1","15373","37","0","Testing","Stims/Figures/86-C-30-1.bmp","nala:na","Left","39","1","6","1","S","C","6"
"","","approach-retreat","155","1801716","0.0-155.0","","","1-1","17121","40","0","Testing","Stims/Figures/74-C-20-4.bmp","nala:na","Down","38","1","7","1","S","C","7"
"","","approach-retreat","156","1814681","0.0-156.0","","","1-1","11454","37","1","Testing","Stims/Figures/74-J-10-4.bmp","tapaka","Left","37","1","8","1","P","C","8"
"","","approach-retreat","157","1827783","0.0-157.0","","","1-1","11597","38","0","Testing","Stims/Figures/84-C-20-2.bmp","nala:na","Up","40","1","9","1","S","C","9"
"","","approach-retreat","158","1838863","0.0-158.0","","","1-1","9573","37","0","Testing","Stims/Figures/87-C-20-4.bmp","nala:na","Left","39","1","10","1","S","C","10"
"","","approach-retreat","159","1850346","0.0-159.0","","","1-1","9977","37","1","Testing","Stims/Figures/27-C-30-1.bmp","nala:na","Right","37","1","11","1","S","C","11"
"","","approach-retreat","160","1869614","0.0-160.0","","","1-1","17760","39","0","Testing","Stims/Figures/86-J-0-1.bmp","tapaka","Left","37","1","12","1","P","C","12"
"","","approach-retreat","161","1881596","0.0-161.0","","","1-1","10476","38","0","Testing","Stims/Figures/100-J-10-3.bmp","tapaka","Down","40","1","13","1","P","C","13"
"","","approach-retreat","162","1893309","0.0-162.0","","","1-1","10206","39","1","Testing","Stims/Figures/7-J-10-4.bmp","tapaka","Right","39","1","14","1","P","C","14"
"","","approach-retreat","163","1917350","0.0-163.0","","","1-1","22534","40","1","Testing","Stims/Figures/144-C-30-3.bmp","nala:na","Up","40","1","15","1","S","C","15"
"","","approach-retreat","164","1931533","0.0-164.0","","","1-1","12676","38","1","Testing","Stims/Figures/144-J-10-3.bmp","tapaka","Up","38","1","16","1","P","C","16"
"","","approach-retreat","165","1944630","0.0-165.0","","","1-1","11588","37","0","Testing","Stims/Figures/128-C-30-3.bmp","nala:na","Left","39","1","17","1","S","C","17"
"","","approach-retreat","166","1952015","0.0-166.0","","","1-1","5878","39","1","Testing","Stims/Figures/94-C-20-2.bmp","nala:na","Left","39","1","18","1","S","C","18"
"","","approach-retreat","167","1958579","0.0-167.0","","","1-1","5052","40","1","Testing","Stims/Figures/27-J-0-1.bmp","tapaka","Down","40","1","19","1","P","C","19"
"","","approach-retreat","168","1968124","0.0-168.0","","","1-1","8038","40","1","Testing","Stims/Figures/71-C-30-1.bmp","nala:na","Up","40","1","20","1","S","C","20"
"","","approach-retreat","169","1982478","0.0-169.0","","","1-1","12845","39","0","Testing","Stims/Figures/85-C-20-2.bmp","nala:na","Right","37","1","21","1","S","C","21"
"","","approach-retreat","170","1996323","0.0-170.0","","","1-1","12338","38","0","Testing","Stims/Figures/7-C-20-4.bmp","nala:na","Up","40","1","22","1","S","C","22"
"","","approach-retreat","171","2003189","0.0-171.0","","","1-1","5360","39","1","Testing","Stims/Figures/85-J-0-2.bmp","tapaka","Right","39","1","23","1","P","C","23"
"","","approach-retreat","172","2011828","0.0-172.0","","","1-1","7132","39","1","Testing","Stims/Figures/94-J-0-2.bmp","tapaka","Right","39","1","24","1","P","C","24"
"","","approach-retreat","173","2026078","0.0-173.0","","","1-1","12743","37","0","Testing","Stims/Figures/100-J-10-3.bmp","tapaka","Right","39","2","1","1","P","C","25"
"","","approach-retreat","174","2038125","0.0-174.0","","","1-1","10542","39","1","Testing","Stims/Figures/71-C-30-1.bmp","nala:na","Left","39","2","2","1","S","C","26"
"","","approach-retreat","175","2050636","0.0-175.0","","","1-1","11003","40","0","Testing","Stims/Figures/84-C-20-2.bmp","nala:na","Down","38","2","3","1","S","C","27"
"","","approach-retreat","176","2066224","0.0-176.0","","","1-1","14084","40","1","Testing","Stims/Figures/86-J-0-1.bmp","tapaka","Down","40","2","4","1","P","C","28"
"","","approach-retreat","177","2082751","0.0-177.0","","","1-1","15020","37","0","Testing","Stims/Figures/74-C-20-4.bmp","nala:na","Left","39","2","5","1","S","C","29"
"","","approach-retreat","178","2095828","0.0-178.0","","","1-1","11571","39","0","Testing","Stims/Figures/144-C-30-3.bmp","nala:na","Right","37","2","6","1","S","C","30"
"","","approach-retreat","179","2104303","0.0-179.0","","","1-1","6970","38","0","Testing","Stims/Figures/85-C-20-2.bmp","nala:na","Up","40","2","7","1","S","C","31"
"","","approach-retreat","180","2113653","0.0-180.0","","","1-1","7845","37","1","Testing","Stims/Figures/71-J-0-1.bmp","tapaka","Left","37","2","8","1","P","C","32"
"","","approach-retreat","181","2123761","0.0-181.0","","","1-1","8602","40","1","Testing","Stims/Figures/7-J-10-4.bmp","tapaka","Down","40","2","9","1","P","C","33"
"","","approach-retreat","182","2135160","0.0-182.0","","","1-1","9894","40","1","Testing","Stims/Figures/94-C-20-2.bmp","nala:na","Up","40","2","10","1","S","C","34"
"","","approach-retreat","183","2153021","0.0-183.0","","","1-1","16356","39","1","Testing","Stims/Figures/85-J-0-2.bmp","tapaka","Right","39","2","11","1","P","C","35"
"","","approach-retreat","184","2166048","0.0-184.0","","","1-1","11520","39","1","Testing","Stims/Figures/27-C-30-1.bmp","nala:na","Left","39","2","12","1","S","C","36"
"","","approach-retreat","185","2176468","0.0-185.0","","","1-1","8914","39","1","Testing","Stims/Figures/144-J-10-3.bmp","tapaka","Right","39","2","13","1","P","C","37"
"","","approach-retreat","186","2191571","0.0-186.0","","","1-1","13595","40","1","Testing","Stims/Figures/27-J-0-1.bmp","tapaka","Down","40","2","14","1","P","C","38"
"","","approach-retreat","187","2202165","0.0-187.0","","","1-1","9088","40","1","Testing","Stims/Figures/100-C-30-3.bmp","nala:na","Up","40","2","15","1","S","C","39"
"","","approach-retreat","188","2213683","0.0-188.0","","","1-1","10012","40","1","Testing","Stims/Figures/87-J-10-4.bmp","tapaka","Down","40","2","16","1","P","C","40"
"","","approach-retreat","189","2226672","0.0-189.0","","","1-1","11482","40","1","Testing","Stims/Figures/128-C-30-3.bmp","nala:na","Up","40","2","17","1","S","C","41"
"","","approach-retreat","190","2239896","0.0-190.0","","","1-1","11717","38","0","Testing","Stims/Figures/7-C-20-4.bmp","nala:na","Up","40","2","18","1","S","C","42"
"","","approach-retreat","191","2250454","0.0-191.0","","","1-1","9052","40","0","Testing","Stims/Figures/128-J-10-3.bmp","tapaka","Up","38","2","19","1","P","C","43"
"","","approach-retreat","192","2260863","0.0-192.0","","","1-1","8903","39","1","Testing","Stims/Figures/94-J-0-2.bmp","tapaka","Right","39","2","20","1","P","C","44"
"","","approach-retreat","193","2273396","0.0-193.0","","","1-1","11028","37","0","Testing","Stims/Figures/86-C-30-1.bmp","nala:na","Left","39","2","21","1","S","C","45"
"","","approach-retreat","194","2287574","0.0-194.0","","","1-1","12670","40","0","Testing","Stims/Figures/87-C-20-4.bmp","nala:na","Down","38","2","22","1","S","C","46"
"","","approach-retreat","195","2298667","0.0-195.0","","","1-1","9589","39","1","Testing","Stims/Figures/84-J-0-2.bmp","tapaka","Right","39","2","23","1","P","C","47"
"","","approach-retreat","196","2311217","0.0-196.0","","","1-1","11041","37","1","Testing","Stims/Figures/74-J-10-4.bmp","tapaka","Left","37","2","24","1","P","C","48"
"","","approach-retreat","197","2320286","0.0-197.0","","","1-1","7563","40","1","Testing","Stims/Figures/27-J-0-1.bmp","tapaka","Down","40","3","1","1","P","C","49"
"","","approach-retreat","198","2331322","0.0-198.0","","","1-1","9529","37","1","Testing","Stims/Figures/71-J-0-1.bmp","tapaka","Left","37","3","2","1","P","C","50"
"","","approach-retreat","199","2341580","0.0-199.0","","","1-1","8753","38","0","Testing","Stims/Figures/85-C-20-2.bmp","nala:na","Up","40","3","3","1","S","C","51"
"","","approach-retreat","200","2354532","0.0-200.0","","","1-1","11446","39","1","Testing","Stims/Figures/84-J-0-2.bmp","tapaka","Right","39","3","4","1","P","C","52"
"","","approach-retreat","201","2365998","0.0-201.0","","","1-1","9956","40","0","Testing","Stims/Figures/100-J-10-3.bmp","tapaka","Up","38","3","5","1","P","C","53"
"","","approach-retreat","202","2371871","0.0-202.0","","","1-1","4367","37","1","Testing","Stims/Figures/85-J-0-2.bmp","tapaka","Left","37","3","6","1","P","C","54"
"","","approach-retreat","203","2377617","0.0-203.0","","","1-1","4239","38","0","Testing","Stims/Figures/87-J-10-4.bmp","tapaka","Down","40","3","7","1","P","C","55"
"","","approach-retreat","204","2388785","0.0-204.0","","","1-1","9662","37","1","Testing","Stims/Figures/128-J-10-3.bmp","tapaka","Left","37","3","8","1","P","C","56"
"","","approach-retreat","205","2399717","0.0-205.0","","","1-1","9425","40","1","Testing","Stims/Figures/7-C-20-4.bmp","nala:na","Up","40","3","9","1","S","C","57"
"","","approach-retreat","206","2410446","0.0-206.0","","","1-1","9223","40","1","Testing","Stims/Figures/86-C-30-1.bmp","nala:na","Up","40","3","10","1","S","C","58"
"","","approach-retreat","207","2430394","0.0-207.0","","","1-1","18442","40","1","Testing","Stims/Figures/144-C-30-3.bmp","nala:na","Up","40","3","11","1","S","C","59"
"","","approach-retreat","208","2437168","0.0-208.0","","","1-1","5267","40","1","Testing","Stims/Figures/74-J-10-4.bmp","tapaka","Down","40","3","12","1","P","C","60"
"","","approach-retreat","209","2449736","0.0-209.0","","","1-1","11063","40","0","Testing","Stims/Figures/100-C-30-3.bmp","nala:na","Down","38","3","13","1","S","C","61"
"","","approach-retreat","210","2456964","0.0-210.0","","","1-1","5720","37","1","Testing","Stims/Figures/94-C-20-2.bmp","nala:na","Right","37","3","14","1","S","C","62"
"","","approach-retreat","211","2466034","0.0-211.0","","","1-1","7565","40","0","Testing","Stims/Figures/87-C-20-4.bmp","nala:na","Down","38","3","15","1","S","C","63"
"","","approach-retreat","212","2479256","0.0-212.0","","","1-1","11716","37","0","Testing","Stims/Figures/74-C-20-4.bmp","nala:na","Left","39","3","16","1","S","C","64"
"","","approach-retreat","213","2487054","0.0-213.0","","","1-1","6291","39","1","Testing","Stims/Figures/86-J-0-1.bmp","tapaka","Right","39","3","17","1","P","C","65"
"","","approach-retreat","214","2499463","0.0-214.0","","","1-1","10902","37","0","Testing","Stims/Figures/7-J-10-4.bmp","tapaka","Right","39","3","18","1","P","C","66"
"","","approach-retreat","215","2508149","0.0-215.0","","","1-1","7180","40","0","Testing","Stims/Figures/84-C-20-2.bmp","nala:na","Down","38","3","19","1","S","C","67"
"","","approach-retreat","216","2521134","0.0-216.0","","","1-1","11478","39","1","Testing","Stims/Figures/71-C-30-1.bmp","nala:na","Left","39","3","20","1","S","C","68"
"","","approach-retreat","217","2528137","0.0-217.0","","","1-1","5498","39","1","Testing","Stims/Figures/94-J-0-2.bmp","tapaka","Right","39","3","21","1","P","C","69"
"","","approach-retreat","218","2543462","0.0-218.0","","","1-1","13819","39","1","Testing","Stims/Figures/27-C-30-1.bmp","nala:na","Left","39","3","22","1","S","C","70"
"","","approach-retreat","219","2554873","0.0-219.0","","","1-1","9906","40","1","Testing","Stims/Figures/128-C-30-3.bmp","nala:na","Up","40","3","23","1","S","C","71"
"","","approach-retreat","220","2568329","0.0-220.0","","","1-1","11950","39","1","Testing","Stims/Figures/144-J-10-3.bmp","tapaka","Right","39","3","24","1","P","C","72"
"","","approach-retreat","221","2584870","0.0-221.0","","","1-1","15035","38","1","Testing","Stims/Figures/27-J-0-1.bmp","tapaka","Up","38","4","1","1","P","C","73"
"","","approach-retreat","222","2602678","0.0-222.0","","","1-1","16302","40","0","Testing","Stims/Figures/100-C-30-3.bmp","nala:na","Down","38","4","2","1","S","C","74"
"","","approach-retreat","223","2609437","0.0-223.0","","","1-1","5253","40","0","Testing","Stims/Figures/87-C-20-4.bmp","nala:na","Down","38","4","3","1","S","C","75"
"","","approach-retreat","224","2618284","0.0-224.0","","","1-1","7338","40","0","Testing","Stims/Figures/7-C-20-4.bmp","nala:na","Down","38","4","4","1","S","C","76"
"","","approach-retreat","225","2628116","0.0-225.0","","","1-1","8325","38","1","Testing","Stims/Figures/94-J-0-2.bmp","tapaka","Up","38","4","5","1","P","C","77"
"","","approach-retreat","226","2642430","0.0-226.0","","","1-1","12808","37","1","Testing","Stims/Figures/7-J-10-4.bmp","tapaka","Left","37","4","6","1","P","C","78"
"","","approach-retreat","227","2651343","0.0-227.0","","","1-1","7408","39","1","Testing","Stims/Figures/144-J-10-3.bmp","tapaka","Right","39","4","7","1","P","C","79"
"","","approach-retreat","228","2659986","0.0-228.0","","","1-1","7137","37","1","Testing","Stims/Figures/84-J-0-2.bmp","tapaka","Left","37","4","8","1","P","C","80"
"","","approach-retreat","229","2667992","0.0-229.0","","","1-1","6501","39","1","Testing","Stims/Figures/74-J-10-4.bmp","tapaka","Right","39","4","9","1","P","C","81"
"","","approach-retreat","230","2681266","0.0-230.0","","","1-1","11769","37","1","Testing","Stims/Figures/86-J-0-1.bmp","tapaka","Left","37","4","10","1","P","C","82"
"","","approach-retreat","231","2687601","0.0-231.0","","","1-1","4827","37","1","Testing","Stims/Figures/85-J-0-2.bmp","tapaka","Left","37","4","11","1","P","C","83"
"","","approach-retreat","232","2697294","0.0-232.0","","","1-1","8186","39","0","Testing","Stims/Figures/86-C-30-1.bmp","nala:na","Right","37","4","12","1","S","C","84"
"","","approach-retreat","233","2710832","0.0-233.0","","","1-1","12029","38","0","Testing","Stims/Figures/85-C-20-2.bmp","nala:na","Up","40","4","13","1","S","C","85"
"","","approach-retreat","234","2719914","0.0-234.0","","","1-1","7576","38","1","Testing","Stims/Figures/94-C-20-2.bmp","nala:na","Down","38","4","14","1","S","C","86"
"","","approach-retreat","235","2735098","0.0-235.0","","","1-1","13678","39","1","Testing","Stims/Figures/100-J-10-3.bmp","tapaka","Right","39","4","15","1","P","C","87"
"","","approach-retreat","236","2744946","0.0-236.0","","","1-1","8342","37","0","Testing","Stims/Figures/128-C-30-3.bmp","nala:na","Left","39","4","16","1","S","C","88"
"","","approach-retreat","237","2755944","0.0-237.0","","","1-1","9492","39","0","Testing","Stims/Figures/74-C-20-4.bmp","nala:na","Right","37","4","17","1","S","C","89"
"","","approach-retreat","238","2764955","0.0-238.0","","","1-1","7505","40","1","Testing","Stims/Figures/128-J-10-3.bmp","tapaka","Down","40","4","18","1","P","C","90"
"","","approach-retreat","239","2774581","0.0-239.0","","","1-1","8121","38","1","Testing","Stims/Figures/71-J-0-1.bmp","tapaka","Up","38","4","19","1","P","C","91"
"","","approach-retreat","240","2789480","0.0-240.0","","","1-1","13393","37","0","Testing","Stims/Figures/144-C-30-3.bmp","nala:na","Left","39","4","20","1","S","C","92"
"","","approach-retreat","241","2802084","0.0-241.0","","","1-1","11096","38","1","Testing","Stims/Figures/84-C-20-2.bmp","nala:na","Down","38","4","21","1","S","C","93"
"","","approach-retreat","242","2813752","0.0-242.0","","","1-1","10163","40","0","Testing","Stims/Figures/87-J-10-4.bmp","tapaka","Up","38","4","22","1","P","C","94"
"","","approach-retreat","243","2831160","0.0-243.0","","","1-1","15903","40","1","Testing","Stims/Figures/27-C-30-1.bmp","nala:na","Up","40","4","23","1","S","C","95"
"","","approach-retreat","244","2842403","0.0-244.0","","","1-1","9737","37","1","Testing","Stims/Figures/71-C-30-1.bmp","nala:na","Right","37","4","24","1","S","C","96"
"26473","","survey-text","245","2868882","0.0-245.0","","{""Q0"":""1065""}","","","","","","","","","","","","","","",""
