"rt","key_press","trial_type","trial_index","time_elapsed","internal_node_id","view_history","responses","Id","Rt","ResKeyCode","ResCorr","TrialType2","Image","Label","Location","CorrectResponse","Block","BlockTrial","Condition","LabelType","Subcondition","trialNum"
"30749","32","text","0","30756","0.0-0.0-0.0","","","","","","","","","","","","","","","","",""
"128223","","instructions","1","158981","0.0-1.0","[{""page_index"":0,""viewing_time"":128223}]","","","","","","","","","","","","","","","",""
"17585","","survey-multi-choice","2","176615","0.0-2.0","","{""Q0"":""Da"",""Q1"":""Da"",""Q2"":""Da"",""Q3"":""Da"",""Q4"":""Da"",""Q5"":""Da""}","","","","","","","","","","","","","","",""
"","","bio","3","185297","0.0-3.0","","{""age"":""19"",""gender"":""f"",""specify"":""""}","","","","","","","","","","","","","","",""
"","","approach-retreat","4","192050","0.0-4.0","","","2-2","5228","37","1","Training","Stims/Figures/71-C-30-1.bmp","mama:la","Right","37","1","1","4","S","C","1"
"","","approach-retreat","5","197744","0.0-5.0","","","2-2","4146","39","1","Training","Stims/Figures/44-J-10-3.bmp","pa:kaka","Right","39","1","2","4","P","C","2"
"","","approach-retreat","6","204337","0.0-6.0","","","2-2","5052","39","1","Training","Stims/Figures/85-C-20-2.bmp","mala:na","Left","39","1","3","4","S","C","3"
"","","approach-retreat","7","211033","0.0-7.0","","","2-2","5140","38","1","Training","Stims/Figures/71-J-0-1.bmp","ta:pa:ta","Up","38","1","4","4","P","C","4"
"","","approach-retreat","8","217291","0.0-8.0","","","2-2","4710","37","1","Training","Stims/Figures/93-J-0-1.bmp","pa:ka:ta","Left","37","1","5","4","P","C","5"
"","","approach-retreat","9","223595","0.0-9.0","","","2-2","4787","38","1","Training","Stims/Figures/139-C-20-2.bmp","ma:mala","Down","38","1","6","4","S","C","6"
"","","approach-retreat","10","230056","0.0-10.0","","","2-2","4914","39","1","Training","Stims/Figures/139-J-0-2.bmp","ta:ka:ta","Right","39","1","7","4","P","C","7"
"","","approach-retreat","11","236782","0.0-11.0","","","2-2","5176","38","1","Training","Stims/Figures/74-J-10-4.bmp","tapaka","Up","38","1","8","4","P","C","8"
"","","approach-retreat","12","242956","0.0-12.0","","","2-2","4630","37","1","Training","Stims/Figures/87-J-10-4.bmp","papa:ta","Left","37","1","9","4","P","C","9"
"","","approach-retreat","13","249059","0.0-13.0","","","2-2","4557","38","1","Training","Stims/Figures/74-C-20-4.bmp","malala","Down","38","1","10","4","S","C","10"
"","","approach-retreat","14","255009","0.0-14.0","","","2-2","4408","38","1","Training","Stims/Figures/93-C-30-1.bmp","na:ma:na","Down","38","1","11","4","S","C","11"
"","","approach-retreat","15","261524","0.0-15.0","","","2-2","4963","39","1","Training","Stims/Figures/144-J-10-3.bmp","ta:pata","Right","39","1","12","4","P","C","12"
"","","approach-retreat","16","267769","0.0-16.0","","","2-2","4702","40","1","Training","Stims/Figures/87-C-20-4.bmp","ma:lala","Up","40","1","13","4","S","C","13"
"","","approach-retreat","17","274868","0.0-17.0","","","2-2","5556","38","0","Training","Stims/Figures/44-C-30-3.bmp","nala:na","Up","40","1","14","4","S","C","14"
"","","approach-retreat","18","281123","0.0-18.0","","","2-2","4712","38","1","Training","Stims/Figures/144-C-30-3.bmp","nala:la","Down","38","1","15","4","S","C","15"
"","","approach-retreat","19","287250","0.0-19.0","","","2-2","4583","37","1","Training","Stims/Figures/85-J-0-2.bmp","pakata","Left","37","1","16","4","P","C","16"
"","","approach-retreat","20","293245","0.0-20.0","","","2-2","4452","39","1","Training","Stims/Figures/71-C-30-1.bmp","mama:la","Left","39","2","1","4","S","C","17"
"","","approach-retreat","21","299480","0.0-21.0","","","2-2","4691","40","1","Training","Stims/Figures/144-C-30-3.bmp","nala:la","Up","40","2","2","4","S","C","18"
"","","approach-retreat","22","305692","0.0-22.0","","","2-2","4666","37","1","Training","Stims/Figures/144-J-10-3.bmp","ta:pata","Left","37","2","3","4","P","C","19"
"","","approach-retreat","23","311712","0.0-23.0","","","2-2","4500","38","1","Training","Stims/Figures/93-J-0-1.bmp","pa:ka:ta","Up","38","2","4","4","P","C","20"
"","","approach-retreat","24","317849","0.0-24.0","","","2-2","4589","40","1","Training","Stims/Figures/74-J-10-4.bmp","tapaka","Down","40","2","5","4","P","C","21"
"","","approach-retreat","25","324078","0.0-25.0","","","2-2","4686","40","1","Training","Stims/Figures/44-C-30-3.bmp","nala:na","Up","40","2","6","4","S","C","22"
"","","approach-retreat","26","330066","0.0-26.0","","","2-2","4448","38","1","Training","Stims/Figures/44-J-10-3.bmp","pa:kaka","Up","38","2","7","4","P","C","23"
"","","approach-retreat","27","337639","0.0-27.0","","","2-2","6030","38","1","Training","Stims/Figures/93-C-30-1.bmp","na:ma:na","Down","38","2","8","4","S","C","24"
"","","approach-retreat","28","343683","0.0-28.0","","","2-2","4498","37","1","Training","Stims/Figures/87-J-10-4.bmp","papa:ta","Left","37","2","9","4","P","C","25"
"","","approach-retreat","29","349791","0.0-29.0","","","2-2","4569","38","1","Training","Stims/Figures/85-C-20-2.bmp","mala:na","Down","38","2","10","4","S","C","26"
"","","approach-retreat","30","357712","0.0-30.0","","","2-2","6379","39","1","Training","Stims/Figures/139-J-0-2.bmp","ta:ka:ta","Right","39","2","11","4","P","C","27"
"","","approach-retreat","31","363749","0.0-31.0","","","2-2","4492","39","1","Training","Stims/Figures/74-C-20-4.bmp","malala","Left","39","2","12","4","S","C","28"
"","","approach-retreat","32","371338","0.0-32.0","","","2-2","6051","39","1","Training","Stims/Figures/85-J-0-2.bmp","pakata","Right","39","2","13","4","P","C","29"
"","","approach-retreat","33","377976","0.0-33.0","","","2-2","5094","40","1","Training","Stims/Figures/71-J-0-1.bmp","ta:pa:ta","Down","40","2","14","4","P","C","30"
"","","approach-retreat","34","384018","0.0-34.0","","","2-2","4500","37","1","Training","Stims/Figures/87-C-20-4.bmp","ma:lala","Right","37","2","15","4","S","C","31"
"","","approach-retreat","35","391062","0.0-35.0","","","2-2","5493","37","1","Training","Stims/Figures/139-C-20-2.bmp","ma:mala","Right","37","2","16","4","S","C","32"
"","","approach-retreat","36","396934","0.0-36.0","","","2-2","4330","39","1","Training","Stims/Figures/144-C-30-3.bmp","nala:la","Left","39","3","1","4","S","C","33"
"","","approach-retreat","37","403055","0.0-37.0","","","2-2","4578","38","1","Training","Stims/Figures/74-C-20-4.bmp","malala","Down","38","3","2","4","S","C","34"
"","","approach-retreat","38","409094","0.0-38.0","","","2-2","4503","40","1","Training","Stims/Figures/87-J-10-4.bmp","papa:ta","Down","40","3","3","4","P","C","35"
"","","approach-retreat","39","414976","0.0-39.0","","","2-2","4326","38","1","Training","Stims/Figures/93-C-30-1.bmp","na:ma:na","Down","38","3","4","4","S","C","36"
"","","approach-retreat","40","421034","0.0-40.0","","","2-2","4516","37","1","Training","Stims/Figures/144-J-10-3.bmp","ta:pata","Left","37","3","5","4","P","C","37"
"","","approach-retreat","41","427552","0.0-41.0","","","2-2","4972","38","1","Training","Stims/Figures/139-J-0-2.bmp","ta:ka:ta","Up","38","3","6","4","P","C","38"
"","","approach-retreat","42","434191","0.0-42.0","","","2-2","5103","38","1","Training","Stims/Figures/93-J-0-1.bmp","pa:ka:ta","Up","38","3","7","4","P","C","39"
"","","approach-retreat","43","441655","0.0-43.0","","","2-2","5923","37","1","Training","Stims/Figures/87-C-20-4.bmp","ma:lala","Right","37","3","8","4","S","C","40"
"","","approach-retreat","44","448038","0.0-44.0","","","2-2","4844","37","1","Training","Stims/Figures/74-J-10-4.bmp","tapaka","Left","37","3","9","4","P","C","41"
"","","approach-retreat","45","454411","0.0-45.0","","","2-2","4842","37","1","Training","Stims/Figures/71-C-30-1.bmp","mama:la","Right","37","3","10","4","S","C","42"
"","","approach-retreat","46","460324","0.0-46.0","","","2-2","4370","39","1","Training","Stims/Figures/44-C-30-3.bmp","nala:na","Left","39","3","11","4","S","C","43"
"","","approach-retreat","47","466828","0.0-47.0","","","2-2","4974","38","1","Training","Stims/Figures/85-J-0-2.bmp","pakata","Up","38","3","12","4","P","C","44"
"","","approach-retreat","48","473173","0.0-48.0","","","2-2","4806","38","1","Training","Stims/Figures/44-J-10-3.bmp","pa:kaka","Up","38","3","13","4","P","C","45"
"","","approach-retreat","49","479614","0.0-49.0","","","2-2","4892","37","1","Training","Stims/Figures/139-C-20-2.bmp","ma:mala","Right","37","3","14","4","S","C","46"
"","","approach-retreat","50","486046","0.0-50.0","","","2-2","4885","40","1","Training","Stims/Figures/71-J-0-1.bmp","ta:pa:ta","Down","40","3","15","4","P","C","47"
"","","approach-retreat","51","491958","0.0-51.0","","","2-2","4368","37","1","Training","Stims/Figures/85-C-20-2.bmp","mala:na","Right","37","3","16","4","S","C","48"
"","","approach-retreat","52","497866","0.0-52.0","","","2-2","4381","38","1","Training","Stims/Figures/71-J-0-1.bmp","ta:pa:ta","Up","38","4","1","4","P","C","49"
"","","approach-retreat","53","504403","0.0-53.0","","","2-2","5015","38","1","Training","Stims/Figures/44-C-30-3.bmp","nala:na","Down","38","4","2","4","S","C","50"
"","","approach-retreat","54","510327","0.0-54.0","","","2-2","4395","37","1","Training","Stims/Figures/139-J-0-2.bmp","ta:ka:ta","Left","37","4","3","4","P","C","51"
"","","approach-retreat","55","516282","0.0-55.0","","","2-2","4411","40","1","Training","Stims/Figures/44-J-10-3.bmp","pa:kaka","Down","40","4","4","4","P","C","52"
"","","approach-retreat","56","522301","0.0-56.0","","","2-2","4487","37","1","Training","Stims/Figures/93-C-30-1.bmp","na:ma:na","Right","37","4","5","4","S","C","53"
"","","approach-retreat","57","529489","0.0-57.0","","","2-2","5651","39","1","Training","Stims/Figures/144-J-10-3.bmp","ta:pata","Right","39","4","6","4","P","C","54"
"","","approach-retreat","58","535620","0.0-58.0","","","2-2","4593","39","1","Training","Stims/Figures/87-C-20-4.bmp","ma:lala","Left","39","4","7","4","S","C","55"
"","","approach-retreat","59","541621","0.0-59.0","","","2-2","4475","37","1","Training","Stims/Figures/139-C-20-2.bmp","ma:mala","Right","37","4","8","4","S","C","56"
"","","approach-retreat","60","548640","0.0-60.0","","","2-2","5485","38","1","Training","Stims/Figures/93-J-0-1.bmp","pa:ka:ta","Up","38","4","9","4","P","C","57"
"","","approach-retreat","61","554996","0.0-61.0","","","2-2","4838","38","1","Training","Stims/Figures/71-C-30-1.bmp","mama:la","Down","38","4","10","4","S","C","58"
"","","approach-retreat","62","561085","0.0-62.0","","","2-2","4577","38","1","Training","Stims/Figures/85-J-0-2.bmp","pakata","Up","38","4","11","4","P","C","59"
"","","approach-retreat","63","568125","0.0-63.0","","","2-2","5519","39","1","Training","Stims/Figures/144-C-30-3.bmp","nala:la","Left","39","4","12","4","S","C","60"
"","","approach-retreat","64","574223","0.0-64.0","","","2-2","4588","38","1","Training","Stims/Figures/87-J-10-4.bmp","papa:ta","Up","38","4","13","4","P","C","61"
"","","approach-retreat","65","580773","0.0-65.0","","","2-2","5032","37","1","Training","Stims/Figures/74-C-20-4.bmp","malala","Right","37","4","14","4","S","C","62"
"","","approach-retreat","66","586710","0.0-66.0","","","2-2","4413","40","1","Training","Stims/Figures/74-J-10-4.bmp","tapaka","Down","40","4","15","4","P","C","63"
"","","approach-retreat","67","592461","0.0-67.0","","","2-2","4214","39","1","Training","Stims/Figures/85-C-20-2.bmp","mala:na","Left","39","4","16","4","S","C","64"
"","","approach-retreat","68","598525","0.0-68.0","","","2-2","4540","37","1","Training","Stims/Figures/87-J-10-4.bmp","papa:ta","Left","37","5","1","4","P","C","65"
"","","approach-retreat","69","604509","0.0-69.0","","","2-2","4466","39","1","Training","Stims/Figures/85-J-0-2.bmp","pakata","Right","39","5","2","4","P","C","66"
"","","approach-retreat","70","611219","0.0-70.0","","","2-2","5183","40","1","Training","Stims/Figures/87-C-20-4.bmp","ma:lala","Up","40","5","3","4","S","C","67"
"","","approach-retreat","71","617768","0.0-71.0","","","2-2","5033","38","1","Training","Stims/Figures/71-C-30-1.bmp","mama:la","Down","38","5","4","4","S","C","68"
"","","approach-retreat","72","624243","0.0-72.0","","","2-2","4960","40","1","Training","Stims/Figures/44-C-30-3.bmp","nala:na","Up","40","5","5","4","S","C","69"
"","","approach-retreat","73","630263","0.0-73.0","","","2-2","4503","37","1","Training","Stims/Figures/74-J-10-4.bmp","tapaka","Left","37","5","6","4","P","C","70"
"","","approach-retreat","74","638172","0.0-74.0","","","2-2","6369","39","1","Training","Stims/Figures/144-J-10-3.bmp","ta:pata","Right","39","5","7","4","P","C","71"
"","","approach-retreat","75","644906","0.0-75.0","","","2-2","5221","40","1","Training","Stims/Figures/93-C-30-1.bmp","na:ma:na","Up","40","5","8","4","S","C","72"
"","","approach-retreat","76","650791","0.0-76.0","","","2-2","4373","37","1","Training","Stims/Figures/85-C-20-2.bmp","mala:na","Right","37","5","9","4","S","C","73"
"","","approach-retreat","77","656467","0.0-77.0","","","2-2","4155","39","1","Training","Stims/Figures/74-C-20-4.bmp","malala","Left","39","5","10","4","S","C","74"
"","","approach-retreat","78","663787","0.0-78.0","","","2-2","5801","40","1","Training","Stims/Figures/71-J-0-1.bmp","ta:pa:ta","Down","40","5","11","4","P","C","75"
"","","approach-retreat","79","670764","0.0-79.0","","","2-2","5462","38","1","Training","Stims/Figures/144-C-30-3.bmp","nala:la","Down","38","5","12","4","S","C","76"
"","","approach-retreat","80","676884","0.0-80.0","","","2-2","4598","40","1","Training","Stims/Figures/139-C-20-2.bmp","ma:mala","Up","40","5","13","4","S","C","77"
"","","approach-retreat","81","682864","0.0-81.0","","","2-2","4467","40","1","Training","Stims/Figures/139-J-0-2.bmp","ta:ka:ta","Down","40","5","14","4","P","C","78"
"","","approach-retreat","82","689329","0.0-82.0","","","2-2","4949","39","1","Training","Stims/Figures/44-J-10-3.bmp","pa:kaka","Right","39","5","15","4","P","C","79"
"","","approach-retreat","83","696542","0.0-83.0","","","2-2","5698","37","1","Training","Stims/Figures/93-J-0-1.bmp","pa:ka:ta","Left","37","5","16","4","P","C","80"
"","","approach-retreat","84","702429","0.0-84.0","","","2-2","4368","37","1","Training","Stims/Figures/44-C-30-3.bmp","nala:na","Right","37","6","1","4","S","C","81"
"","","approach-retreat","85","708283","0.0-85.0","","","2-2","4341","38","1","Training","Stims/Figures/71-C-30-1.bmp","mama:la","Down","38","6","2","4","S","C","82"
"","","approach-retreat","86","714159","0.0-86.0","","","2-2","4364","37","1","Training","Stims/Figures/85-C-20-2.bmp","mala:na","Right","37","6","3","4","S","C","83"
"","","approach-retreat","87","719987","0.0-87.0","","","2-2","4304","37","1","Training","Stims/Figures/93-J-0-1.bmp","pa:ka:ta","Left","37","6","4","4","P","C","84"
"","","approach-retreat","88","725887","0.0-88.0","","","2-2","4385","40","1","Training","Stims/Figures/139-C-20-2.bmp","ma:mala","Up","40","6","5","4","S","C","85"
"","","approach-retreat","89","732011","0.0-89.0","","","2-2","4578","40","1","Training","Stims/Figures/74-J-10-4.bmp","tapaka","Down","40","6","6","4","P","C","86"
"","","approach-retreat","90","738184","0.0-90.0","","","2-2","4649","40","1","Training","Stims/Figures/87-J-10-4.bmp","papa:ta","Down","40","6","7","4","P","C","87"
"","","approach-retreat","91","744591","0.0-91.0","","","2-2","4871","38","1","Training","Stims/Figures/144-J-10-3.bmp","ta:pata","Up","38","6","8","4","P","C","88"
"","","approach-retreat","92","750447","0.0-92.0","","","2-2","4338","37","1","Training","Stims/Figures/44-J-10-3.bmp","pa:kaka","Left","37","6","9","4","P","C","89"
"","","approach-retreat","93","756337","0.0-93.0","","","2-2","4378","39","1","Training","Stims/Figures/87-C-20-4.bmp","ma:lala","Left","39","6","10","4","S","C","90"
"","","approach-retreat","94","762536","0.0-94.0","","","2-2","4662","40","1","Training","Stims/Figures/144-C-30-3.bmp","nala:la","Up","40","6","11","4","S","C","91"
"","","approach-retreat","95","769580","0.0-95.0","","","2-2","5507","39","1","Training","Stims/Figures/93-C-30-1.bmp","na:ma:na","Left","39","6","12","4","S","C","92"
"","","approach-retreat","96","776645","0.0-96.0","","","2-2","5538","39","1","Training","Stims/Figures/85-J-0-2.bmp","pakata","Right","39","6","13","4","P","C","93"
"","","approach-retreat","97","782551","0.0-97.0","","","2-2","4376","40","1","Training","Stims/Figures/139-J-0-2.bmp","ta:ka:ta","Down","40","6","14","4","P","C","94"
"","","approach-retreat","98","790115","0.0-98.0","","","2-2","6041","40","1","Training","Stims/Figures/74-C-20-4.bmp","malala","Up","40","6","15","4","S","C","95"
"","","approach-retreat","99","796595","0.0-99.0","","","2-2","4960","39","1","Training","Stims/Figures/71-J-0-1.bmp","ta:pa:ta","Right","39","6","16","4","P","C","96"
"","","approach-retreat","100","802276","0.0-100.0","","","2-2","4161","37","1","Training","Stims/Figures/139-J-0-2.bmp","ta:ka:ta","Left","37","7","1","4","P","C","97"
"","","approach-retreat","101","807915","0.0-101.0","","","2-2","4121","40","1","Training","Stims/Figures/144-J-10-3.bmp","ta:pata","Down","40","7","2","4","P","C","98"
"","","approach-retreat","102","815276","0.0-102.0","","","2-2","5842","40","1","Training","Stims/Figures/87-C-20-4.bmp","ma:lala","Up","40","7","3","4","S","C","99"
"","","approach-retreat","103","820982","0.0-103.0","","","2-2","4184","39","1","Training","Stims/Figures/74-J-10-4.bmp","tapaka","Right","39","7","4","4","P","C","100"
"","","approach-retreat","104","827287","0.0-104.0","","","2-2","4763","38","1","Training","Stims/Figures/139-C-20-2.bmp","ma:mala","Down","38","7","5","4","S","C","101"
"","","approach-retreat","105","833255","0.0-105.0","","","2-2","4446","39","1","Training","Stims/Figures/44-J-10-3.bmp","pa:kaka","Right","39","7","6","4","P","C","102"
"","","approach-retreat","106","839076","0.0-106.0","","","2-2","4297","40","1","Training","Stims/Figures/44-C-30-3.bmp","nala:na","Up","40","7","7","4","S","C","103"
"","","approach-retreat","107","844835","0.0-107.0","","","2-2","4250","40","1","Training","Stims/Figures/85-J-0-2.bmp","pakata","Down","40","7","8","4","P","C","104"
"","","approach-retreat","108","850859","0.0-108.0","","","2-2","4505","37","1","Training","Stims/Figures/93-C-30-1.bmp","na:ma:na","Right","37","7","9","4","S","C","105"
"","","approach-retreat","109","856640","0.0-109.0","","","2-2","4268","39","1","Training","Stims/Figures/93-J-0-1.bmp","pa:ka:ta","Right","39","7","10","4","P","C","106"
"","","approach-retreat","110","862321","0.0-110.0","","","2-2","4164","39","1","Training","Stims/Figures/144-C-30-3.bmp","nala:la","Left","39","7","11","4","S","C","107"
"","","approach-retreat","111","868069","0.0-111.0","","","2-2","4226","40","1","Training","Stims/Figures/85-C-20-2.bmp","mala:na","Up","40","7","12","4","S","C","108"
"","","approach-retreat","112","874308","0.0-112.0","","","2-2","4727","38","1","Training","Stims/Figures/71-C-30-1.bmp","mama:la","Down","38","7","13","4","S","C","109"
"","","approach-retreat","113","880293","0.0-113.0","","","2-2","4460","38","1","Training","Stims/Figures/87-J-10-4.bmp","papa:ta","Up","38","7","14","4","P","C","110"
"","","approach-retreat","114","887424","0.0-114.0","","","2-2","5602","37","1","Training","Stims/Figures/71-J-0-1.bmp","ta:pa:ta","Left","37","7","15","4","P","C","111"
"","","approach-retreat","115","893040","0.0-115.0","","","2-2","4085","39","1","Training","Stims/Figures/74-C-20-4.bmp","malala","Left","39","7","16","4","S","C","112"
"","","approach-retreat","116","899305","0.0-116.0","","","2-2","4734","38","1","Training","Stims/Figures/71-J-0-1.bmp","ta:pa:ta","Up","38","8","1","4","P","C","113"
"","","approach-retreat","117","905220","0.0-117.0","","","2-2","4400","40","1","Training","Stims/Figures/139-J-0-2.bmp","ta:ka:ta","Down","40","8","2","4","P","C","114"
"","","approach-retreat","118","911152","0.0-118.0","","","2-2","4404","38","1","Training","Stims/Figures/85-C-20-2.bmp","mala:na","Down","38","8","3","4","S","C","115"
"","","approach-retreat","119","917092","0.0-119.0","","","2-2","4428","40","1","Training","Stims/Figures/74-C-20-4.bmp","malala","Up","40","8","4","4","S","C","116"
"","","approach-retreat","120","922961","0.0-120.0","","","2-2","4352","39","1","Training","Stims/Figures/44-J-10-3.bmp","pa:kaka","Right","39","8","5","4","P","C","117"
"","","approach-retreat","121","928901","0.0-121.0","","","2-2","4415","37","1","Training","Stims/Figures/139-C-20-2.bmp","ma:mala","Right","37","8","6","4","S","C","118"
"","","approach-retreat","122","934569","0.0-122.0","","","2-2","4136","40","1","Training","Stims/Figures/93-J-0-1.bmp","pa:ka:ta","Down","40","8","7","4","P","C","119"
"","","approach-retreat","123","940322","0.0-123.0","","","2-2","4224","37","1","Training","Stims/Figures/87-J-10-4.bmp","papa:ta","Left","37","8","8","4","P","C","120"
"","","approach-retreat","124","946093","0.0-124.0","","","2-2","4241","39","1","Training","Stims/Figures/44-C-30-3.bmp","nala:na","Left","39","8","9","4","S","C","121"
"","","approach-retreat","125","953173","0.0-125.0","","","2-2","5568","40","1","Training","Stims/Figures/144-C-30-3.bmp","nala:la","Up","40","8","10","4","S","C","122"
"","","approach-retreat","126","959145","0.0-126.0","","","2-2","4426","38","1","Training","Stims/Figures/93-C-30-1.bmp","na:ma:na","Down","38","8","11","4","S","C","123"
"","","approach-retreat","127","965126","0.0-127.0","","","2-2","4440","38","1","Training","Stims/Figures/74-J-10-4.bmp","tapaka","Up","38","8","12","4","P","C","124"
"","","approach-retreat","128","971666","0.0-128.0","","","2-2","5001","37","1","Training","Stims/Figures/71-C-30-1.bmp","mama:la","Right","37","8","13","4","S","C","125"
"","","approach-retreat","129","977463","0.0-129.0","","","2-2","4263","39","1","Training","Stims/Figures/87-C-20-4.bmp","ma:lala","Left","39","8","14","4","S","C","126"
"","","approach-retreat","130","983027","0.0-130.0","","","2-2","4024","37","1","Training","Stims/Figures/144-J-10-3.bmp","ta:pata","Left","37","8","15","4","P","C","127"
"","","approach-retreat","131","989366","0.0-131.0","","","2-2","4828","39","1","Training","Stims/Figures/85-J-0-2.bmp","pakata","Right","39","8","16","4","P","C","128"
"","","approach-retreat","132","995272","0.0-132.0","","","2-2","4384","38","1","Training","Stims/Figures/93-J-0-1.bmp","pa:ka:ta","Up","38","9","1","4","P","C","129"
"","","approach-retreat","133","1001171","0.0-133.0","","","2-2","4379","40","0","Training","Stims/Figures/87-C-20-4.bmp","ma:lala","Down","38","9","2","4","S","C","130"
"","","approach-retreat","134","1006795","0.0-134.0","","","2-2","4093","39","1","Training","Stims/Figures/74-C-20-4.bmp","malala","Left","39","9","3","4","S","C","131"
"","","approach-retreat","135","1012439","0.0-135.0","","","2-2","4118","37","1","Training","Stims/Figures/44-J-10-3.bmp","pa:kaka","Left","37","9","4","4","P","C","132"
"","","approach-retreat","136","1018144","0.0-136.0","","","2-2","4177","39","1","Training","Stims/Figures/93-C-30-1.bmp","na:ma:na","Left","39","9","5","4","S","C","133"
"","","approach-retreat","137","1024368","0.0-137.0","","","2-2","4687","40","1","Training","Stims/Figures/85-J-0-2.bmp","pakata","Down","40","9","6","4","P","C","134"
"","","approach-retreat","138","1030217","0.0-138.0","","","2-2","4319","40","1","Training","Stims/Figures/71-C-30-1.bmp","mama:la","Up","40","9","7","4","S","C","135"
"","","approach-retreat","139","1036877","0.0-139.0","","","2-2","5128","40","1","Training","Stims/Figures/139-C-20-2.bmp","ma:mala","Up","40","9","8","4","S","C","136"
"","","approach-retreat","140","1042349","0.0-140.0","","","2-2","3949","37","1","Training","Stims/Figures/71-J-0-1.bmp","ta:pa:ta","Left","37","9","9","4","P","C","137"
"","","approach-retreat","141","1048376","0.0-141.0","","","2-2","4500","39","1","Training","Stims/Figures/139-J-0-2.bmp","ta:ka:ta","Right","39","9","10","4","P","C","138"
"","","approach-retreat","142","1054896","0.0-142.0","","","2-2","4990","39","1","Training","Stims/Figures/87-J-10-4.bmp","papa:ta","Right","39","9","11","4","P","C","139"
"","","approach-retreat","143","1060520","0.0-143.0","","","2-2","4107","37","1","Training","Stims/Figures/85-C-20-2.bmp","mala:na","Right","37","9","12","4","S","C","140"
"","","approach-retreat","144","1066145","0.0-144.0","","","2-2","4105","40","1","Training","Stims/Figures/44-C-30-3.bmp","nala:na","Up","40","9","13","4","S","C","141"
"","","approach-retreat","145","1072006","0.0-145.0","","","2-2","4343","40","1","Training","Stims/Figures/74-J-10-4.bmp","tapaka","Down","40","9","14","4","P","C","142"
"","","approach-retreat","146","1077797","0.0-146.0","","","2-2","4258","39","1","Training","Stims/Figures/144-J-10-3.bmp","ta:pata","Right","39","9","15","4","P","C","143"
"","","approach-retreat","147","1084069","0.0-147.0","","","2-2","4741","38","1","Training","Stims/Figures/144-C-30-3.bmp","nala:la","Down","38","9","16","4","S","C","144"
"66672","","instructions","148","1150741","0.0-148.0","[{""page_index"":0,""viewing_time"":66670}]","","","","","","","","","","","","","","","",""
"","","approach-retreat","149","1158255","0.0-149.0","","","2-2","5983","37","0","Testing","Stims/Figures/128-C-30-3.bmp","na:la:na","Left","39","1","1","4","S","C","1"
"","","approach-retreat","150","1165550","0.0-150.0","","","2-2","5755","39","0","Testing","Stims/Figures/7-J-10-4.bmp","taka:ta","Left","37","1","2","4","P","C","2"
"","","approach-retreat","151","1171713","0.0-151.0","","","2-2","4633","37","1","Testing","Stims/Figures/74-C-20-4.bmp","malala","Right","37","1","3","4","S","C","3"
"","","approach-retreat","152","1180726","0.0-152.0","","","2-2","7481","38","1","Testing","Stims/Figures/94-C-20-2.bmp","nama:na","Down","38","1","4","4","S","C","4"
"","","approach-retreat","153","1187119","0.0-153.0","","","2-2","4861","38","0","Testing","Stims/Figures/44-C-30-3.bmp","nala:na","Up","40","1","5","4","S","C","5"
"","","approach-retreat","154","1196203","0.0-154.0","","","2-2","7557","39","0","Testing","Stims/Figures/85-C-20-2.bmp","mala:na","Right","37","1","6","4","S","C","6"
"","","approach-retreat","155","1202787","0.0-155.0","","","2-2","5053","37","0","Testing","Stims/Figures/144-C-30-3.bmp","nala:la","Left","39","1","7","4","S","C","7"
"","","approach-retreat","156","1210912","0.0-156.0","","","2-2","6592","37","0","Testing","Stims/Figures/44-J-10-3.bmp","pa:kaka","Right","39","1","8","4","P","C","8"
"","","approach-retreat","157","1219225","0.0-157.0","","","2-2","6780","40","1","Testing","Stims/Figures/93-C-30-1.bmp","na:ma:na","Up","40","1","9","4","S","C","9"
"","","approach-retreat","158","1225584","0.0-158.0","","","2-2","4828","40","0","Testing","Stims/Figures/87-C-20-4.bmp","ma:lala","Down","38","1","10","4","S","C","10"
"","","approach-retreat","159","1231520","0.0-159.0","","","2-2","4405","38","0","Testing","Stims/Figures/87-J-10-4.bmp","papa:ta","Down","40","1","11","4","P","C","11"
"","","approach-retreat","160","1237136","0.0-160.0","","","2-2","4082","37","0","Testing","Stims/Figures/27-J-0-1.bmp","ta:pa:ka","Right","39","1","12","4","P","C","12"
"","","approach-retreat","161","1243157","0.0-161.0","","","2-2","4491","37","1","Testing","Stims/Figures/71-J-0-1.bmp","ta:pa:ta","Left","37","1","13","4","P","C","13"
"","","approach-retreat","162","1249333","0.0-162.0","","","2-2","4644","37","0","Testing","Stims/Figures/144-J-10-3.bmp","ta:pata","Right","39","1","14","4","P","C","14"
"","","approach-retreat","163","1255378","0.0-163.0","","","2-2","4514","40","1","Testing","Stims/Figures/27-C-30-1.bmp","namala","Up","40","1","15","4","S","C","15"
"","","approach-retreat","164","1262334","0.0-164.0","","","2-2","5422","39","1","Testing","Stims/Figures/85-J-0-2.bmp","pakata","Right","39","1","16","4","P","C","16"
"","","approach-retreat","165","1268482","0.0-165.0","","","2-2","4609","38","0","Testing","Stims/Figures/128-J-10-3.bmp","pa:ka:ka","Down","40","1","17","4","P","C","17"
"","","approach-retreat","166","1274885","0.0-166.0","","","2-2","4875","38","1","Testing","Stims/Figures/71-C-30-1.bmp","mama:la","Down","38","1","18","4","S","C","18"
"","","approach-retreat","167","1280902","0.0-167.0","","","2-2","4463","39","0","Testing","Stims/Figures/94-J-0-2.bmp","papata","Left","37","1","19","4","P","C","19"
"","","approach-retreat","168","1286634","0.0-168.0","","","2-2","4202","40","1","Testing","Stims/Figures/74-J-10-4.bmp","tapaka","Down","40","1","20","4","P","C","20"
"","","approach-retreat","169","1293742","0.0-169.0","","","2-2","5578","40","1","Testing","Stims/Figures/139-C-20-2.bmp","ma:mala","Up","40","1","21","4","S","C","21"
"","","approach-retreat","170","1300419","0.0-170.0","","","2-2","5144","40","0","Testing","Stims/Figures/93-J-0-1.bmp","pa:ka:ta","Up","38","1","22","4","P","C","22"
"","","approach-retreat","171","1306955","0.0-171.0","","","2-2","5000","39","0","Testing","Stims/Figures/139-J-0-2.bmp","ta:ka:ta","Left","37","1","23","4","P","C","23"
"","","approach-retreat","172","1313383","0.0-172.0","","","2-2","4899","40","1","Testing","Stims/Figures/7-C-20-4.bmp","ma:lana","Up","40","1","24","4","S","C","24"
"","","approach-retreat","173","1318992","0.0-173.0","","","2-2","4077","39","0","Testing","Stims/Figures/7-J-10-4.bmp","taka:ta","Left","37","2","1","4","P","C","25"
"","","approach-retreat","174","1325144","0.0-174.0","","","2-2","4619","38","0","Testing","Stims/Figures/71-J-0-1.bmp","ta:pa:ta","Down","40","2","2","4","P","C","26"
"","","approach-retreat","175","1331312","0.0-175.0","","","2-2","4636","37","1","Testing","Stims/Figures/144-C-30-3.bmp","nala:la","Right","37","2","3","4","S","C","27"
"","","approach-retreat","176","1337355","0.0-176.0","","","2-2","4511","38","0","Testing","Stims/Figures/144-J-10-3.bmp","ta:pata","Down","40","2","4","4","P","C","28"
"","","approach-retreat","177","1343551","0.0-177.0","","","2-2","4666","38","1","Testing","Stims/Figures/128-C-30-3.bmp","na:la:na","Down","38","2","5","4","S","C","29"
"","","approach-retreat","178","1349287","0.0-178.0","","","2-2","4205","39","1","Testing","Stims/Figures/71-C-30-1.bmp","mama:la","Left","39","2","6","4","S","C","30"
"","","approach-retreat","179","1355623","0.0-179.0","","","2-2","4804","40","0","Testing","Stims/Figures/74-J-10-4.bmp","tapaka","Up","38","2","7","4","P","C","31"
"","","approach-retreat","180","1362372","0.0-180.0","","","2-2","5218","40","0","Testing","Stims/Figures/94-J-0-2.bmp","papata","Up","38","2","8","4","P","C","32"
"","","approach-retreat","181","1368143","0.0-181.0","","","2-2","4238","39","0","Testing","Stims/Figures/87-C-20-4.bmp","ma:lala","Right","37","2","9","4","S","C","33"
"","","approach-retreat","182","1373746","0.0-182.0","","","2-2","4071","37","0","Testing","Stims/Figures/139-C-20-2.bmp","ma:mala","Left","39","2","10","4","S","C","34"
"","","approach-retreat","183","1379470","0.0-183.0","","","2-2","4196","39","0","Testing","Stims/Figures/74-C-20-4.bmp","malala","Right","37","2","11","4","S","C","35"
"","","approach-retreat","184","1386098","0.0-184.0","","","2-2","5098","39","1","Testing","Stims/Figures/85-C-20-2.bmp","mala:na","Left","39","2","12","4","S","C","36"
"","","approach-retreat","185","1391934","0.0-185.0","","","2-2","4303","37","0","Testing","Stims/Figures/87-J-10-4.bmp","papa:ta","Right","39","2","13","4","P","C","37"
"","","approach-retreat","186","1397838","0.0-186.0","","","2-2","4374","37","0","Testing","Stims/Figures/93-J-0-1.bmp","pa:ka:ta","Right","39","2","14","4","P","C","38"
"","","approach-retreat","187","1404282","0.0-187.0","","","2-2","4915","40","1","Testing","Stims/Figures/139-J-0-2.bmp","ta:ka:ta","Down","40","2","15","4","P","C","39"
"","","approach-retreat","188","1410706","0.0-188.0","","","2-2","4894","40","1","Testing","Stims/Figures/93-C-30-1.bmp","na:ma:na","Up","40","2","16","4","S","C","40"
"","","approach-retreat","189","1416694","0.0-189.0","","","2-2","4456","39","1","Testing","Stims/Figures/27-C-30-1.bmp","namala","Left","39","2","17","4","S","C","41"
"","","approach-retreat","190","1422679","0.0-190.0","","","2-2","4453","38","0","Testing","Stims/Figures/128-J-10-3.bmp","pa:ka:ka","Down","40","2","18","4","P","C","42"
"","","approach-retreat","191","1429163","0.0-191.0","","","2-2","4957","39","1","Testing","Stims/Figures/94-C-20-2.bmp","nama:na","Left","39","2","19","4","S","C","43"
"","","approach-retreat","192","1435032","0.0-192.0","","","2-2","4335","40","1","Testing","Stims/Figures/44-C-30-3.bmp","nala:na","Up","40","2","20","4","S","C","44"
"","","approach-retreat","193","1442381","0.0-193.0","","","2-2","5820","38","1","Testing","Stims/Figures/27-J-0-1.bmp","ta:pa:ka","Up","38","2","21","4","P","C","45"
"","","approach-retreat","194","1448092","0.0-194.0","","","2-2","4176","39","1","Testing","Stims/Figures/85-J-0-2.bmp","pakata","Right","39","2","22","4","P","C","46"
"","","approach-retreat","195","1454024","0.0-195.0","","","2-2","4399","38","1","Testing","Stims/Figures/7-C-20-4.bmp","ma:lana","Down","38","2","23","4","S","C","47"
"","","approach-retreat","196","1461184","0.0-196.0","","","2-2","5631","38","1","Testing","Stims/Figures/44-J-10-3.bmp","pa:kaka","Up","38","2","24","4","P","C","48"
"","","approach-retreat","197","1466960","0.0-197.0","","","2-2","4245","38","1","Testing","Stims/Figures/139-C-20-2.bmp","ma:mala","Down","38","3","1","4","S","C","49"
"","","approach-retreat","198","1472560","0.0-198.0","","","2-2","4070","39","1","Testing","Stims/Figures/93-C-30-1.bmp","na:ma:na","Left","39","3","2","4","S","C","50"
"","","approach-retreat","199","1478084","0.0-199.0","","","2-2","3985","39","1","Testing","Stims/Figures/7-C-20-4.bmp","ma:lana","Left","39","3","3","4","S","C","51"
"","","approach-retreat","200","1486153","0.0-200.0","","","2-2","6537","40","1","Testing","Stims/Figures/74-C-20-4.bmp","malala","Up","40","3","4","4","S","C","52"
"","","approach-retreat","201","1492181","0.0-201.0","","","2-2","4498","39","1","Testing","Stims/Figures/71-J-0-1.bmp","ta:pa:ta","Right","39","3","5","4","P","C","53"
"","","approach-retreat","202","1497973","0.0-202.0","","","2-2","4259","39","1","Testing","Stims/Figures/27-J-0-1.bmp","ta:pa:ka","Right","39","3","6","4","P","C","54"
"","","approach-retreat","203","1504270","0.0-203.0","","","2-2","4767","39","1","Testing","Stims/Figures/139-J-0-2.bmp","ta:ka:ta","Right","39","3","7","4","P","C","55"
"","","approach-retreat","204","1510021","0.0-204.0","","","2-2","4222","40","1","Testing","Stims/Figures/144-C-30-3.bmp","nala:la","Up","40","3","8","4","S","C","56"
"","","approach-retreat","205","1515862","0.0-205.0","","","2-2","4308","40","1","Testing","Stims/Figures/94-J-0-2.bmp","papata","Down","40","3","9","4","P","C","57"
"","","approach-retreat","206","1521628","0.0-206.0","","","2-2","4233","39","1","Testing","Stims/Figures/93-J-0-1.bmp","pa:ka:ta","Right","39","3","10","4","P","C","58"
"","","approach-retreat","207","1527973","0.0-207.0","","","2-2","4813","40","0","Testing","Stims/Figures/74-J-10-4.bmp","tapaka","Up","38","3","11","4","P","C","59"
"","","approach-retreat","208","1536405","0.0-208.0","","","2-2","6908","40","0","Testing","Stims/Figures/144-J-10-3.bmp","ta:pata","Up","38","3","12","4","P","C","60"
"","","approach-retreat","209","1542022","0.0-209.0","","","2-2","4083","39","1","Testing","Stims/Figures/94-C-20-2.bmp","nama:na","Left","39","3","13","4","S","C","61"
"","","approach-retreat","210","1548798","0.0-210.0","","","2-2","5243","40","1","Testing","Stims/Figures/85-J-0-2.bmp","pakata","Down","40","3","14","4","P","C","62"
"","","approach-retreat","211","1554926","0.0-211.0","","","2-2","4597","37","0","Testing","Stims/Figures/87-J-10-4.bmp","papa:ta","Right","39","3","15","4","P","C","63"
"","","approach-retreat","212","1562603","0.0-212.0","","","2-2","6146","38","1","Testing","Stims/Figures/87-C-20-4.bmp","ma:lala","Down","38","3","16","4","S","C","64"
"","","approach-retreat","213","1570651","0.0-213.0","","","2-2","6518","39","0","Testing","Stims/Figures/128-J-10-3.bmp","pa:ka:ka","Left","37","3","17","4","P","C","65"
"","","approach-retreat","214","1576167","0.0-214.0","","","2-2","3985","39","1","Testing","Stims/Figures/71-C-30-1.bmp","mama:la","Left","39","3","18","4","S","C","66"
"","","approach-retreat","215","1582162","0.0-215.0","","","2-2","4466","37","1","Testing","Stims/Figures/85-C-20-2.bmp","mala:na","Right","37","3","19","4","S","C","67"
"","","approach-retreat","216","1587823","0.0-216.0","","","2-2","4129","38","1","Testing","Stims/Figures/44-C-30-3.bmp","nala:na","Down","38","3","20","4","S","C","68"
"","","approach-retreat","217","1593703","0.0-217.0","","","2-2","4353","40","1","Testing","Stims/Figures/27-C-30-1.bmp","namala","Up","40","3","21","4","S","C","69"
"","","approach-retreat","218","1599767","0.0-218.0","","","2-2","4530","40","1","Testing","Stims/Figures/44-J-10-3.bmp","pa:kaka","Down","40","3","22","4","P","C","70"
"","","approach-retreat","219","1606384","0.0-219.0","","","2-2","5085","39","0","Testing","Stims/Figures/7-J-10-4.bmp","taka:ta","Left","37","3","23","4","P","C","71"
"","","approach-retreat","220","1612237","0.0-220.0","","","2-2","4320","40","1","Testing","Stims/Figures/128-C-30-3.bmp","na:la:na","Up","40","3","24","4","S","C","72"
"","","approach-retreat","221","1617984","0.0-221.0","","","2-2","4217","39","1","Testing","Stims/Figures/144-J-10-3.bmp","ta:pata","Right","39","4","1","4","P","C","73"
"","","approach-retreat","222","1624081","0.0-222.0","","","2-2","4567","38","1","Testing","Stims/Figures/94-J-0-2.bmp","papata","Up","38","4","2","4","P","C","74"
"","","approach-retreat","223","1630048","0.0-223.0","","","2-2","4438","40","0","Testing","Stims/Figures/7-J-10-4.bmp","taka:ta","Up","38","4","3","4","P","C","75"
"","","approach-retreat","224","1635673","0.0-224.0","","","2-2","4092","37","1","Testing","Stims/Figures/128-C-30-3.bmp","na:la:na","Right","37","4","4","4","S","C","76"
"","","approach-retreat","225","1641439","0.0-225.0","","","2-2","4243","38","1","Testing","Stims/Figures/74-C-20-4.bmp","malala","Down","38","4","5","4","S","C","77"
"","","approach-retreat","226","1647220","0.0-226.0","","","2-2","4248","40","0","Testing","Stims/Figures/128-J-10-3.bmp","pa:ka:ka","Up","38","4","6","4","P","C","78"
"","","approach-retreat","227","1652988","0.0-227.0","","","2-2","4236","39","1","Testing","Stims/Figures/7-C-20-4.bmp","ma:lana","Left","39","4","7","4","S","C","79"
"","","approach-retreat","228","1659188","0.0-228.0","","","2-2","4668","38","1","Testing","Stims/Figures/139-C-20-2.bmp","ma:mala","Down","38","4","8","4","S","C","80"
"","","approach-retreat","229","1665144","0.0-229.0","","","2-2","4425","40","1","Testing","Stims/Figures/85-C-20-2.bmp","mala:na","Up","40","4","9","4","S","C","81"
"","","approach-retreat","230","1670864","0.0-230.0","","","2-2","4189","37","1","Testing","Stims/Figures/44-C-30-3.bmp","nala:na","Right","37","4","10","4","S","C","82"
"","","approach-retreat","231","1676697","0.0-231.0","","","2-2","4301","37","1","Testing","Stims/Figures/74-J-10-4.bmp","tapaka","Left","37","4","11","4","P","C","83"
"","","approach-retreat","232","1682673","0.0-232.0","","","2-2","4446","39","0","Testing","Stims/Figures/27-C-30-1.bmp","namala","Right","37","4","12","4","S","C","84"
"","","approach-retreat","233","1689462","0.0-233.0","","","2-2","5256","37","1","Testing","Stims/Figures/139-J-0-2.bmp","ta:ka:ta","Left","37","4","13","4","P","C","85"
"","","approach-retreat","234","1696254","0.0-234.0","","","2-2","5271","40","0","Testing","Stims/Figures/71-C-30-1.bmp","mama:la","Down","38","4","14","4","S","C","86"
"","","approach-retreat","235","1702478","0.0-235.0","","","2-2","4696","40","1","Testing","Stims/Figures/94-C-20-2.bmp","nama:na","Up","40","4","15","4","S","C","87"
"","","approach-retreat","236","1708583","0.0-236.0","","","2-2","4573","39","0","Testing","Stims/Figures/87-J-10-4.bmp","papa:ta","Left","37","4","16","4","P","C","88"
"","","approach-retreat","237","1716383","0.0-237.0","","","2-2","6271","39","1","Testing","Stims/Figures/44-J-10-3.bmp","pa:kaka","Right","39","4","17","4","P","C","89"
"","","approach-retreat","238","1722083","0.0-238.0","","","2-2","4167","40","1","Testing","Stims/Figures/93-J-0-1.bmp","pa:ka:ta","Down","40","4","18","4","P","C","90"
"","","approach-retreat","239","1728407","0.0-239.0","","","2-2","4793","38","1","Testing","Stims/Figures/144-C-30-3.bmp","nala:la","Down","38","4","19","4","S","C","91"
"","","approach-retreat","240","1734047","0.0-240.0","","","2-2","4107","37","1","Testing","Stims/Figures/27-J-0-1.bmp","ta:pa:ka","Left","37","4","20","4","P","C","92"
"","","approach-retreat","241","1742479","0.0-241.0","","","2-2","6901","40","1","Testing","Stims/Figures/85-J-0-2.bmp","pakata","Down","40","4","21","4","P","C","93"
"","","approach-retreat","242","1748992","0.0-242.0","","","2-2","5002","39","0","Testing","Stims/Figures/87-C-20-4.bmp","ma:lala","Right","37","4","22","4","S","C","94"
"","","approach-retreat","243","1754712","0.0-243.0","","","2-2","4186","39","1","Testing","Stims/Figures/93-C-30-1.bmp","na:ma:na","Left","39","4","23","4","S","C","95"
"","","approach-retreat","244","1761605","0.0-244.0","","","2-2","5361","38","1","Testing","Stims/Figures/71-J-0-1.bmp","ta:pa:ta","Up","38","4","24","4","P","C","96"
"36651","","survey-text","245","1798274","0.0-245.0","","{""Q0"":""1085/2018""}","","","","","","","","","","","","","","",""
