"rt","key_press","trial_type","trial_index","time_elapsed","internal_node_id","view_history","responses","Id","Rt","ResKeyCode","ResCorr","TrialType2","Image","Label","Location","CorrectResponse","Block","BlockTrial","Condition","LabelType","Subcondition","trialNum"
"24065","32","text","0","24076","0.0-0.0-0.0","","","","","","","","","","","","","","","","",""
"72695","","instructions","1","96779","0.0-1.0","[{""page_index"":0,""viewing_time"":72691}]","","","","","","","","","","","","","","","",""
"30819","","survey-multi-choice","2","127685","0.0-2.0","","{""Q0"":""Da"",""Q1"":""Da"",""Q2"":""Da"",""Q3"":""Da"",""Q4"":""Da"",""Q5"":""Da""}","","","","","","","","","","","","","","",""
"","","bio","3","139029","0.0-3.0","","{""age"":""18"",""gender"":""f"",""specify"":""""}","","","","","","","","","","","","","","",""
"","","approach-retreat","4","151587","0.0-4.0","","","1-2","11007","37","1","Training","Stims/Figures/85-C-20-2.bmp","fa:shasha","Right","37","1","1","6B","C1","C","1"
"","","approach-retreat","5","161709","0.0-5.0","","","1-2","8582","40","1","Training","Stims/Figures/7-J-10-4.bmp","za:haza","Down","40","1","2","6B","C2","C","2"
"","","approach-retreat","6","170568","0.0-6.0","","","1-2","7322","39","1","Training","Stims/Figures/139-J-0-2.bmp","saha:ha","Right","39","1","3","6B","C2","C","3"
"","","approach-retreat","7","177313","0.0-7.0","","","1-2","5184","39","0","Training","Stims/Figures/57-J-0-1.bmp","zaha:ha","Left","37","1","4","6B","C2","C","4"
"","","approach-retreat","8","184478","0.0-8.0","","","1-2","5602","39","1","Training","Stims/Figures/74-C-20-4.bmp","vashasha","Left","39","1","5","6B","C1","C","5"
"","","approach-retreat","9","190592","0.0-9.0","","","1-2","4568","39","1","Training","Stims/Figures/7-C-20-4.bmp","va:fa:sha","Left","39","1","6","6B","C1","C","6"
"","","approach-retreat","10","204905","0.0-10.0","","","1-2","12759","39","1","Training","Stims/Figures/27-J-0-1.bmp","saha:za","Right","39","1","7","6B","C2","C","7"
"","","approach-retreat","11","213572","0.0-11.0","","","1-2","7119","38","0","Training","Stims/Figures/139-C-20-2.bmp","vasha:sha","Up","40","1","8","6B","C1","C","8"
"","","approach-retreat","12","220073","0.0-12.0","","","1-2","4964","40","0","Training","Stims/Figures/57-C-30-1.bmp","vafa:sha","Down","38","1","9","6B","C1","C","9"
"","","approach-retreat","13","229491","0.0-13.0","","","1-2","7856","38","1","Training","Stims/Figures/85-J-0-2.bmp","zaha:za","Up","38","1","10","6B","C2","C","10"
"","","approach-retreat","14","235979","0.0-14.0","","","1-2","4944","40","1","Training","Stims/Figures/144-C-30-3.bmp","va:fava","Up","40","1","11","6B","C1","C","11"
"","","approach-retreat","15","242727","0.0-15.0","","","1-2","5192","37","1","Training","Stims/Figures/27-C-30-1.bmp","fafava","Right","37","1","12","6B","C1","C","12"
"","","approach-retreat","16","249332","0.0-16.0","","","1-2","5055","40","1","Training","Stims/Figures/111-J-10-3.bmp","za:sa:ha","Down","40","1","13","6B","C2","C","13"
"","","approach-retreat","17","256272","0.0-17.0","","","1-2","5393","39","1","Training","Stims/Figures/111-C-30-3.bmp","va:sha:sha","Left","39","1","14","6B","C1","C","14"
"","","approach-retreat","18","263366","0.0-18.0","","","1-2","5552","40","0","Training","Stims/Figures/144-J-10-3.bmp","za:haha","Up","38","1","15","6B","C2","C","15"
"","","approach-retreat","19","270028","0.0-19.0","","","1-2","5121","38","0","Training","Stims/Figures/74-J-10-4.bmp","sa:sa:za","Down","40","1","16","6B","C2","C","16"
"","","approach-retreat","20","278776","0.0-20.0","","","1-2","7186","40","1","Training","Stims/Figures/57-J-0-1.bmp","zaha:ha","Down","40","2","1","6B","C2","C","17"
"","","approach-retreat","21","286742","0.0-21.0","","","1-2","6423","40","1","Training","Stims/Figures/7-C-20-4.bmp","va:fa:sha","Up","40","2","2","6B","C1","C","18"
"","","approach-retreat","22","293592","0.0-22.0","","","1-2","5282","37","1","Training","Stims/Figures/111-C-30-3.bmp","va:sha:sha","Right","37","2","3","6B","C1","C","19"
"","","approach-retreat","23","301699","0.0-23.0","","","1-2","6537","39","1","Training","Stims/Figures/111-J-10-3.bmp","za:sa:ha","Right","39","2","4","6B","C2","C","20"
"","","approach-retreat","24","308590","0.0-24.0","","","1-2","5354","37","1","Training","Stims/Figures/85-J-0-2.bmp","zaha:za","Left","37","2","5","6B","C2","C","21"
"","","approach-retreat","25","314800","0.0-25.0","","","1-2","4648","37","0","Training","Stims/Figures/144-C-30-3.bmp","va:fava","Left","39","2","6","6B","C1","C","22"
"","","approach-retreat","26","320677","0.0-26.0","","","1-2","4326","37","0","Training","Stims/Figures/139-C-20-2.bmp","vasha:sha","Left","39","2","7","6B","C1","C","23"
"","","approach-retreat","27","326310","0.0-27.0","","","1-2","4088","37","0","Training","Stims/Figures/74-C-20-4.bmp","vashasha","Left","39","2","8","6B","C1","C","24"
"","","approach-retreat","28","332749","0.0-28.0","","","1-2","4884","40","1","Training","Stims/Figures/85-C-20-2.bmp","fa:shasha","Up","40","2","9","6B","C1","C","25"
"","","approach-retreat","29","338525","0.0-29.0","","","1-2","4208","38","1","Training","Stims/Figures/139-J-0-2.bmp","saha:ha","Up","38","2","10","6B","C2","C","26"
"","","approach-retreat","30","344635","0.0-30.0","","","1-2","4573","37","1","Training","Stims/Figures/57-C-30-1.bmp","vafa:sha","Right","37","2","11","6B","C1","C","27"
"","","approach-retreat","31","352487","0.0-31.0","","","1-2","6300","38","0","Training","Stims/Figures/74-J-10-4.bmp","sa:sa:za","Down","40","2","12","6B","C2","C","28"
"","","approach-retreat","32","359049","0.0-32.0","","","1-2","5016","40","1","Training","Stims/Figures/27-J-0-1.bmp","saha:za","Down","40","2","13","6B","C2","C","29"
"","","approach-retreat","33","365285","0.0-33.0","","","1-2","4698","40","1","Training","Stims/Figures/27-C-30-1.bmp","fafava","Up","40","2","14","6B","C1","C","30"
"","","approach-retreat","34","375807","0.0-34.0","","","1-2","8982","37","0","Training","Stims/Figures/144-J-10-3.bmp","za:haha","Right","39","2","15","6B","C2","C","31"
"","","approach-retreat","35","382601","0.0-35.0","","","1-2","5250","40","1","Training","Stims/Figures/7-J-10-4.bmp","za:haza","Down","40","2","16","6B","C2","C","32"
"","","approach-retreat","36","388898","0.0-36.0","","","1-2","4740","39","0","Training","Stims/Figures/57-J-0-1.bmp","zaha:ha","Left","37","3","1","6B","C2","C","33"
"","","approach-retreat","37","395198","0.0-37.0","","","1-2","4774","40","1","Training","Stims/Figures/7-J-10-4.bmp","za:haza","Down","40","3","2","6B","C2","C","34"
"","","approach-retreat","38","401274","0.0-38.0","","","1-2","4523","39","1","Training","Stims/Figures/7-C-20-4.bmp","va:fa:sha","Left","39","3","3","6B","C1","C","35"
"","","approach-retreat","39","410080","0.0-39.0","","","1-2","7249","37","1","Training","Stims/Figures/74-C-20-4.bmp","vashasha","Right","37","3","4","6B","C1","C","36"
"","","approach-retreat","40","421416","0.0-40.0","","","1-2","9792","40","1","Training","Stims/Figures/27-C-30-1.bmp","fafava","Up","40","3","5","6B","C1","C","37"
"","","approach-retreat","41","429123","0.0-41.0","","","1-2","6141","39","0","Training","Stims/Figures/144-J-10-3.bmp","za:haha","Left","37","3","6","6B","C2","C","38"
"","","approach-retreat","42","435183","0.0-42.0","","","1-2","4502","40","1","Training","Stims/Figures/111-C-30-3.bmp","va:sha:sha","Up","40","3","7","6B","C1","C","39"
"","","approach-retreat","43","441221","0.0-43.0","","","1-2","4494","37","1","Training","Stims/Figures/57-C-30-1.bmp","vafa:sha","Right","37","3","8","6B","C1","C","40"
"","","approach-retreat","44","447850","0.0-44.0","","","1-2","5076","37","0","Training","Stims/Figures/144-C-30-3.bmp","va:fava","Left","39","3","9","6B","C1","C","41"
"","","approach-retreat","45","454782","0.0-45.0","","","1-2","5387","40","1","Training","Stims/Figures/139-J-0-2.bmp","saha:ha","Down","40","3","10","6B","C2","C","42"
"","","approach-retreat","46","460635","0.0-46.0","","","1-2","4308","38","1","Training","Stims/Figures/85-C-20-2.bmp","fa:shasha","Down","38","3","11","6B","C1","C","43"
"","","approach-retreat","47","467521","0.0-47.0","","","1-2","5346","39","1","Training","Stims/Figures/111-J-10-3.bmp","za:sa:ha","Right","39","3","12","6B","C2","C","44"
"","","approach-retreat","48","475196","0.0-48.0","","","1-2","6141","37","1","Training","Stims/Figures/139-C-20-2.bmp","vasha:sha","Right","37","3","13","6B","C1","C","45"
"","","approach-retreat","49","482129","0.0-49.0","","","1-2","5393","38","1","Training","Stims/Figures/85-J-0-2.bmp","zaha:za","Up","38","3","14","6B","C2","C","46"
"","","approach-retreat","50","489169","0.0-50.0","","","1-2","5499","38","1","Training","Stims/Figures/27-J-0-1.bmp","saha:za","Up","38","3","15","6B","C2","C","47"
"","","approach-retreat","51","497136","0.0-51.0","","","1-2","6418","38","0","Training","Stims/Figures/74-J-10-4.bmp","sa:sa:za","Down","40","3","16","6B","C2","C","48"
"","","approach-retreat","52","503366","0.0-52.0","","","1-2","4676","39","1","Training","Stims/Figures/74-C-20-4.bmp","vashasha","Left","39","4","1","6B","C1","C","49"
"","","approach-retreat","53","509738","0.0-53.0","","","1-2","4812","40","1","Training","Stims/Figures/139-J-0-2.bmp","saha:ha","Down","40","4","2","6B","C2","C","50"
"","","approach-retreat","54","516603","0.0-54.0","","","1-2","5311","40","0","Training","Stims/Figures/144-J-10-3.bmp","za:haha","Up","38","4","3","6B","C2","C","51"
"","","approach-retreat","55","522498","0.0-55.0","","","1-2","4329","39","1","Training","Stims/Figures/57-C-30-1.bmp","vafa:sha","Left","39","4","4","6B","C1","C","52"
"","","approach-retreat","56","529769","0.0-56.0","","","1-2","5734","37","1","Training","Stims/Figures/85-C-20-2.bmp","fa:shasha","Right","37","4","5","6B","C1","C","53"
"","","approach-retreat","57","535944","0.0-57.0","","","1-2","4624","38","1","Training","Stims/Figures/27-C-30-1.bmp","fafava","Down","38","4","6","6B","C1","C","54"
"","","approach-retreat","58","545384","0.0-58.0","","","1-2","7900","39","1","Training","Stims/Figures/7-J-10-4.bmp","za:haza","Right","39","4","7","6B","C2","C","55"
"","","approach-retreat","59","551346","0.0-59.0","","","1-2","4437","39","1","Training","Stims/Figures/111-C-30-3.bmp","va:sha:sha","Left","39","4","8","6B","C1","C","56"
"","","approach-retreat","60","558735","0.0-60.0","","","1-2","5855","38","0","Training","Stims/Figures/139-C-20-2.bmp","vasha:sha","Up","40","4","9","6B","C1","C","57"
"","","approach-retreat","61","564380","0.0-61.0","","","1-2","4100","39","1","Training","Stims/Figures/57-J-0-1.bmp","zaha:ha","Right","39","4","10","6B","C2","C","58"
"","","approach-retreat","62","571241","0.0-62.0","","","1-2","5331","38","0","Training","Stims/Figures/7-C-20-4.bmp","va:fa:sha","Up","40","4","11","6B","C1","C","59"
"","","approach-retreat","63","576905","0.0-63.0","","","1-2","4114","39","0","Training","Stims/Figures/111-J-10-3.bmp","za:sa:ha","Left","37","4","12","6B","C2","C","60"
"","","approach-retreat","64","582648","0.0-64.0","","","1-2","4186","38","0","Training","Stims/Figures/85-J-0-2.bmp","zaha:za","Down","40","4","13","6B","C2","C","61"
"","","approach-retreat","65","588704","0.0-65.0","","","1-2","4507","40","1","Training","Stims/Figures/27-J-0-1.bmp","saha:za","Down","40","4","14","6B","C2","C","62"
"","","approach-retreat","66","594483","0.0-66.0","","","1-2","4240","38","1","Training","Stims/Figures/74-J-10-4.bmp","sa:sa:za","Up","38","4","15","6B","C2","C","63"
"","","approach-retreat","67","600008","0.0-67.0","","","1-2","3977","39","0","Training","Stims/Figures/144-C-30-3.bmp","va:fava","Right","37","4","16","6B","C1","C","64"
"","","approach-retreat","68","606279","0.0-68.0","","","1-2","4729","39","0","Training","Stims/Figures/7-J-10-4.bmp","za:haza","Left","37","5","1","6B","C2","C","65"
"","","approach-retreat","69","612015","0.0-69.0","","","1-2","4197","40","1","Training","Stims/Figures/57-J-0-1.bmp","zaha:ha","Down","40","5","2","6B","C2","C","66"
"","","approach-retreat","70","621601","0.0-70.0","","","1-2","8047","39","1","Training","Stims/Figures/74-J-10-4.bmp","sa:sa:za","Right","39","5","3","6B","C2","C","67"
"","","approach-retreat","71","628664","0.0-71.0","","","1-2","5512","40","1","Training","Stims/Figures/139-C-20-2.bmp","vasha:sha","Up","40","5","4","6B","C1","C","68"
"","","approach-retreat","72","635867","0.0-72.0","","","1-2","5657","37","1","Training","Stims/Figures/7-C-20-4.bmp","va:fa:sha","Right","37","5","5","6B","C1","C","69"
"","","approach-retreat","73","642328","0.0-73.0","","","1-2","4911","40","0","Training","Stims/Figures/57-C-30-1.bmp","vafa:sha","Down","38","5","6","6B","C1","C","70"
"","","approach-retreat","74","648201","0.0-74.0","","","1-2","4322","39","0","Training","Stims/Figures/139-J-0-2.bmp","saha:ha","Left","37","5","7","6B","C2","C","71"
"","","approach-retreat","75","656619","0.0-75.0","","","1-2","6877","39","1","Training","Stims/Figures/74-C-20-4.bmp","vashasha","Left","39","5","8","6B","C1","C","72"
"","","approach-retreat","76","662371","0.0-76.0","","","1-2","4199","37","0","Training","Stims/Figures/27-J-0-1.bmp","saha:za","Right","39","5","9","6B","C2","C","73"
"","","approach-retreat","77","668006","0.0-77.0","","","1-2","4071","39","0","Training","Stims/Figures/27-C-30-1.bmp","fafava","Right","37","5","10","6B","C1","C","74"
"","","approach-retreat","78","673762","0.0-78.0","","","1-2","4206","38","1","Training","Stims/Figures/144-J-10-3.bmp","za:haha","Up","38","5","11","6B","C2","C","75"
"","","approach-retreat","79","679610","0.0-79.0","","","1-2","4279","38","1","Training","Stims/Figures/85-J-0-2.bmp","zaha:za","Up","38","5","12","6B","C2","C","76"
"","","approach-retreat","80","685158","0.0-80.0","","","1-2","3991","38","1","Training","Stims/Figures/111-J-10-3.bmp","za:sa:ha","Up","38","5","13","6B","C2","C","77"
"","","approach-retreat","81","691277","0.0-81.0","","","1-2","4571","39","1","Training","Stims/Figures/85-C-20-2.bmp","fa:shasha","Left","39","5","14","6B","C1","C","78"
"","","approach-retreat","82","696856","0.0-82.0","","","1-2","4020","38","1","Training","Stims/Figures/144-C-30-3.bmp","va:fava","Down","38","5","15","6B","C1","C","79"
"","","approach-retreat","83","703087","0.0-83.0","","","1-2","4680","38","1","Training","Stims/Figures/111-C-30-3.bmp","va:sha:sha","Down","38","5","16","6B","C1","C","80"
"","","approach-retreat","84","708959","0.0-84.0","","","1-2","4313","39","0","Training","Stims/Figures/27-J-0-1.bmp","saha:za","Left","37","6","1","6B","C2","C","81"
"","","approach-retreat","85","715407","0.0-85.0","","","1-2","4897","38","1","Training","Stims/Figures/111-C-30-3.bmp","va:sha:sha","Down","38","6","2","6B","C1","C","82"
"","","approach-retreat","86","721930","0.0-86.0","","","1-2","4969","39","1","Training","Stims/Figures/144-J-10-3.bmp","za:haha","Right","39","6","3","6B","C2","C","83"
"","","approach-retreat","87","728239","0.0-87.0","","","1-2","4770","40","0","Training","Stims/Figures/85-C-20-2.bmp","fa:shasha","Down","38","6","4","6B","C1","C","84"
"","","approach-retreat","88","734496","0.0-88.0","","","1-2","4698","39","1","Training","Stims/Figures/57-J-0-1.bmp","zaha:ha","Right","39","6","5","6B","C2","C","85"
"","","approach-retreat","89","740064","0.0-89.0","","","1-2","4009","37","0","Training","Stims/Figures/144-C-30-3.bmp","va:fava","Left","39","6","6","6B","C1","C","86"
"","","approach-retreat","90","746044","0.0-90.0","","","1-2","4429","40","1","Training","Stims/Figures/74-C-20-4.bmp","vashasha","Up","40","6","7","6B","C1","C","87"
"","","approach-retreat","91","751930","0.0-91.0","","","1-2","4333","39","0","Training","Stims/Figures/111-J-10-3.bmp","za:sa:ha","Left","37","6","8","6B","C2","C","88"
"","","approach-retreat","92","757769","0.0-92.0","","","1-2","4273","40","1","Training","Stims/Figures/7-J-10-4.bmp","za:haza","Down","40","6","9","6B","C2","C","89"
"","","approach-retreat","93","763404","0.0-93.0","","","1-2","4067","39","1","Training","Stims/Figures/74-J-10-4.bmp","sa:sa:za","Right","39","6","10","6B","C2","C","90"
"","","approach-retreat","94","771010","0.0-94.0","","","1-2","6054","39","1","Training","Stims/Figures/85-J-0-2.bmp","zaha:za","Right","39","6","11","6B","C2","C","91"
"","","approach-retreat","95","777684","0.0-95.0","","","1-2","5121","39","0","Training","Stims/Figures/139-J-0-2.bmp","saha:ha","Left","37","6","12","6B","C2","C","92"
"","","approach-retreat","96","783492","0.0-96.0","","","1-2","4239","40","1","Training","Stims/Figures/7-C-20-4.bmp","va:fa:sha","Up","40","6","13","6B","C1","C","93"
"","","approach-retreat","97","790666","0.0-97.0","","","1-2","5624","40","1","Training","Stims/Figures/27-C-30-1.bmp","fafava","Up","40","6","14","6B","C1","C","94"
"","","approach-retreat","98","796672","0.0-98.0","","","1-2","4452","38","1","Training","Stims/Figures/57-C-30-1.bmp","vafa:sha","Down","38","6","15","6B","C1","C","95"
"","","approach-retreat","99","802185","0.0-99.0","","","1-2","3962","40","1","Training","Stims/Figures/139-C-20-2.bmp","vasha:sha","Up","40","6","16","6B","C1","C","96"
"","","approach-retreat","100","807939","0.0-100.0","","","1-2","4195","39","0","Training","Stims/Figures/144-C-30-3.bmp","va:fava","Right","37","7","1","6B","C1","C","97"
"","","approach-retreat","101","814192","0.0-101.0","","","1-2","4720","40","0","Training","Stims/Figures/144-J-10-3.bmp","za:haha","Up","38","7","2","6B","C2","C","98"
"","","approach-retreat","102","822138","0.0-102.0","","","1-2","6396","38","1","Training","Stims/Figures/57-J-0-1.bmp","zaha:ha","Up","38","7","3","6B","C2","C","99"
"","","approach-retreat","103","827867","0.0-103.0","","","1-2","4184","40","1","Training","Stims/Figures/85-J-0-2.bmp","zaha:za","Down","40","7","4","6B","C2","C","100"
"","","approach-retreat","104","834051","0.0-104.0","","","1-2","4646","39","0","Training","Stims/Figures/74-J-10-4.bmp","sa:sa:za","Left","37","7","5","6B","C2","C","101"
"","","approach-retreat","105","839706","0.0-105.0","","","1-2","4118","40","0","Training","Stims/Figures/27-C-30-1.bmp","fafava","Down","38","7","6","6B","C1","C","102"
"","","approach-retreat","106","845532","0.0-106.0","","","1-2","4271","39","1","Training","Stims/Figures/7-J-10-4.bmp","za:haza","Right","39","7","7","6B","C2","C","103"
"","","approach-retreat","107","851648","0.0-107.0","","","1-2","4580","40","1","Training","Stims/Figures/27-J-0-1.bmp","saha:za","Down","40","7","8","6B","C2","C","104"
"","","approach-retreat","108","857214","0.0-108.0","","","1-2","4038","40","0","Training","Stims/Figures/111-C-30-3.bmp","va:sha:sha","Down","38","7","9","6B","C1","C","105"
"","","approach-retreat","109","862794","0.0-109.0","","","1-2","4029","40","1","Training","Stims/Figures/85-C-20-2.bmp","fa:shasha","Up","40","7","10","6B","C1","C","106"
"","","approach-retreat","110","868903","0.0-110.0","","","1-2","4548","39","0","Training","Stims/Figures/111-J-10-3.bmp","za:sa:ha","Left","37","7","11","6B","C2","C","107"
"","","approach-retreat","111","874570","0.0-111.0","","","1-2","4123","40","1","Training","Stims/Figures/74-C-20-4.bmp","vashasha","Up","40","7","12","6B","C1","C","108"
"","","approach-retreat","112","882572","0.0-112.0","","","1-2","6472","39","1","Training","Stims/Figures/139-J-0-2.bmp","saha:ha","Right","39","7","13","6B","C2","C","109"
"","","approach-retreat","113","888297","0.0-113.0","","","1-2","4165","39","1","Training","Stims/Figures/139-C-20-2.bmp","vasha:sha","Left","39","7","14","6B","C1","C","110"
"","","approach-retreat","114","893883","0.0-114.0","","","1-2","4065","39","1","Training","Stims/Figures/7-C-20-4.bmp","va:fa:sha","Left","39","7","15","6B","C1","C","111"
"","","approach-retreat","115","899541","0.0-115.0","","","1-2","4112","39","0","Training","Stims/Figures/57-C-30-1.bmp","vafa:sha","Right","37","7","16","6B","C1","C","112"
"","","approach-retreat","116","905196","0.0-116.0","","","1-2","4101","39","1","Training","Stims/Figures/57-J-0-1.bmp","zaha:ha","Right","39","8","1","6B","C2","C","113"
"","","approach-retreat","117","913342","0.0-117.0","","","1-2","6604","40","1","Training","Stims/Figures/27-C-30-1.bmp","fafava","Up","40","8","2","6B","C1","C","114"
"","","approach-retreat","118","923713","0.0-118.0","","","1-2","8825","37","0","Training","Stims/Figures/139-J-0-2.bmp","saha:ha","Right","39","8","3","6B","C2","C","115"
"","","approach-retreat","119","929655","0.0-119.0","","","1-2","4405","40","0","Training","Stims/Figures/111-J-10-3.bmp","za:sa:ha","Up","38","8","4","6B","C2","C","116"
"","","approach-retreat","120","935892","0.0-120.0","","","1-2","4681","40","1","Training","Stims/Figures/7-J-10-4.bmp","za:haza","Down","40","8","5","6B","C2","C","117"
"","","approach-retreat","121","941791","0.0-121.0","","","1-2","4358","39","0","Training","Stims/Figures/144-J-10-3.bmp","za:haha","Left","37","8","6","6B","C2","C","118"
"","","approach-retreat","122","948429","0.0-122.0","","","1-2","5090","38","1","Training","Stims/Figures/144-C-30-3.bmp","va:fava","Down","38","8","7","6B","C1","C","119"
"","","approach-retreat","123","954064","0.0-123.0","","","1-2","4094","40","0","Training","Stims/Figures/85-C-20-2.bmp","fa:shasha","Down","38","8","8","6B","C1","C","120"
"","","approach-retreat","124","959749","0.0-124.0","","","1-2","4157","39","0","Training","Stims/Figures/74-J-10-4.bmp","sa:sa:za","Left","37","8","9","6B","C2","C","121"
"","","approach-retreat","125","965366","0.0-125.0","","","1-2","4065","39","0","Training","Stims/Figures/27-J-0-1.bmp","saha:za","Left","37","8","10","6B","C2","C","122"
"","","approach-retreat","126","971049","0.0-126.0","","","1-2","4139","40","1","Training","Stims/Figures/85-J-0-2.bmp","zaha:za","Down","40","8","11","6B","C2","C","123"
"","","approach-retreat","127","978089","0.0-127.0","","","1-2","5488","39","0","Training","Stims/Figures/7-C-20-4.bmp","va:fa:sha","Right","37","8","12","6B","C1","C","124"
"","","approach-retreat","128","983728","0.0-128.0","","","1-2","4089","39","1","Training","Stims/Figures/139-C-20-2.bmp","vasha:sha","Left","39","8","13","6B","C1","C","125"
"","","approach-retreat","129","990058","0.0-129.0","","","1-2","4768","39","0","Training","Stims/Figures/111-C-30-3.bmp","va:sha:sha","Right","37","8","14","6B","C1","C","126"
"","","approach-retreat","130","997239","0.0-130.0","","","1-2","5631","40","1","Training","Stims/Figures/74-C-20-4.bmp","vashasha","Up","40","8","15","6B","C1","C","127"
"","","approach-retreat","131","1003205","0.0-131.0","","","1-2","4429","40","1","Training","Stims/Figures/57-C-30-1.bmp","vafa:sha","Up","40","8","16","6B","C1","C","128"
"","","approach-retreat","132","1009259","0.0-132.0","","","1-2","4508","40","0","Training","Stims/Figures/85-C-20-2.bmp","fa:shasha","Down","38","9","1","6B","C1","C","129"
"","","approach-retreat","133","1015010","0.0-133.0","","","1-2","4206","40","1","Training","Stims/Figures/7-J-10-4.bmp","za:haza","Down","40","9","2","6B","C2","C","130"
"","","approach-retreat","134","1023259","0.0-134.0","","","1-2","6691","39","0","Training","Stims/Figures/139-J-0-2.bmp","saha:ha","Left","37","9","3","6B","C2","C","131"
"","","approach-retreat","135","1029579","0.0-135.0","","","1-2","4785","39","0","Training","Stims/Figures/111-J-10-3.bmp","za:sa:ha","Left","37","9","4","6B","C2","C","132"
"","","approach-retreat","136","1035782","0.0-136.0","","","1-2","4654","39","0","Training","Stims/Figures/27-J-0-1.bmp","saha:za","Left","37","9","5","6B","C2","C","133"
"","","approach-retreat","137","1044420","0.0-137.0","","","1-2","7069","39","0","Training","Stims/Figures/27-C-30-1.bmp","fafava","Right","37","9","6","6B","C1","C","134"
"","","approach-retreat","138","1050259","0.0-138.0","","","1-2","4284","39","0","Training","Stims/Figures/57-C-30-1.bmp","vafa:sha","Right","37","9","7","6B","C1","C","135"
"","","approach-retreat","139","1055767","0.0-139.0","","","1-2","3955","37","0","Training","Stims/Figures/74-C-20-4.bmp","vashasha","Left","39","9","8","6B","C1","C","136"
"","","approach-retreat","140","1061601","0.0-140.0","","","1-2","4279","39","0","Training","Stims/Figures/139-C-20-2.bmp","vasha:sha","Right","37","9","9","6B","C1","C","137"
"","","approach-retreat","141","1067205","0.0-141.0","","","1-2","4065","40","0","Training","Stims/Figures/74-J-10-4.bmp","sa:sa:za","Up","38","9","10","6B","C2","C","138"
"","","approach-retreat","142","1072910","0.0-142.0","","","1-2","4141","38","1","Training","Stims/Figures/7-C-20-4.bmp","va:fa:sha","Down","38","9","11","6B","C1","C","139"
"","","approach-retreat","143","1078391","0.0-143.0","","","1-2","3922","40","0","Training","Stims/Figures/144-C-30-3.bmp","va:fava","Down","38","9","12","6B","C1","C","140"
"","","approach-retreat","144","1084084","0.0-144.0","","","1-2","4141","40","0","Training","Stims/Figures/57-J-0-1.bmp","zaha:ha","Up","38","9","13","6B","C2","C","141"
"","","approach-retreat","145","1089874","0.0-145.0","","","1-2","4230","39","1","Training","Stims/Figures/85-J-0-2.bmp","zaha:za","Right","39","9","14","6B","C2","C","142"
"","","approach-retreat","146","1095733","0.0-146.0","","","1-2","4318","38","0","Training","Stims/Figures/111-C-30-3.bmp","va:sha:sha","Up","40","9","15","6B","C1","C","143"
"","","approach-retreat","147","1101420","0.0-147.0","","","1-2","4132","40","0","Training","Stims/Figures/144-J-10-3.bmp","za:haha","Up","38","9","16","6B","C2","C","144"
"18678","","instructions","148","1120104","0.0-148.0","[{""page_index"":0,""viewing_time"":18672}]","","","","","","","","","","","","","","","",""
"","","approach-retreat","149","1128393","0.0-149.0","","","1-2","6749","40","1","Testing","Stims/Figures/57-C-30-1.bmp","vafa:sha","Up","40","1","1","6B","C1","C","1"
"","","approach-retreat","150","1133762","0.0-150.0","","","1-2","3808","39","0","Testing","Stims/Figures/27-C-30-1.bmp","fafava","Right","37","1","2","6B","C1","C","2"
"","","approach-retreat","151","1139588","0.0-151.0","","","1-2","4306","38","0","Testing","Stims/Figures/144-J-10-3.bmp","za:haha","Down","40","1","3","6B","C2","C","3"
"","","approach-retreat","152","1145612","0.0-152.0","","","1-2","4476","38","1","Testing","Stims/Figures/85-J-0-2.bmp","zaha:za","Up","38","1","4","6B","C2","C","4"
"","","approach-retreat","153","1151214","0.0-153.0","","","1-2","4057","39","0","Testing","Stims/Figures/87-C-20-4.bmp","va:fasha","Right","37","1","5","6B","C1","C","5"
"","","approach-retreat","154","1158080","0.0-154.0","","","1-2","5316","39","1","Testing","Stims/Figures/139-J-0-2.bmp","saha:ha","Right","39","1","6","6B","C2","C","6"
"","","approach-retreat","155","1164673","0.0-155.0","","","1-2","5038","39","0","Testing","Stims/Figures/94-C-20-2.bmp","fa:sha:va","Right","37","1","7","6B","C1","C","7"
"","","approach-retreat","156","1169753","0.0-156.0","","","1-2","3550","39","0","Testing","Stims/Figures/27-J-0-1.bmp","saha:za","Left","37","1","8","6B","C2","C","8"
"","","approach-retreat","157","1175720","0.0-157.0","","","1-2","4425","39","1","Testing","Stims/Figures/86-C-30-1.bmp","fasha:va","Left","39","1","9","6B","C1","C","9"
"","","approach-retreat","158","1182382","0.0-158.0","","","1-2","5110","39","1","Testing","Stims/Figures/144-C-30-3.bmp","va:fava","Left","39","1","10","6B","C1","C","10"
"","","approach-retreat","159","1188214","0.0-159.0","","","1-2","4291","39","0","Testing","Stims/Figures/100-C-30-3.bmp","va:shasha","Right","37","1","11","6B","C1","C","11"
"","","approach-retreat","160","1194053","0.0-160.0","","","1-2","4284","40","0","Testing","Stims/Figures/74-C-20-4.bmp","vashasha","Down","38","1","12","6B","C1","C","12"
"","","approach-retreat","161","1199733","0.0-161.0","","","1-2","4116","40","0","Testing","Stims/Figures/85-C-20-2.bmp","fa:shasha","Down","38","1","13","6B","C1","C","13"
"","","approach-retreat","162","1207503","0.0-162.0","","","1-2","6222","40","1","Testing","Stims/Figures/94-J-0-2.bmp","zasaha","Down","40","1","14","6B","C2","C","14"
"","","approach-retreat","163","1213556","0.0-163.0","","","1-2","4515","38","0","Testing","Stims/Figures/111-C-30-3.bmp","va:sha:sha","Up","40","1","15","6B","C1","C","15"
"","","approach-retreat","164","1220277","0.0-164.0","","","1-2","5167","38","0","Testing","Stims/Figures/139-C-20-2.bmp","vasha:sha","Up","40","1","16","6B","C1","C","16"
"","","approach-retreat","165","1226492","0.0-165.0","","","1-2","4669","39","1","Testing","Stims/Figures/86-J-0-1.bmp","sa:haha","Right","39","1","17","6B","C2","C","17"
"","","approach-retreat","166","1232285","0.0-166.0","","","1-2","4239","37","1","Testing","Stims/Figures/111-J-10-3.bmp","za:sa:ha","Left","37","1","18","6B","C2","C","18"
"","","approach-retreat","167","1238167","0.0-167.0","","","1-2","4354","40","1","Testing","Stims/Figures/57-J-0-1.bmp","zaha:ha","Down","40","1","19","6B","C2","C","19"
"","","approach-retreat","168","1243941","0.0-168.0","","","1-2","4235","40","1","Testing","Stims/Figures/7-C-20-4.bmp","va:fa:sha","Up","40","1","20","6B","C1","C","20"
"","","approach-retreat","169","1249955","0.0-169.0","","","1-2","4471","37","1","Testing","Stims/Figures/100-J-10-3.bmp","sasa:ha","Left","37","1","21","6B","C2","C","21"
"","","approach-retreat","170","1258398","0.0-170.0","","","1-2","6919","38","0","Testing","Stims/Figures/87-J-10-4.bmp","za:saha","Down","40","1","22","6B","C2","C","22"
"","","approach-retreat","171","1267411","0.0-171.0","","","1-2","7476","38","1","Testing","Stims/Figures/74-J-10-4.bmp","sa:sa:za","Up","38","1","23","6B","C2","C","23"
"","","approach-retreat","172","1274409","0.0-172.0","","","1-2","5452","39","0","Testing","Stims/Figures/7-J-10-4.bmp","za:haza","Left","37","1","24","6B","C2","C","24"
"","","approach-retreat","173","1280033","0.0-173.0","","","1-2","4083","40","1","Testing","Stims/Figures/7-C-20-4.bmp","va:fa:sha","Up","40","2","1","6B","C1","C","25"
"","","approach-retreat","174","1288029","0.0-174.0","","","1-2","6463","39","1","Testing","Stims/Figures/94-C-20-2.bmp","fa:sha:va","Left","39","2","2","6B","C1","C","26"
"","","approach-retreat","175","1294574","0.0-175.0","","","1-2","5026","38","0","Testing","Stims/Figures/86-C-30-1.bmp","fasha:va","Up","40","2","3","6B","C1","C","27"
"","","approach-retreat","176","1300749","0.0-176.0","","","1-2","4617","38","0","Testing","Stims/Figures/111-J-10-3.bmp","za:sa:ha","Down","40","2","4","6B","C2","C","28"
"","","approach-retreat","177","1307288","0.0-177.0","","","1-2","4991","39","0","Testing","Stims/Figures/100-C-30-3.bmp","va:shasha","Right","37","2","5","6B","C1","C","29"
"","","approach-retreat","178","1313304","0.0-178.0","","","1-2","4474","39","1","Testing","Stims/Figures/57-C-30-1.bmp","vafa:sha","Left","39","2","6","6B","C1","C","30"
"","","approach-retreat","179","1319677","0.0-179.0","","","1-2","4837","37","1","Testing","Stims/Figures/111-C-30-3.bmp","va:sha:sha","Right","37","2","7","6B","C1","C","31"
"","","approach-retreat","180","1326335","0.0-180.0","","","1-2","5117","40","0","Testing","Stims/Figures/27-C-30-1.bmp","fafava","Down","38","2","8","6B","C1","C","32"
"","","approach-retreat","181","1332476","0.0-181.0","","","1-2","4597","39","0","Testing","Stims/Figures/144-C-30-3.bmp","va:fava","Right","37","2","9","6B","C1","C","33"
"","","approach-retreat","182","1339366","0.0-182.0","","","1-2","5351","38","0","Testing","Stims/Figures/94-J-0-2.bmp","zasaha","Down","40","2","10","6B","C2","C","34"
"","","approach-retreat","183","1347690","0.0-183.0","","","1-2","6779","37","1","Testing","Stims/Figures/27-J-0-1.bmp","saha:za","Left","37","2","11","6B","C2","C","35"
"","","approach-retreat","184","1354138","0.0-184.0","","","1-2","4901","37","1","Testing","Stims/Figures/85-J-0-2.bmp","zaha:za","Left","37","2","12","6B","C2","C","36"
"","","approach-retreat","185","1362330","0.0-185.0","","","1-2","6655","38","1","Testing","Stims/Figures/74-C-20-4.bmp","vashasha","Down","38","2","13","6B","C1","C","37"
"","","approach-retreat","186","1368058","0.0-186.0","","","1-2","4182","39","1","Testing","Stims/Figures/86-J-0-1.bmp","sa:haha","Right","39","2","14","6B","C2","C","38"
"","","approach-retreat","187","1375425","0.0-187.0","","","1-2","5841","38","0","Testing","Stims/Figures/100-J-10-3.bmp","sasa:ha","Down","40","2","15","6B","C2","C","39"
"","","approach-retreat","188","1383357","0.0-188.0","","","1-2","6400","39","1","Testing","Stims/Figures/144-J-10-3.bmp","za:haha","Right","39","2","16","6B","C2","C","40"
"","","approach-retreat","189","1388879","0.0-189.0","","","1-2","3978","38","0","Testing","Stims/Figures/139-C-20-2.bmp","vasha:sha","Up","40","2","17","6B","C1","C","41"
"","","approach-retreat","190","1396131","0.0-190.0","","","1-2","5717","39","1","Testing","Stims/Figures/85-C-20-2.bmp","fa:shasha","Left","39","2","18","6B","C1","C","42"
"","","approach-retreat","191","1404765","0.0-191.0","","","1-2","7086","39","1","Testing","Stims/Figures/74-J-10-4.bmp","sa:sa:za","Right","39","2","19","6B","C2","C","43"
"","","approach-retreat","192","1412071","0.0-192.0","","","1-2","5783","38","1","Testing","Stims/Figures/139-J-0-2.bmp","saha:ha","Up","38","2","20","6B","C2","C","44"
"","","approach-retreat","193","1417887","0.0-193.0","","","1-2","4261","40","1","Testing","Stims/Figures/87-C-20-4.bmp","va:fasha","Up","40","2","21","6B","C1","C","45"
"","","approach-retreat","194","1424988","0.0-194.0","","","1-2","5569","38","1","Testing","Stims/Figures/57-J-0-1.bmp","zaha:ha","Up","38","2","22","6B","C2","C","46"
"","","approach-retreat","195","1431881","0.0-195.0","","","1-2","5370","38","0","Testing","Stims/Figures/7-J-10-4.bmp","za:haza","Down","40","2","23","6B","C2","C","47"
"","","approach-retreat","196","1438138","0.0-196.0","","","1-2","4720","39","0","Testing","Stims/Figures/87-J-10-4.bmp","za:saha","Left","37","2","24","6B","C2","C","48"
"","","approach-retreat","197","1444058","0.0-197.0","","","1-2","4362","39","0","Testing","Stims/Figures/74-C-20-4.bmp","vashasha","Right","37","3","1","6B","C1","C","49"
"","","approach-retreat","198","1449749","0.0-198.0","","","1-2","4155","38","0","Testing","Stims/Figures/85-J-0-2.bmp","zaha:za","Down","40","3","2","6B","C2","C","50"
"","","approach-retreat","199","1456008","0.0-199.0","","","1-2","4714","40","1","Testing","Stims/Figures/86-J-0-1.bmp","sa:haha","Down","40","3","3","6B","C2","C","51"
"","","approach-retreat","200","1461829","0.0-200.0","","","1-2","4286","40","1","Testing","Stims/Figures/100-J-10-3.bmp","sasa:ha","Down","40","3","4","6B","C2","C","52"
"","","approach-retreat","201","1467961","0.0-201.0","","","1-2","4588","39","0","Testing","Stims/Figures/86-C-30-1.bmp","fasha:va","Right","37","3","5","6B","C1","C","53"
"","","approach-retreat","202","1475814","0.0-202.0","","","1-2","6316","39","0","Testing","Stims/Figures/7-J-10-4.bmp","za:haza","Left","37","3","6","6B","C2","C","54"
"","","approach-retreat","203","1481474","0.0-203.0","","","1-2","4109","38","0","Testing","Stims/Figures/144-C-30-3.bmp","va:fava","Up","40","3","7","6B","C1","C","55"
"","","approach-retreat","204","1490190","0.0-204.0","","","1-2","7170","39","1","Testing","Stims/Figures/7-C-20-4.bmp","va:fa:sha","Left","39","3","8","6B","C1","C","56"
"","","approach-retreat","205","1609845","0.0-205.0","","","1-2","118132","39","1","Testing","Stims/Figures/74-J-10-4.bmp","sa:sa:za","Right","39","3","9","6B","C2","C","57"
"","","approach-retreat","206","1616433","0.0-206.0","","","1-2","5043","39","0","Testing","Stims/Figures/85-C-20-2.bmp","fa:shasha","Right","37","3","10","6B","C1","C","58"
"","","approach-retreat","207","1622143","0.0-207.0","","","1-2","4179","40","1","Testing","Stims/Figures/57-C-30-1.bmp","vafa:sha","Up","40","3","11","6B","C1","C","59"
"","","approach-retreat","208","1628449","0.0-208.0","","","1-2","4768","38","1","Testing","Stims/Figures/27-C-30-1.bmp","fafava","Down","38","3","12","6B","C1","C","60"
"","","approach-retreat","209","1634487","0.0-209.0","","","1-2","4497","39","0","Testing","Stims/Figures/111-J-10-3.bmp","za:sa:ha","Left","37","3","13","6B","C2","C","61"
"","","approach-retreat","210","1640295","0.0-210.0","","","1-2","4249","39","0","Testing","Stims/Figures/144-J-10-3.bmp","za:haha","Left","37","3","14","6B","C2","C","62"
"","","approach-retreat","211","1646098","0.0-211.0","","","1-2","4250","39","1","Testing","Stims/Figures/57-J-0-1.bmp","zaha:ha","Right","39","3","15","6B","C2","C","63"
"","","approach-retreat","212","1651722","0.0-212.0","","","1-2","4064","40","1","Testing","Stims/Figures/94-J-0-2.bmp","zasaha","Down","40","3","16","6B","C2","C","64"
"","","approach-retreat","213","1657539","0.0-213.0","","","1-2","4260","39","1","Testing","Stims/Figures/139-C-20-2.bmp","vasha:sha","Left","39","3","17","6B","C1","C","65"
"","","approach-retreat","214","1663523","0.0-214.0","","","1-2","4429","40","0","Testing","Stims/Figures/27-J-0-1.bmp","saha:za","Up","38","3","18","6B","C2","C","66"
"","","approach-retreat","215","1669563","0.0-215.0","","","1-2","4483","39","0","Testing","Stims/Figures/111-C-30-3.bmp","va:sha:sha","Right","37","3","19","6B","C1","C","67"
"","","approach-retreat","216","1675731","0.0-216.0","","","1-2","4611","40","1","Testing","Stims/Figures/100-C-30-3.bmp","va:shasha","Up","40","3","20","6B","C1","C","68"
"","","approach-retreat","217","1681944","0.0-217.0","","","1-2","4660","40","0","Testing","Stims/Figures/94-C-20-2.bmp","fa:sha:va","Down","38","3","21","6B","C1","C","69"
"","","approach-retreat","218","1688185","0.0-218.0","","","1-2","4687","39","0","Testing","Stims/Figures/87-J-10-4.bmp","za:saha","Left","37","3","22","6B","C2","C","70"
"","","approach-retreat","219","1694288","0.0-219.0","","","1-2","4557","40","1","Testing","Stims/Figures/87-C-20-4.bmp","va:fasha","Up","40","3","23","6B","C1","C","71"
"","","approach-retreat","220","1701357","0.0-220.0","","","1-2","5523","40","0","Testing","Stims/Figures/139-J-0-2.bmp","saha:ha","Up","38","3","24","6B","C2","C","72"
"","","approach-retreat","221","1707028","0.0-221.0","","","1-2","4121","40","1","Testing","Stims/Figures/86-C-30-1.bmp","fasha:va","Up","40","4","1","6B","C1","C","73"
"","","approach-retreat","222","1712865","0.0-222.0","","","1-2","4289","40","1","Testing","Stims/Figures/7-J-10-4.bmp","za:haza","Down","40","4","2","6B","C2","C","74"
"","","approach-retreat","223","1718854","0.0-223.0","","","1-2","4434","40","0","Testing","Stims/Figures/94-J-0-2.bmp","zasaha","Up","38","4","3","6B","C2","C","75"
"","","approach-retreat","224","1724536","0.0-224.0","","","1-2","4140","40","1","Testing","Stims/Figures/85-J-0-2.bmp","zaha:za","Down","40","4","4","6B","C2","C","76"
"","","approach-retreat","225","1730476","0.0-225.0","","","1-2","4387","39","0","Testing","Stims/Figures/87-J-10-4.bmp","za:saha","Left","37","4","5","6B","C2","C","77"
"","","approach-retreat","226","1736557","0.0-226.0","","","1-2","4530","39","0","Testing","Stims/Figures/27-C-30-1.bmp","fafava","Right","37","4","6","6B","C1","C","78"
"","","approach-retreat","227","1742344","0.0-227.0","","","1-2","4248","38","0","Testing","Stims/Figures/100-C-30-3.bmp","va:shasha","Up","40","4","7","6B","C1","C","79"
"","","approach-retreat","228","1748021","0.0-228.0","","","1-2","4154","39","0","Testing","Stims/Figures/100-J-10-3.bmp","sasa:ha","Left","37","4","8","6B","C2","C","80"
"","","approach-retreat","229","1754268","0.0-229.0","","","1-2","4693","39","0","Testing","Stims/Figures/144-C-30-3.bmp","va:fava","Right","37","4","9","6B","C1","C","81"
"","","approach-retreat","230","1760058","0.0-230.0","","","1-2","4241","39","1","Testing","Stims/Figures/74-J-10-4.bmp","sa:sa:za","Right","39","4","10","6B","C2","C","82"
"","","approach-retreat","231","1765843","0.0-231.0","","","1-2","4220","37","1","Testing","Stims/Figures/57-J-0-1.bmp","zaha:ha","Left","37","4","11","6B","C2","C","83"
"","","approach-retreat","232","1771990","0.0-232.0","","","1-2","4595","37","0","Testing","Stims/Figures/144-J-10-3.bmp","za:haha","Right","39","4","12","6B","C2","C","84"
"","","approach-retreat","233","1777930","0.0-233.0","","","1-2","4398","40","0","Testing","Stims/Figures/85-C-20-2.bmp","fa:shasha","Down","38","4","13","6B","C1","C","85"
"","","approach-retreat","234","1783800","0.0-234.0","","","1-2","4316","40","0","Testing","Stims/Figures/57-C-30-1.bmp","vafa:sha","Down","38","4","14","6B","C1","C","86"
"","","approach-retreat","235","1789641","0.0-235.0","","","1-2","4300","40","0","Testing","Stims/Figures/94-C-20-2.bmp","fa:sha:va","Down","38","4","15","6B","C1","C","87"
"","","approach-retreat","236","1795192","0.0-236.0","","","1-2","4003","40","0","Testing","Stims/Figures/7-C-20-4.bmp","va:fa:sha","Down","38","4","16","6B","C1","C","88"
"","","approach-retreat","237","1801841","0.0-237.0","","","1-2","5098","39","1","Testing","Stims/Figures/111-J-10-3.bmp","za:sa:ha","Right","39","4","17","6B","C2","C","89"
"","","approach-retreat","238","1807709","0.0-238.0","","","1-2","4315","40","0","Testing","Stims/Figures/27-J-0-1.bmp","saha:za","Up","38","4","18","6B","C2","C","90"
"","","approach-retreat","239","1813597","0.0-239.0","","","1-2","4331","40","1","Testing","Stims/Figures/74-C-20-4.bmp","vashasha","Up","40","4","19","6B","C1","C","91"
"","","approach-retreat","240","1819218","0.0-240.0","","","1-2","4068","40","1","Testing","Stims/Figures/111-C-30-3.bmp","va:sha:sha","Up","40","4","20","6B","C1","C","92"
"","","approach-retreat","241","1825789","0.0-241.0","","","1-2","5040","39","1","Testing","Stims/Figures/139-C-20-2.bmp","vasha:sha","Left","39","4","21","6B","C1","C","93"
"","","approach-retreat","242","1831594","0.0-242.0","","","1-2","4255","39","1","Testing","Stims/Figures/87-C-20-4.bmp","va:fasha","Left","39","4","22","6B","C1","C","94"
"","","approach-retreat","243","1838091","0.0-243.0","","","1-2","4951","37","0","Testing","Stims/Figures/86-J-0-1.bmp","sa:haha","Right","39","4","23","6B","C2","C","95"
"","","approach-retreat","244","1844066","0.0-244.0","","","1-2","4429","39","0","Testing","Stims/Figures/139-J-0-2.bmp","saha:ha","Left","37","4","24","6B","C2","C","96"
"29929","","survey-text","245","1874024","0.0-245.0","","{""Q0"":""0035\n""}","","","","","","","","","","","","","","",""
