\"rt\",\"key_press\",\"trial_type\",\"trial_index\",\"time_elapsed\",\"internal_node_id\",\"view_history\",\"responses\",\"Id\",\"Rt\",\"ResKeyCode\",\"ResCorr\",\"TrialType2\",\"Image\",\"Label\",\"Location\",\"CorrectResponse\",\"Block\",\"BlockTrial\",\"Condition\",\"LabelType\",\"Subcondition\",\"trialNum\"
\"98759\",\"32\",\"text\",\"0\",\"98767\",\"0.0-0.0-0.0\",\"\",\"\",\"\",\"\",\"\",\"\",\"\",\"\",\"\",\"\",\"\",\"\",\"\",\"\",\"\",\"\",\"\"
\"222789\",\"\",\"instructions\",\"1\",\"321560\",\"0.0-1.0\",\"[{\"\"page_index\"\":0,\"\"viewing_time\"\":222787}]\",\"\",\"\",\"\",\"\",\"\",\"\",\"\",\"\",\"\",\"\",\"\",\"\",\"\",\"\",\"\",\"\"
\"28897\",\"\",\"survey-multi-choice\",\"2\",\"350517\",\"0.0-2.0\",\"\",\"{\"\"Q0\"\":\"\"Da\"\",\"\"Q1\"\":\"\"Da\"\",\"\"Q2\"\":\"\"Da\"\",\"\"Q3\"\":\"\"Da\"\",\"\"Q4\"\":\"\"Da\"\",\"\"Q5\"\":\"\"Da\"\"}\",\"\",\"\",\"\",\"\",\"\",\"\",\"\",\"\",\"\",\"\",\"\",\"\",\"\",\"\",\"\"
\"\",\"\",\"bio\",\"3\",\"361521\",\"0.0-3.0\",\"\",\"{\"\"age\"\":\"\"19\"\",\"\"gender\"\":\"\"f\"\",\"\"specify\"\":\"\"\"\"}\",\"\",\"\",\"\",\"\",\"\",\"\",\"\",\"\",\"\",\"\",\"\",\"\",\"\",\"\",\"\"
\"\",\"\",\"approach-retreat\",\"4\",\"378812\",\"0.0-4.0\",\"\",\"\",\"2-2\",\"15775\",\"38\",\"0\",\"Training\",\"Stims/Figures/84-C-20-2.bmp\",\"pa:pata\",\"Up\",\"40\",\"1\",\"1\",\"7\",\"P\",\"C\",\"1\"
\"\",\"\",\"approach-retreat\",\"5\",\"387894\",\"0.0-5.0\",\"\",\"\",\"2-2\",\"7569\",\"39\",\"0\",\"Training\",\"Stims/Figures/7-J-10-4.bmp\",\"na:lana\",\"Left\",\"37\",\"1\",\"2\",\"7\",\"S\",\"C\",\"2\"
\"\",\"\",\"approach-retreat\",\"6\",\"394659\",\"0.0-6.0\",\"\",\"\",\"2-2\",\"5252\",\"38\",\"0\",\"Training\",\"Stims/Figures/93-C-30-1.bmp\",\"paka:ka\",\"Up\",\"40\",\"1\",\"3\",\"7\",\"P\",\"C\",\"3\"
\"\",\"\",\"approach-retreat\",\"7\",\"400778\",\"0.0-7.0\",\"\",\"\",\"2-2\",\"4610\",\"40\",\"0\",\"Training\",\"Stims/Figures/128-J-10-3.bmp\",\"na:ma:la\",\"Up\",\"38\",\"1\",\"4\",\"7\",\"S\",\"C\",\"4\"
\"\",\"\",\"approach-retreat\",\"8\",\"409813\",\"0.0-8.0\",\"\",\"\",\"2-2\",\"7524\",\"38\",\"1\",\"Training\",\"Stims/Figures/71-C-30-1.bmp\",\"ta:ka:ta\",\"Down\",\"38\",\"1\",\"5\",\"7\",\"P\",\"C\",\"5\"
\"\",\"\",\"approach-retreat\",\"9\",\"416701\",\"0.0-9.0\",\"\",\"\",\"2-2\",\"5376\",\"37\",\"0\",\"Training\",\"Stims/Figures/19-C-20-4.bmp\",\"ma:ma:la\",\"Left\",\"39\",\"1\",\"6\",\"7\",\"S\",\"C\",\"6\"
\"\",\"\",\"approach-retreat\",\"10\",\"423559\",\"0.0-10.0\",\"\",\"\",\"2-2\",\"5344\",\"38\",\"1\",\"Training\",\"Stims/Figures/44-C-30-3.bmp\",\"mama:la\",\"Down\",\"38\",\"1\",\"7\",\"7\",\"S\",\"C\",\"7\"
\"\",\"\",\"approach-retreat\",\"11\",\"430137\",\"0.0-11.0\",\"\",\"\",\"2-2\",\"5065\",\"38\",\"1\",\"Training\",\"Stims/Figures/93-J-0-1.bmp\",\"tapa:ta\",\"Up\",\"38\",\"1\",\"8\",\"7\",\"P\",\"C\",\"8\"
\"\",\"\",\"approach-retreat\",\"12\",\"436192\",\"0.0-12.0\",\"\",\"\",\"2-2\",\"4544\",\"39\",\"1\",\"Training\",\"Stims/Figures/19-J-10-4.bmp\",\"nalana\",\"Right\",\"39\",\"1\",\"9\",\"7\",\"S\",\"C\",\"9\"
\"\",\"\",\"approach-retreat\",\"13\",\"442174\",\"0.0-13.0\",\"\",\"\",\"2-2\",\"4471\",\"39\",\"0\",\"Training\",\"Stims/Figures/44-J-10-3.bmp\",\"ma:ma:na\",\"Left\",\"37\",\"1\",\"10\",\"7\",\"S\",\"C\",\"10\"
\"\",\"\",\"approach-retreat\",\"14\",\"449813\",\"0.0-14.0\",\"\",\"\",\"2-2\",\"6130\",\"37\",\"0\",\"Training\",\"Stims/Figures/71-J-0-1.bmp\",\"takata\",\"Right\",\"39\",\"1\",\"11\",\"7\",\"P\",\"C\",\"11\"
\"\",\"\",\"approach-retreat\",\"15\",\"455720\",\"0.0-15.0\",\"\",\"\",\"2-2\",\"4395\",\"39\",\"0\",\"Training\",\"Stims/Figures/118-C-20-2.bmp\",\"pa:pa:ka\",\"Right\",\"37\",\"1\",\"12\",\"7\",\"P\",\"C\",\"12\"
\"\",\"\",\"approach-retreat\",\"16\",\"467341\",\"0.0-16.0\",\"\",\"\",\"2-2\",\"10111\",\"39\",\"0\",\"Training\",\"Stims/Figures/118-J-0-2.bmp\",\"pa:kata\",\"Left\",\"37\",\"1\",\"13\",\"7\",\"P\",\"C\",\"13\"
\"\",\"\",\"approach-retreat\",\"17\",\"473235\",\"0.0-17.0\",\"\",\"\",\"2-2\",\"4385\",\"38\",\"1\",\"Training\",\"Stims/Figures/128-C-30-3.bmp\",\"namala\",\"Down\",\"38\",\"1\",\"14\",\"7\",\"S\",\"C\",\"14\"
\"\",\"\",\"approach-retreat\",\"18\",\"481848\",\"0.0-18.0\",\"\",\"\",\"2-2\",\"7102\",\"37\",\"1\",\"Training\",\"Stims/Figures/7-C-20-4.bmp\",\"mama:na\",\"Right\",\"37\",\"1\",\"15\",\"7\",\"S\",\"C\",\"15\"
\"\",\"\",\"approach-retreat\",\"19\",\"487979\",\"0.0-19.0\",\"\",\"\",\"2-2\",\"4620\",\"38\",\"0\",\"Training\",\"Stims/Figures/84-J-0-2.bmp\",\"ta:pa:ta\",\"Down\",\"40\",\"1\",\"16\",\"7\",\"P\",\"C\",\"16\"
\"\",\"\",\"approach-retreat\",\"20\",\"493897\",\"0.0-20.0\",\"\",\"\",\"2-2\",\"4407\",\"37\",\"1\",\"Training\",\"Stims/Figures/19-C-20-4.bmp\",\"ma:ma:la\",\"Right\",\"37\",\"2\",\"1\",\"7\",\"S\",\"C\",\"17\"
\"\",\"\",\"approach-retreat\",\"21\",\"499753\",\"0.0-21.0\",\"\",\"\",\"2-2\",\"4346\",\"38\",\"1\",\"Training\",\"Stims/Figures/128-C-30-3.bmp\",\"namala\",\"Down\",\"38\",\"2\",\"2\",\"7\",\"S\",\"C\",\"18\"
\"\",\"\",\"approach-retreat\",\"22\",\"505739\",\"0.0-22.0\",\"\",\"\",\"2-2\",\"4474\",\"40\",\"0\",\"Training\",\"Stims/Figures/7-J-10-4.bmp\",\"na:lana\",\"Up\",\"38\",\"2\",\"3\",\"7\",\"S\",\"C\",\"19\"
\"\",\"\",\"approach-retreat\",\"23\",\"513238\",\"0.0-23.0\",\"\",\"\",\"2-2\",\"5988\",\"39\",\"0\",\"Training\",\"Stims/Figures/71-C-30-1.bmp\",\"ta:ka:ta\",\"Right\",\"37\",\"2\",\"4\",\"7\",\"P\",\"C\",\"20\"
\"\",\"\",\"approach-retreat\",\"24\",\"520490\",\"0.0-24.0\",\"\",\"\",\"2-2\",\"5742\",\"40\",\"0\",\"Training\",\"Stims/Figures/128-J-10-3.bmp\",\"na:ma:la\",\"Up\",\"38\",\"2\",\"5\",\"7\",\"S\",\"C\",\"21\"
\"\",\"\",\"approach-retreat\",\"25\",\"526677\",\"0.0-25.0\",\"\",\"\",\"2-2\",\"4675\",\"40\",\"0\",\"Training\",\"Stims/Figures/93-C-30-1.bmp\",\"paka:ka\",\"Down\",\"38\",\"2\",\"6\",\"7\",\"P\",\"C\",\"22\"
\"\",\"\",\"approach-retreat\",\"26\",\"532548\",\"0.0-26.0\",\"\",\"\",\"2-2\",\"4361\",\"37\",\"1\",\"Training\",\"Stims/Figures/118-J-0-2.bmp\",\"pa:kata\",\"Left\",\"37\",\"2\",\"7\",\"7\",\"P\",\"C\",\"23\"
\"\",\"\",\"approach-retreat\",\"27\",\"539415\",\"0.0-27.0\",\"\",\"\",\"2-2\",\"5356\",\"39\",\"1\",\"Training\",\"Stims/Figures/71-J-0-1.bmp\",\"takata\",\"Right\",\"39\",\"2\",\"8\",\"7\",\"P\",\"C\",\"24\"
\"\",\"\",\"approach-retreat\",\"28\",\"545415\",\"0.0-28.0\",\"\",\"\",\"2-2\",\"4487\",\"40\",\"1\",\"Training\",\"Stims/Figures/7-C-20-4.bmp\",\"mama:na\",\"Up\",\"40\",\"2\",\"9\",\"7\",\"S\",\"C\",\"25\"
\"\",\"\",\"approach-retreat\",\"29\",\"551562\",\"0.0-29.0\",\"\",\"\",\"2-2\",\"4634\",\"40\",\"0\",\"Training\",\"Stims/Figures/118-C-20-2.bmp\",\"pa:pa:ka\",\"Down\",\"38\",\"2\",\"10\",\"7\",\"P\",\"C\",\"26\"
\"\",\"\",\"approach-retreat\",\"30\",\"558096\",\"0.0-30.0\",\"\",\"\",\"2-2\",\"5024\",\"37\",\"0\",\"Training\",\"Stims/Figures/93-J-0-1.bmp\",\"tapa:ta\",\"Right\",\"39\",\"2\",\"11\",\"7\",\"P\",\"C\",\"27\"
\"\",\"\",\"approach-retreat\",\"31\",\"564178\",\"0.0-31.0\",\"\",\"\",\"2-2\",\"4568\",\"38\",\"0\",\"Training\",\"Stims/Figures/84-C-20-2.bmp\",\"pa:pata\",\"Up\",\"40\",\"2\",\"12\",\"7\",\"P\",\"C\",\"28\"
\"\",\"\",\"approach-retreat\",\"32\",\"570482\",\"0.0-32.0\",\"\",\"\",\"2-2\",\"4791\",\"37\",\"0\",\"Training\",\"Stims/Figures/44-C-30-3.bmp\",\"mama:la\",\"Left\",\"39\",\"2\",\"13\",\"7\",\"S\",\"C\",\"29\"
\"\",\"\",\"approach-retreat\",\"33\",\"576897\",\"0.0-33.0\",\"\",\"\",\"2-2\",\"4903\",\"38\",\"0\",\"Training\",\"Stims/Figures/19-J-10-4.bmp\",\"nalana\",\"Down\",\"40\",\"2\",\"14\",\"7\",\"S\",\"C\",\"30\"
\"\",\"\",\"approach-retreat\",\"34\",\"583095\",\"0.0-34.0\",\"\",\"\",\"2-2\",\"4686\",\"39\",\"0\",\"Training\",\"Stims/Figures/84-J-0-2.bmp\",\"ta:pa:ta\",\"Left\",\"37\",\"2\",\"15\",\"7\",\"P\",\"C\",\"31\"
\"\",\"\",\"approach-retreat\",\"35\",\"588810\",\"0.0-35.0\",\"\",\"\",\"2-2\",\"4204\",\"37\",\"1\",\"Training\",\"Stims/Figures/44-J-10-3.bmp\",\"ma:ma:na\",\"Left\",\"37\",\"2\",\"16\",\"7\",\"S\",\"C\",\"32\"
\"\",\"\",\"approach-retreat\",\"36\",\"594338\",\"0.0-36.0\",\"\",\"\",\"2-2\",\"4015\",\"37\",\"1\",\"Training\",\"Stims/Figures/44-J-10-3.bmp\",\"ma:ma:na\",\"Left\",\"37\",\"3\",\"1\",\"7\",\"S\",\"C\",\"33\"
\"\",\"\",\"approach-retreat\",\"37\",\"600297\",\"0.0-37.0\",\"\",\"\",\"2-2\",\"4448\",\"40\",\"1\",\"Training\",\"Stims/Figures/93-C-30-1.bmp\",\"paka:ka\",\"Up\",\"40\",\"3\",\"2\",\"7\",\"P\",\"C\",\"34\"
\"\",\"\",\"approach-retreat\",\"38\",\"606496\",\"0.0-38.0\",\"\",\"\",\"2-2\",\"4685\",\"40\",\"0\",\"Training\",\"Stims/Figures/128-C-30-3.bmp\",\"namala\",\"Down\",\"38\",\"3\",\"3\",\"7\",\"S\",\"C\",\"35\"
\"\",\"\",\"approach-retreat\",\"39\",\"614313\",\"0.0-39.0\",\"\",\"\",\"2-2\",\"6306\",\"37\",\"0\",\"Training\",\"Stims/Figures/71-J-0-1.bmp\",\"takata\",\"Right\",\"39\",\"3\",\"4\",\"7\",\"P\",\"C\",\"36\"
\"\",\"\",\"approach-retreat\",\"40\",\"621654\",\"0.0-40.0\",\"\",\"\",\"2-2\",\"5830\",\"37\",\"0\",\"Training\",\"Stims/Figures/44-C-30-3.bmp\",\"mama:la\",\"Left\",\"39\",\"3\",\"5\",\"7\",\"S\",\"C\",\"37\"
\"\",\"\",\"approach-retreat\",\"41\",\"627875\",\"0.0-41.0\",\"\",\"\",\"2-2\",\"4710\",\"37\",\"0\",\"Training\",\"Stims/Figures/93-J-0-1.bmp\",\"tapa:ta\",\"Right\",\"39\",\"3\",\"6\",\"7\",\"P\",\"C\",\"38\"
\"\",\"\",\"approach-retreat\",\"42\",\"635664\",\"0.0-42.0\",\"\",\"\",\"2-2\",\"6278\",\"39\",\"1\",\"Training\",\"Stims/Figures/7-C-20-4.bmp\",\"mama:na\",\"Left\",\"39\",\"3\",\"7\",\"7\",\"S\",\"C\",\"39\"
\"\",\"\",\"approach-retreat\",\"43\",\"642998\",\"0.0-43.0\",\"\",\"\",\"2-2\",\"5818\",\"38\",\"1\",\"Training\",\"Stims/Figures/19-J-10-4.bmp\",\"nalana\",\"Up\",\"38\",\"3\",\"8\",\"7\",\"S\",\"C\",\"40\"
\"\",\"\",\"approach-retreat\",\"44\",\"649635\",\"0.0-44.0\",\"\",\"\",\"2-2\",\"5126\",\"40\",\"1\",\"Training\",\"Stims/Figures/118-J-0-2.bmp\",\"pa:kata\",\"Down\",\"40\",\"3\",\"9\",\"7\",\"P\",\"C\",\"41\"
\"\",\"\",\"approach-retreat\",\"45\",\"655409\",\"0.0-45.0\",\"\",\"\",\"2-2\",\"4264\",\"39\",\"0\",\"Training\",\"Stims/Figures/118-C-20-2.bmp\",\"pa:pa:ka\",\"Right\",\"37\",\"3\",\"10\",\"7\",\"P\",\"C\",\"42\"
\"\",\"\",\"approach-retreat\",\"46\",\"661776\",\"0.0-46.0\",\"\",\"\",\"2-2\",\"4855\",\"39\",\"1\",\"Training\",\"Stims/Figures/128-J-10-3.bmp\",\"na:ma:la\",\"Right\",\"39\",\"3\",\"11\",\"7\",\"S\",\"C\",\"43\"
\"\",\"\",\"approach-retreat\",\"47\",\"670993\",\"0.0-47.0\",\"\",\"\",\"2-2\",\"7705\",\"38\",\"1\",\"Training\",\"Stims/Figures/7-J-10-4.bmp\",\"na:lana\",\"Up\",\"38\",\"3\",\"12\",\"7\",\"S\",\"C\",\"44\"
\"\",\"\",\"approach-retreat\",\"48\",\"677027\",\"0.0-48.0\",\"\",\"\",\"2-2\",\"4523\",\"40\",\"1\",\"Training\",\"Stims/Figures/19-C-20-4.bmp\",\"ma:ma:la\",\"Up\",\"40\",\"3\",\"13\",\"7\",\"S\",\"C\",\"45\"
\"\",\"\",\"approach-retreat\",\"49\",\"682906\",\"0.0-49.0\",\"\",\"\",\"2-2\",\"4366\",\"40\",\"0\",\"Training\",\"Stims/Figures/84-C-20-2.bmp\",\"pa:pata\",\"Down\",\"38\",\"3\",\"14\",\"7\",\"P\",\"C\",\"46\"
\"\",\"\",\"approach-retreat\",\"50\",\"689602\",\"0.0-50.0\",\"\",\"\",\"2-2\",\"5184\",\"37\",\"1\",\"Training\",\"Stims/Figures/84-J-0-2.bmp\",\"ta:pa:ta\",\"Left\",\"37\",\"3\",\"15\",\"7\",\"P\",\"C\",\"47\"
\"\",\"\",\"approach-retreat\",\"51\",\"695549\",\"0.0-51.0\",\"\",\"\",\"2-2\",\"4435\",\"40\",\"0\",\"Training\",\"Stims/Figures/71-C-30-1.bmp\",\"ta:ka:ta\",\"Down\",\"38\",\"3\",\"16\",\"7\",\"P\",\"C\",\"48\"
\"\",\"\",\"approach-retreat\",\"52\",\"702253\",\"0.0-52.0\",\"\",\"\",\"2-2\",\"5191\",\"39\",\"0\",\"Training\",\"Stims/Figures/19-J-10-4.bmp\",\"nalana\",\"Left\",\"37\",\"4\",\"1\",\"7\",\"S\",\"C\",\"49\"
\"\",\"\",\"approach-retreat\",\"53\",\"708953\",\"0.0-53.0\",\"\",\"\",\"2-2\",\"5189\",\"39\",\"1\",\"Training\",\"Stims/Figures/71-J-0-1.bmp\",\"takata\",\"Right\",\"39\",\"4\",\"2\",\"7\",\"P\",\"C\",\"50\"
\"\",\"\",\"approach-retreat\",\"54\",\"715018\",\"0.0-54.0\",\"\",\"\",\"2-2\",\"4553\",\"38\",\"1\",\"Training\",\"Stims/Figures/84-J-0-2.bmp\",\"ta:pa:ta\",\"Up\",\"38\",\"4\",\"3\",\"7\",\"P\",\"C\",\"51\"
\"\",\"\",\"approach-retreat\",\"55\",\"721057\",\"0.0-55.0\",\"\",\"\",\"2-2\",\"4528\",\"39\",\"1\",\"Training\",\"Stims/Figures/93-J-0-1.bmp\",\"tapa:ta\",\"Right\",\"39\",\"4\",\"4\",\"7\",\"P\",\"C\",\"52\"
\"\",\"\",\"approach-retreat\",\"56\",\"726897\",\"0.0-56.0\",\"\",\"\",\"2-2\",\"4330\",\"38\",\"1\",\"Training\",\"Stims/Figures/19-C-20-4.bmp\",\"ma:ma:la\",\"Down\",\"38\",\"4\",\"5\",\"7\",\"S\",\"C\",\"53\"
\"\",\"\",\"approach-retreat\",\"57\",\"734563\",\"0.0-57.0\",\"\",\"\",\"2-2\",\"6155\",\"37\",\"1\",\"Training\",\"Stims/Figures/128-J-10-3.bmp\",\"na:ma:la\",\"Left\",\"37\",\"4\",\"6\",\"7\",\"S\",\"C\",\"54\"
\"\",\"\",\"approach-retreat\",\"58\",\"740405\",\"0.0-58.0\",\"\",\"\",\"2-2\",\"4330\",\"38\",\"1\",\"Training\",\"Stims/Figures/44-C-30-3.bmp\",\"mama:la\",\"Down\",\"38\",\"4\",\"7\",\"7\",\"S\",\"C\",\"55\"
\"\",\"\",\"approach-retreat\",\"59\",\"746247\",\"0.0-59.0\",\"\",\"\",\"2-2\",\"4331\",\"37\",\"0\",\"Training\",\"Stims/Figures/93-C-30-1.bmp\",\"paka:ka\",\"Left\",\"39\",\"4\",\"8\",\"7\",\"P\",\"C\",\"56\"
\"\",\"\",\"approach-retreat\",\"60\",\"753469\",\"0.0-60.0\",\"\",\"\",\"2-2\",\"5711\",\"38\",\"0\",\"Training\",\"Stims/Figures/71-C-30-1.bmp\",\"ta:ka:ta\",\"Up\",\"40\",\"4\",\"9\",\"7\",\"P\",\"C\",\"57\"
\"\",\"\",\"approach-retreat\",\"61\",\"759969\",\"0.0-61.0\",\"\",\"\",\"2-2\",\"4988\",\"39\",\"0\",\"Training\",\"Stims/Figures/118-C-20-2.bmp\",\"pa:pa:ka\",\"Right\",\"37\",\"4\",\"10\",\"7\",\"P\",\"C\",\"58\"
\"\",\"\",\"approach-retreat\",\"62\",\"768298\",\"0.0-62.0\",\"\",\"\",\"2-2\",\"6820\",\"38\",\"0\",\"Training\",\"Stims/Figures/128-C-30-3.bmp\",\"namala\",\"Up\",\"40\",\"4\",\"11\",\"7\",\"S\",\"C\",\"59\"
\"\",\"\",\"approach-retreat\",\"63\",\"775527\",\"0.0-63.0\",\"\",\"\",\"2-2\",\"5719\",\"40\",\"1\",\"Training\",\"Stims/Figures/7-J-10-4.bmp\",\"na:lana\",\"Down\",\"40\",\"4\",\"12\",\"7\",\"S\",\"C\",\"60\"
\"\",\"\",\"approach-retreat\",\"64\",\"782083\",\"0.0-64.0\",\"\",\"\",\"2-2\",\"5045\",\"40\",\"1\",\"Training\",\"Stims/Figures/118-J-0-2.bmp\",\"pa:kata\",\"Down\",\"40\",\"4\",\"13\",\"7\",\"P\",\"C\",\"61\"
\"\",\"\",\"approach-retreat\",\"65\",\"788018\",\"0.0-65.0\",\"\",\"\",\"2-2\",\"4424\",\"39\",\"0\",\"Training\",\"Stims/Figures/84-C-20-2.bmp\",\"pa:pata\",\"Right\",\"37\",\"4\",\"14\",\"7\",\"P\",\"C\",\"62\"
\"\",\"\",\"approach-retreat\",\"66\",\"794003\",\"0.0-66.0\",\"\",\"\",\"2-2\",\"4474\",\"39\",\"1\",\"Training\",\"Stims/Figures/7-C-20-4.bmp\",\"mama:na\",\"Left\",\"39\",\"4\",\"15\",\"7\",\"S\",\"C\",\"63\"
\"\",\"\",\"approach-retreat\",\"67\",\"799999\",\"0.0-67.0\",\"\",\"\",\"2-2\",\"4486\",\"40\",\"0\",\"Training\",\"Stims/Figures/44-J-10-3.bmp\",\"ma:ma:na\",\"Up\",\"38\",\"4\",\"16\",\"7\",\"S\",\"C\",\"64\"
\"\",\"\",\"approach-retreat\",\"68\",\"806780\",\"0.0-68.0\",\"\",\"\",\"2-2\",\"5268\",\"39\",\"1\",\"Training\",\"Stims/Figures/19-J-10-4.bmp\",\"nalana\",\"Right\",\"39\",\"5\",\"1\",\"7\",\"S\",\"C\",\"65\"
\"\",\"\",\"approach-retreat\",\"69\",\"812681\",\"0.0-69.0\",\"\",\"\",\"2-2\",\"4389\",\"38\",\"0\",\"Training\",\"Stims/Figures/44-J-10-3.bmp\",\"ma:ma:na\",\"Down\",\"40\",\"5\",\"2\",\"7\",\"S\",\"C\",\"66\"
\"\",\"\",\"approach-retreat\",\"70\",\"818481\",\"0.0-70.0\",\"\",\"\",\"2-2\",\"4290\",\"37\",\"0\",\"Training\",\"Stims/Figures/84-J-0-2.bmp\",\"ta:pa:ta\",\"Right\",\"39\",\"5\",\"3\",\"7\",\"P\",\"C\",\"67\"
\"\",\"\",\"approach-retreat\",\"71\",\"824297\",\"0.0-71.0\",\"\",\"\",\"2-2\",\"4304\",\"38\",\"0\",\"Training\",\"Stims/Figures/128-J-10-3.bmp\",\"na:ma:la\",\"Down\",\"40\",\"5\",\"4\",\"7\",\"S\",\"C\",\"68\"
\"\",\"\",\"approach-retreat\",\"72\",\"830953\",\"0.0-72.0\",\"\",\"\",\"2-2\",\"5146\",\"39\",\"0\",\"Training\",\"Stims/Figures/84-C-20-2.bmp\",\"pa:pata\",\"Right\",\"37\",\"5\",\"5\",\"7\",\"P\",\"C\",\"69\"
\"\",\"\",\"approach-retreat\",\"73\",\"837193\",\"0.0-73.0\",\"\",\"\",\"2-2\",\"4730\",\"39\",\"0\",\"Training\",\"Stims/Figures/44-C-30-3.bmp\",\"mama:la\",\"Right\",\"37\",\"5\",\"6\",\"7\",\"S\",\"C\",\"70\"
\"\",\"\",\"approach-retreat\",\"74\",\"846394\",\"0.0-74.0\",\"\",\"\",\"2-2\",\"7693\",\"39\",\"1\",\"Training\",\"Stims/Figures/118-C-20-2.bmp\",\"pa:pa:ka\",\"Left\",\"39\",\"5\",\"7\",\"7\",\"P\",\"C\",\"71\"
\"\",\"\",\"approach-retreat\",\"75\",\"852283\",\"0.0-75.0\",\"\",\"\",\"2-2\",\"4379\",\"38\",\"1\",\"Training\",\"Stims/Figures/93-J-0-1.bmp\",\"tapa:ta\",\"Up\",\"38\",\"5\",\"8\",\"7\",\"P\",\"C\",\"72\"
\"\",\"\",\"approach-retreat\",\"76\",\"857998\",\"0.0-76.0\",\"\",\"\",\"2-2\",\"4203\",\"39\",\"1\",\"Training\",\"Stims/Figures/19-C-20-4.bmp\",\"ma:ma:la\",\"Left\",\"39\",\"5\",\"9\",\"7\",\"S\",\"C\",\"73\"
\"\",\"\",\"approach-retreat\",\"77\",\"863684\",\"0.0-77.0\",\"\",\"\",\"2-2\",\"4174\",\"40\",\"0\",\"Training\",\"Stims/Figures/7-J-10-4.bmp\",\"na:lana\",\"Up\",\"38\",\"5\",\"10\",\"7\",\"S\",\"C\",\"74\"
\"\",\"\",\"approach-retreat\",\"78\",\"869582\",\"0.0-78.0\",\"\",\"\",\"2-2\",\"4390\",\"39\",\"1\",\"Training\",\"Stims/Figures/93-C-30-1.bmp\",\"paka:ka\",\"Left\",\"39\",\"5\",\"11\",\"7\",\"P\",\"C\",\"75\"
\"\",\"\",\"approach-retreat\",\"79\",\"875347\",\"0.0-79.0\",\"\",\"\",\"2-2\",\"4253\",\"39\",\"0\",\"Training\",\"Stims/Figures/118-J-0-2.bmp\",\"pa:kata\",\"Left\",\"37\",\"5\",\"12\",\"7\",\"P\",\"C\",\"76\"
\"\",\"\",\"approach-retreat\",\"80\",\"881416\",\"0.0-80.0\",\"\",\"\",\"2-2\",\"4559\",\"40\",\"0\",\"Training\",\"Stims/Figures/71-C-30-1.bmp\",\"ta:ka:ta\",\"Down\",\"38\",\"5\",\"13\",\"7\",\"P\",\"C\",\"77\"
\"\",\"\",\"approach-retreat\",\"81\",\"887391\",\"0.0-81.0\",\"\",\"\",\"2-2\",\"4464\",\"40\",\"1\",\"Training\",\"Stims/Figures/7-C-20-4.bmp\",\"mama:na\",\"Up\",\"40\",\"5\",\"14\",\"7\",\"S\",\"C\",\"78\"
\"\",\"\",\"approach-retreat\",\"82\",\"893193\",\"0.0-82.0\",\"\",\"\",\"2-2\",\"4289\",\"40\",\"0\",\"Training\",\"Stims/Figures/128-C-30-3.bmp\",\"namala\",\"Down\",\"38\",\"5\",\"15\",\"7\",\"S\",\"C\",\"79\"
\"\",\"\",\"approach-retreat\",\"83\",\"899055\",\"0.0-83.0\",\"\",\"\",\"2-2\",\"4351\",\"40\",\"0\",\"Training\",\"Stims/Figures/71-J-0-1.bmp\",\"takata\",\"Up\",\"38\",\"5\",\"16\",\"7\",\"P\",\"C\",\"80\"
\"\",\"\",\"approach-retreat\",\"84\",\"904922\",\"0.0-84.0\",\"\",\"\",\"2-2\",\"4357\",\"39\",\"1\",\"Training\",\"Stims/Figures/93-C-30-1.bmp\",\"paka:ka\",\"Left\",\"39\",\"6\",\"1\",\"7\",\"P\",\"C\",\"81\"
\"\",\"\",\"approach-retreat\",\"85\",\"911156\",\"0.0-85.0\",\"\",\"\",\"2-2\",\"4721\",\"37\",\"1\",\"Training\",\"Stims/Figures/7-C-20-4.bmp\",\"mama:na\",\"Right\",\"37\",\"6\",\"2\",\"7\",\"S\",\"C\",\"82\"
\"\",\"\",\"approach-retreat\",\"86\",\"916841\",\"0.0-86.0\",\"\",\"\",\"2-2\",\"4174\",\"37\",\"0\",\"Training\",\"Stims/Figures/118-C-20-2.bmp\",\"pa:pa:ka\",\"Left\",\"39\",\"6\",\"3\",\"7\",\"P\",\"C\",\"83\"
\"\",\"\",\"approach-retreat\",\"87\",\"922552\",\"0.0-87.0\",\"\",\"\",\"2-2\",\"4199\",\"40\",\"1\",\"Training\",\"Stims/Figures/128-C-30-3.bmp\",\"namala\",\"Up\",\"40\",\"6\",\"4\",\"7\",\"S\",\"C\",\"84\"
\"\",\"\",\"approach-retreat\",\"88\",\"928776\",\"0.0-88.0\",\"\",\"\",\"2-2\",\"4711\",\"38\",\"1\",\"Training\",\"Stims/Figures/19-J-10-4.bmp\",\"nalana\",\"Up\",\"38\",\"6\",\"5\",\"7\",\"S\",\"C\",\"85\"
\"\",\"\",\"approach-retreat\",\"89\",\"935768\",\"0.0-89.0\",\"\",\"\",\"2-2\",\"5480\",\"39\",\"0\",\"Training\",\"Stims/Figures/44-C-30-3.bmp\",\"mama:la\",\"Right\",\"37\",\"6\",\"6\",\"7\",\"S\",\"C\",\"86\"
\"\",\"\",\"approach-retreat\",\"90\",\"942207\",\"0.0-90.0\",\"\",\"\",\"2-2\",\"4927\",\"37\",\"0\",\"Training\",\"Stims/Figures/93-J-0-1.bmp\",\"tapa:ta\",\"Right\",\"39\",\"6\",\"7\",\"7\",\"P\",\"C\",\"87\"
\"\",\"\",\"approach-retreat\",\"91\",\"948210\",\"0.0-91.0\",\"\",\"\",\"2-2\",\"4493\",\"40\",\"1\",\"Training\",\"Stims/Figures/128-J-10-3.bmp\",\"na:ma:la\",\"Down\",\"40\",\"6\",\"8\",\"7\",\"S\",\"C\",\"88\"
\"\",\"\",\"approach-retreat\",\"92\",\"954271\",\"0.0-92.0\",\"\",\"\",\"2-2\",\"4548\",\"40\",\"1\",\"Training\",\"Stims/Figures/44-J-10-3.bmp\",\"ma:ma:na\",\"Down\",\"40\",\"6\",\"9\",\"7\",\"S\",\"C\",\"89\"
\"\",\"\",\"approach-retreat\",\"93\",\"959848\",\"0.0-93.0\",\"\",\"\",\"2-2\",\"4065\",\"40\",\"1\",\"Training\",\"Stims/Figures/71-J-0-1.bmp\",\"takata\",\"Down\",\"40\",\"6\",\"10\",\"7\",\"P\",\"C\",\"90\"
\"\",\"\",\"approach-retreat\",\"94\",\"966462\",\"0.0-94.0\",\"\",\"\",\"2-2\",\"5101\",\"38\",\"0\",\"Training\",\"Stims/Figures/19-C-20-4.bmp\",\"ma:ma:la\",\"Up\",\"40\",\"6\",\"11\",\"7\",\"S\",\"C\",\"91\"
\"\",\"\",\"approach-retreat\",\"95\",\"972084\",\"0.0-95.0\",\"\",\"\",\"2-2\",\"4111\",\"37\",\"1\",\"Training\",\"Stims/Figures/118-J-0-2.bmp\",\"pa:kata\",\"Left\",\"37\",\"6\",\"12\",\"7\",\"P\",\"C\",\"92\"
\"\",\"\",\"approach-retreat\",\"96\",\"977893\",\"0.0-96.0\",\"\",\"\",\"2-2\",\"4299\",\"37\",\"1\",\"Training\",\"Stims/Figures/84-J-0-2.bmp\",\"ta:pa:ta\",\"Left\",\"37\",\"6\",\"13\",\"7\",\"P\",\"C\",\"93\"
\"\",\"\",\"approach-retreat\",\"97\",\"983730\",\"0.0-97.0\",\"\",\"\",\"2-2\",\"4324\",\"38\",\"0\",\"Training\",\"Stims/Figures/71-C-30-1.bmp\",\"ta:ka:ta\",\"Up\",\"40\",\"6\",\"14\",\"7\",\"P\",\"C\",\"94\"
\"\",\"\",\"approach-retreat\",\"98\",\"989089\",\"0.0-98.0\",\"\",\"\",\"2-2\",\"3845\",\"40\",\"0\",\"Training\",\"Stims/Figures/84-C-20-2.bmp\",\"pa:pata\",\"Down\",\"38\",\"6\",\"15\",\"7\",\"P\",\"C\",\"95\"
\"\",\"\",\"approach-retreat\",\"99\",\"994930\",\"0.0-99.0\",\"\",\"\",\"2-2\",\"4332\",\"39\",\"1\",\"Training\",\"Stims/Figures/7-J-10-4.bmp\",\"na:lana\",\"Right\",\"39\",\"6\",\"16\",\"7\",\"S\",\"C\",\"96\"
\"\",\"\",\"approach-retreat\",\"100\",\"1001036\",\"0.0-100.0\",\"\",\"\",\"2-2\",\"4594\",\"37\",\"0\",\"Training\",\"Stims/Figures/44-C-30-3.bmp\",\"mama:la\",\"Left\",\"39\",\"7\",\"1\",\"7\",\"S\",\"C\",\"97\"
\"\",\"\",\"approach-retreat\",\"101\",\"1006743\",\"0.0-101.0\",\"\",\"\",\"2-2\",\"4194\",\"39\",\"0\",\"Training\",\"Stims/Figures/44-J-10-3.bmp\",\"ma:ma:na\",\"Left\",\"37\",\"7\",\"2\",\"7\",\"S\",\"C\",\"98\"
\"\",\"\",\"approach-retreat\",\"102\",\"1012670\",\"0.0-102.0\",\"\",\"\",\"2-2\",\"4415\",\"39\",\"1\",\"Training\",\"Stims/Figures/19-J-10-4.bmp\",\"nalana\",\"Right\",\"39\",\"7\",\"3\",\"7\",\"S\",\"C\",\"99\"
\"\",\"\",\"approach-retreat\",\"103\",\"1018191\",\"0.0-103.0\",\"\",\"\",\"2-2\",\"4009\",\"40\",\"0\",\"Training\",\"Stims/Figures/118-J-0-2.bmp\",\"pa:kata\",\"Up\",\"38\",\"7\",\"4\",\"7\",\"P\",\"C\",\"100\"
\"\",\"\",\"approach-retreat\",\"104\",\"1023694\",\"0.0-104.0\",\"\",\"\",\"2-2\",\"3990\",\"37\",\"0\",\"Training\",\"Stims/Figures/19-C-20-4.bmp\",\"ma:ma:la\",\"Left\",\"39\",\"7\",\"5\",\"7\",\"S\",\"C\",\"101\"
\"\",\"\",\"approach-retreat\",\"105\",\"1029308\",\"0.0-105.0\",\"\",\"\",\"2-2\",\"4103\",\"39\",\"0\",\"Training\",\"Stims/Figures/7-C-20-4.bmp\",\"mama:na\",\"Right\",\"37\",\"7\",\"6\",\"7\",\"S\",\"C\",\"102\"
\"\",\"\",\"approach-retreat\",\"106\",\"1035154\",\"0.0-106.0\",\"\",\"\",\"2-2\",\"4334\",\"38\",\"0\",\"Training\",\"Stims/Figures/93-C-30-1.bmp\",\"paka:ka\",\"Up\",\"40\",\"7\",\"7\",\"7\",\"P\",\"C\",\"103\"
\"\",\"\",\"approach-retreat\",\"107\",\"1041161\",\"0.0-107.0\",\"\",\"\",\"2-2\",\"4495\",\"40\",\"1\",\"Training\",\"Stims/Figures/128-J-10-3.bmp\",\"na:ma:la\",\"Down\",\"40\",\"7\",\"8\",\"7\",\"S\",\"C\",\"104\"
\"\",\"\",\"approach-retreat\",\"108\",\"1046861\",\"0.0-108.0\",\"\",\"\",\"2-2\",\"4188\",\"40\",\"1\",\"Training\",\"Stims/Figures/84-J-0-2.bmp\",\"ta:pa:ta\",\"Down\",\"40\",\"7\",\"9\",\"7\",\"P\",\"C\",\"105\"
\"\",\"\",\"approach-retreat\",\"109\",\"1052378\",\"0.0-109.0\",\"\",\"\",\"2-2\",\"4007\",\"40\",\"0\",\"Training\",\"Stims/Figures/118-C-20-2.bmp\",\"pa:pa:ka\",\"Down\",\"38\",\"7\",\"10\",\"7\",\"P\",\"C\",\"106\"
\"\",\"\",\"approach-retreat\",\"110\",\"1058605\",\"0.0-110.0\",\"\",\"\",\"2-2\",\"4717\",\"37\",\"1\",\"Training\",\"Stims/Figures/71-C-30-1.bmp\",\"ta:ka:ta\",\"Right\",\"37\",\"7\",\"11\",\"7\",\"P\",\"C\",\"107\"
\"\",\"\",\"approach-retreat\",\"111\",\"1064260\",\"0.0-111.0\",\"\",\"\",\"2-2\",\"4142\",\"37\",\"0\",\"Training\",\"Stims/Figures/71-J-0-1.bmp\",\"takata\",\"Right\",\"39\",\"7\",\"12\",\"7\",\"P\",\"C\",\"108\"
\"\",\"\",\"approach-retreat\",\"112\",\"1070519\",\"0.0-112.0\",\"\",\"\",\"2-2\",\"4749\",\"38\",\"1\",\"Training\",\"Stims/Figures/93-J-0-1.bmp\",\"tapa:ta\",\"Up\",\"38\",\"7\",\"13\",\"7\",\"P\",\"C\",\"109\"
\"\",\"\",\"approach-retreat\",\"113\",\"1076249\",\"0.0-113.0\",\"\",\"\",\"2-2\",\"4217\",\"40\",\"0\",\"Training\",\"Stims/Figures/84-C-20-2.bmp\",\"pa:pata\",\"Down\",\"38\",\"7\",\"14\",\"7\",\"P\",\"C\",\"110\"
\"\",\"\",\"approach-retreat\",\"114\",\"1081957\",\"0.0-114.0\",\"\",\"\",\"2-2\",\"4197\",\"40\",\"0\",\"Training\",\"Stims/Figures/7-J-10-4.bmp\",\"na:lana\",\"Up\",\"38\",\"7\",\"15\",\"7\",\"S\",\"C\",\"111\"
\"\",\"\",\"approach-retreat\",\"115\",\"1089030\",\"0.0-115.0\",\"\",\"\",\"2-2\",\"5563\",\"37\",\"0\",\"Training\",\"Stims/Figures/128-C-30-3.bmp\",\"namala\",\"Left\",\"39\",\"7\",\"16\",\"7\",\"S\",\"C\",\"112\"
\"\",\"\",\"approach-retreat\",\"116\",\"1094592\",\"0.0-116.0\",\"\",\"\",\"2-2\",\"4049\",\"39\",\"0\",\"Training\",\"Stims/Figures/93-C-30-1.bmp\",\"paka:ka\",\"Right\",\"37\",\"8\",\"1\",\"7\",\"P\",\"C\",\"113\"
\"\",\"\",\"approach-retreat\",\"117\",\"1100247\",\"0.0-117.0\",\"\",\"\",\"2-2\",\"4144\",\"37\",\"1\",\"Training\",\"Stims/Figures/118-J-0-2.bmp\",\"pa:kata\",\"Left\",\"37\",\"8\",\"2\",\"7\",\"P\",\"C\",\"114\"
\"\",\"\",\"approach-retreat\",\"118\",\"1105972\",\"0.0-118.0\",\"\",\"\",\"2-2\",\"4212\",\"39\",\"0\",\"Training\",\"Stims/Figures/128-C-30-3.bmp\",\"namala\",\"Right\",\"37\",\"8\",\"3\",\"7\",\"S\",\"C\",\"115\"
\"\",\"\",\"approach-retreat\",\"119\",\"1111752\",\"0.0-119.0\",\"\",\"\",\"2-2\",\"4265\",\"38\",\"1\",\"Training\",\"Stims/Figures/44-C-30-3.bmp\",\"mama:la\",\"Down\",\"38\",\"8\",\"4\",\"7\",\"S\",\"C\",\"116\"
\"\",\"\",\"approach-retreat\",\"120\",\"1117489\",\"0.0-120.0\",\"\",\"\",\"2-2\",\"4226\",\"39\",\"1\",\"Training\",\"Stims/Figures/71-C-30-1.bmp\",\"ta:ka:ta\",\"Left\",\"39\",\"8\",\"5\",\"7\",\"P\",\"C\",\"117\"
\"\",\"\",\"approach-retreat\",\"121\",\"1123459\",\"0.0-121.0\",\"\",\"\",\"2-2\",\"4458\",\"40\",\"0\",\"Training\",\"Stims/Figures/44-J-10-3.bmp\",\"ma:ma:na\",\"Up\",\"38\",\"8\",\"6\",\"7\",\"S\",\"C\",\"118\"
\"\",\"\",\"approach-retreat\",\"122\",\"1129153\",\"0.0-122.0\",\"\",\"\",\"2-2\",\"4183\",\"38\",\"0\",\"Training\",\"Stims/Figures/93-J-0-1.bmp\",\"tapa:ta\",\"Down\",\"40\",\"8\",\"7\",\"7\",\"P\",\"C\",\"119\"
\"\",\"\",\"approach-retreat\",\"123\",\"1134896\",\"0.0-123.0\",\"\",\"\",\"2-2\",\"4232\",\"37\",\"1\",\"Training\",\"Stims/Figures/7-J-10-4.bmp\",\"na:lana\",\"Left\",\"37\",\"8\",\"8\",\"7\",\"S\",\"C\",\"120\"
\"\",\"\",\"approach-retreat\",\"124\",\"1140767\",\"0.0-124.0\",\"\",\"\",\"2-2\",\"4359\",\"38\",\"0\",\"Training\",\"Stims/Figures/7-C-20-4.bmp\",\"mama:na\",\"Up\",\"40\",\"8\",\"9\",\"7\",\"S\",\"C\",\"121\"
\"\",\"\",\"approach-retreat\",\"125\",\"1146619\",\"0.0-125.0\",\"\",\"\",\"2-2\",\"4341\",\"38\",\"0\",\"Training\",\"Stims/Figures/19-C-20-4.bmp\",\"ma:ma:la\",\"Up\",\"40\",\"8\",\"10\",\"7\",\"S\",\"C\",\"122\"
\"\",\"\",\"approach-retreat\",\"126\",\"1152009\",\"0.0-126.0\",\"\",\"\",\"2-2\",\"3877\",\"40\",\"1\",\"Training\",\"Stims/Figures/128-J-10-3.bmp\",\"na:ma:la\",\"Down\",\"40\",\"8\",\"11\",\"7\",\"S\",\"C\",\"123\"
\"\",\"\",\"approach-retreat\",\"127\",\"1157800\",\"0.0-127.0\",\"\",\"\",\"2-2\",\"4280\",\"38\",\"1\",\"Training\",\"Stims/Figures/84-J-0-2.bmp\",\"ta:pa:ta\",\"Up\",\"38\",\"8\",\"12\",\"7\",\"P\",\"C\",\"124\"
\"\",\"\",\"approach-retreat\",\"128\",\"1163538\",\"0.0-128.0\",\"\",\"\",\"2-2\",\"4227\",\"39\",\"1\",\"Training\",\"Stims/Figures/71-J-0-1.bmp\",\"takata\",\"Right\",\"39\",\"8\",\"13\",\"7\",\"P\",\"C\",\"125\"
\"\",\"\",\"approach-retreat\",\"129\",\"1169436\",\"0.0-129.0\",\"\",\"\",\"2-2\",\"4387\",\"40\",\"0\",\"Training\",\"Stims/Figures/118-C-20-2.bmp\",\"pa:pa:ka\",\"Down\",\"38\",\"8\",\"14\",\"7\",\"P\",\"C\",\"126\"
\"\",\"\",\"approach-retreat\",\"130\",\"1175030\",\"0.0-130.0\",\"\",\"\",\"2-2\",\"4082\",\"37\",\"0\",\"Training\",\"Stims/Figures/19-J-10-4.bmp\",\"nalana\",\"Right\",\"39\",\"8\",\"15\",\"7\",\"S\",\"C\",\"127\"
\"\",\"\",\"approach-retreat\",\"131\",\"1180524\",\"0.0-131.0\",\"\",\"\",\"2-2\",\"3984\",\"37\",\"0\",\"Training\",\"Stims/Figures/84-C-20-2.bmp\",\"pa:pata\",\"Left\",\"39\",\"8\",\"16\",\"7\",\"P\",\"C\",\"128\"
\"\",\"\",\"approach-retreat\",\"132\",\"1185979\",\"0.0-132.0\",\"\",\"\",\"2-2\",\"3943\",\"38\",\"0\",\"Training\",\"Stims/Figures/93-J-0-1.bmp\",\"tapa:ta\",\"Down\",\"40\",\"9\",\"1\",\"7\",\"P\",\"C\",\"129\"
\"\",\"\",\"approach-retreat\",\"133\",\"1191809\",\"0.0-133.0\",\"\",\"\",\"2-2\",\"4317\",\"39\",\"1\",\"Training\",\"Stims/Figures/71-C-30-1.bmp\",\"ta:ka:ta\",\"Left\",\"39\",\"9\",\"2\",\"7\",\"P\",\"C\",\"130\"
\"\",\"\",\"approach-retreat\",\"134\",\"1197606\",\"0.0-134.0\",\"\",\"\",\"2-2\",\"4286\",\"40\",\"1\",\"Training\",\"Stims/Figures/84-J-0-2.bmp\",\"ta:pa:ta\",\"Down\",\"40\",\"9\",\"3\",\"7\",\"P\",\"C\",\"131\"
\"\",\"\",\"approach-retreat\",\"135\",\"1203750\",\"0.0-135.0\",\"\",\"\",\"2-2\",\"4635\",\"37\",\"0\",\"Training\",\"Stims/Figures/71-J-0-1.bmp\",\"takata\",\"Right\",\"39\",\"9\",\"4\",\"7\",\"P\",\"C\",\"132\"
\"\",\"\",\"approach-retreat\",\"136\",\"1210292\",\"0.0-136.0\",\"\",\"\",\"2-2\",\"5031\",\"38\",\"1\",\"Training\",\"Stims/Figures/19-J-10-4.bmp\",\"nalana\",\"Up\",\"38\",\"9\",\"5\",\"7\",\"S\",\"C\",\"133\"
\"\",\"\",\"approach-retreat\",\"137\",\"1216491\",\"0.0-137.0\",\"\",\"\",\"2-2\",\"4689\",\"38\",\"1\",\"Training\",\"Stims/Figures/128-J-10-3.bmp\",\"na:ma:la\",\"Up\",\"38\",\"9\",\"6\",\"7\",\"S\",\"C\",\"134\"
\"\",\"\",\"approach-retreat\",\"138\",\"1222248\",\"0.0-138.0\",\"\",\"\",\"2-2\",\"4245\",\"37\",\"1\",\"Training\",\"Stims/Figures/44-C-30-3.bmp\",\"mama:la\",\"Right\",\"37\",\"9\",\"7\",\"7\",\"S\",\"C\",\"135\"
\"\",\"\",\"approach-retreat\",\"139\",\"1227826\",\"0.0-139.0\",\"\",\"\",\"2-2\",\"4066\",\"37\",\"1\",\"Training\",\"Stims/Figures/19-C-20-4.bmp\",\"ma:ma:la\",\"Right\",\"37\",\"9\",\"8\",\"7\",\"S\",\"C\",\"136\"
\"\",\"\",\"approach-retreat\",\"140\",\"1233407\",\"0.0-140.0\",\"\",\"\",\"2-2\",\"4070\",\"39\",\"1\",\"Training\",\"Stims/Figures/7-J-10-4.bmp\",\"na:lana\",\"Right\",\"39\",\"9\",\"9\",\"7\",\"S\",\"C\",\"137\"
\"\",\"\",\"approach-retreat\",\"141\",\"1239237\",\"0.0-141.0\",\"\",\"\",\"2-2\",\"4319\",\"39\",\"1\",\"Training\",\"Stims/Figures/84-C-20-2.bmp\",\"pa:pata\",\"Left\",\"39\",\"9\",\"10\",\"7\",\"P\",\"C\",\"138\"
\"\",\"\",\"approach-retreat\",\"142\",\"1244981\",\"0.0-142.0\",\"\",\"\",\"2-2\",\"4233\",\"40\",\"0\",\"Training\",\"Stims/Figures/7-C-20-4.bmp\",\"mama:na\",\"Down\",\"38\",\"9\",\"11\",\"7\",\"S\",\"C\",\"139\"
\"\",\"\",\"approach-retreat\",\"143\",\"1251084\",\"0.0-143.0\",\"\",\"\",\"2-2\",\"4592\",\"40\",\"1\",\"Training\",\"Stims/Figures/118-C-20-2.bmp\",\"pa:pa:ka\",\"Up\",\"40\",\"9\",\"12\",\"7\",\"P\",\"C\",\"140\"
\"\",\"\",\"approach-retreat\",\"144\",\"1257031\",\"0.0-144.0\",\"\",\"\",\"2-2\",\"4436\",\"37\",\"1\",\"Training\",\"Stims/Figures/118-J-0-2.bmp\",\"pa:kata\",\"Left\",\"37\",\"9\",\"13\",\"7\",\"P\",\"C\",\"141\"
\"\",\"\",\"approach-retreat\",\"145\",\"1262820\",\"0.0-145.0\",\"\",\"\",\"2-2\",\"4277\",\"37\",\"0\",\"Training\",\"Stims/Figures/128-C-30-3.bmp\",\"namala\",\"Left\",\"39\",\"9\",\"14\",\"7\",\"S\",\"C\",\"142\"
\"\",\"\",\"approach-retreat\",\"146\",\"1269375\",\"0.0-146.0\",\"\",\"\",\"2-2\",\"5044\",\"38\",\"1\",\"Training\",\"Stims/Figures/44-J-10-3.bmp\",\"ma:ma:na\",\"Up\",\"38\",\"9\",\"15\",\"7\",\"S\",\"C\",\"143\"
\"\",\"\",\"approach-retreat\",\"147\",\"1275241\",\"0.0-147.0\",\"\",\"\",\"2-2\",\"4356\",\"38\",\"1\",\"Training\",\"Stims/Figures/93-C-30-1.bmp\",\"paka:ka\",\"Down\",\"38\",\"9\",\"16\",\"7\",\"P\",\"C\",\"144\"
\"22569\",\"\",\"instructions\",\"148\",\"1297811\",\"0.0-148.0\",\"[{\"\"page_index\"\":0,\"\"viewing_time\"\":22569}]\",\"\",\"\",\"\",\"\",\"\",\"\",\"\",\"\",\"\",\"\",\"\",\"\",\"\",\"\",\"\",\"\"
\"\",\"\",\"approach-retreat\",\"149\",\"1303017\",\"0.0-149.0\",\"\",\"\",\"2-2\",\"3697\",\"38\",\"1\",\"Testing\",\"Stims/Figures/19-C-20-4.bmp\",\"ma:ma:la\",\"Down\",\"38\",\"1\",\"1\",\"7\",\"S\",\"C\",\"1\"
\"\",\"\",\"approach-retreat\",\"150\",\"1309387\",\"0.0-150.0\",\"\",\"\",\"2-2\",\"4860\",\"38\",\"1\",\"Testing\",\"Stims/Figures/71-J-0-1.bmp\",\"takata\",\"Up\",\"38\",\"1\",\"2\",\"7\",\"P\",\"C\",\"2\"
\"\",\"\",\"approach-retreat\",\"151\",\"1315141\",\"0.0-151.0\",\"\",\"\",\"2-2\",\"4245\",\"37\",\"0\",\"Testing\",\"Stims/Figures/85-C-20-2.bmp\",\"ta:ka:ka\",\"Left\",\"39\",\"1\",\"3\",\"7\",\"P\",\"C\",\"3\"
\"\",\"\",\"approach-retreat\",\"152\",\"1320869\",\"0.0-152.0\",\"\",\"\",\"2-2\",\"4217\",\"39\",\"1\",\"Testing\",\"Stims/Figures/71-C-30-1.bmp\",\"ta:ka:ta\",\"Left\",\"39\",\"1\",\"4\",\"7\",\"P\",\"C\",\"4\"
\"\",\"\",\"approach-retreat\",\"153\",\"1326961\",\"0.0-153.0\",\"\",\"\",\"2-2\",\"4583\",\"38\",\"0\",\"Testing\",\"Stims/Figures/57-C-30-1.bmp\",\"taka:ta\",\"Up\",\"40\",\"1\",\"5\",\"7\",\"P\",\"C\",\"5\"
\"\",\"\",\"approach-retreat\",\"154\",\"1332748\",\"0.0-154.0\",\"\",\"\",\"2-2\",\"4278\",\"40\",\"1\",\"Testing\",\"Stims/Figures/100-J-10-3.bmp\",\"mala:la\",\"Down\",\"40\",\"1\",\"6\",\"7\",\"S\",\"C\",\"6\"
\"\",\"\",\"approach-retreat\",\"155\",\"1338786\",\"0.0-155.0\",\"\",\"\",\"2-2\",\"4528\",\"37\",\"0\",\"Testing\",\"Stims/Figures/84-J-0-2.bmp\",\"ta:pa:ta\",\"Right\",\"39\",\"1\",\"7\",\"7\",\"P\",\"C\",\"7\"
\"\",\"\",\"approach-retreat\",\"156\",\"1344690\",\"0.0-156.0\",\"\",\"\",\"2-2\",\"4396\",\"40\",\"1\",\"Testing\",\"Stims/Figures/118-C-20-2.bmp\",\"pa:pa:ka\",\"Up\",\"40\",\"1\",\"8\",\"7\",\"P\",\"C\",\"8\"
\"\",\"\",\"approach-retreat\",\"157\",\"1350745\",\"0.0-157.0\",\"\",\"\",\"2-2\",\"4541\",\"40\",\"0\",\"Testing\",\"Stims/Figures/102-J-10-4.bmp\",\"na:mana\",\"Up\",\"38\",\"1\",\"9\",\"7\",\"S\",\"C\",\"9\"
\"\",\"\",\"approach-retreat\",\"158\",\"1356752\",\"0.0-158.0\",\"\",\"\",\"2-2\",\"4497\",\"37\",\"1\",\"Testing\",\"Stims/Figures/44-J-10-3.bmp\",\"ma:ma:na\",\"Left\",\"37\",\"1\",\"10\",\"7\",\"S\",\"C\",\"10\"
\"\",\"\",\"approach-retreat\",\"159\",\"1362581\",\"0.0-159.0\",\"\",\"\",\"2-2\",\"4319\",\"38\",\"1\",\"Testing\",\"Stims/Figures/84-C-20-2.bmp\",\"pa:pata\",\"Down\",\"38\",\"1\",\"11\",\"7\",\"P\",\"C\",\"11\"
\"\",\"\",\"approach-retreat\",\"160\",\"1368645\",\"0.0-160.0\",\"\",\"\",\"2-2\",\"4555\",\"37\",\"1\",\"Testing\",\"Stims/Figures/7-C-20-4.bmp\",\"mama:na\",\"Right\",\"37\",\"1\",\"12\",\"7\",\"S\",\"C\",\"12\"
\"\",\"\",\"approach-retreat\",\"161\",\"1374465\",\"0.0-161.0\",\"\",\"\",\"2-2\",\"4310\",\"37\",\"1\",\"Testing\",\"Stims/Figures/19-J-10-4.bmp\",\"nalana\",\"Left\",\"37\",\"1\",\"13\",\"7\",\"S\",\"C\",\"13\"
\"\",\"\",\"approach-retreat\",\"162\",\"1380909\",\"0.0-162.0\",\"\",\"\",\"2-2\",\"4935\",\"39\",\"1\",\"Testing\",\"Stims/Figures/93-J-0-1.bmp\",\"tapa:ta\",\"Right\",\"39\",\"1\",\"14\",\"7\",\"P\",\"C\",\"14\"
\"\",\"\",\"approach-retreat\",\"163\",\"1386934\",\"0.0-163.0\",\"\",\"\",\"2-2\",\"4517\",\"40\",\"0\",\"Testing\",\"Stims/Figures/102-C-20-4.bmp\",\"nama:la\",\"Down\",\"38\",\"1\",\"15\",\"7\",\"S\",\"C\",\"15\"
\"\",\"\",\"approach-retreat\",\"164\",\"1392686\",\"0.0-164.0\",\"\",\"\",\"2-2\",\"4242\",\"40\",\"0\",\"Testing\",\"Stims/Figures/128-J-10-3.bmp\",\"na:ma:la\",\"Up\",\"38\",\"1\",\"16\",\"7\",\"S\",\"C\",\"16\"
\"\",\"\",\"approach-retreat\",\"165\",\"1398447\",\"0.0-165.0\",\"\",\"\",\"2-2\",\"4250\",\"38\",\"1\",\"Testing\",\"Stims/Figures/44-C-30-3.bmp\",\"mama:la\",\"Down\",\"38\",\"1\",\"17\",\"7\",\"S\",\"C\",\"17\"
\"\",\"\",\"approach-retreat\",\"166\",\"1404163\",\"0.0-166.0\",\"\",\"\",\"2-2\",\"4207\",\"39\",\"1\",\"Testing\",\"Stims/Figures/128-C-30-3.bmp\",\"namala\",\"Left\",\"39\",\"1\",\"18\",\"7\",\"S\",\"C\",\"18\"
\"\",\"\",\"approach-retreat\",\"167\",\"1409908\",\"0.0-167.0\",\"\",\"\",\"2-2\",\"4226\",\"37\",\"1\",\"Testing\",\"Stims/Figures/57-J-0-1.bmp\",\"ta:kaka\",\"Left\",\"37\",\"1\",\"19\",\"7\",\"P\",\"C\",\"19\"
\"\",\"\",\"approach-retreat\",\"168\",\"1415607\",\"0.0-168.0\",\"\",\"\",\"2-2\",\"4190\",\"40\",\"0\",\"Testing\",\"Stims/Figures/100-C-30-3.bmp\",\"na:la:la\",\"Down\",\"38\",\"1\",\"20\",\"7\",\"S\",\"C\",\"20\"
\"\",\"\",\"approach-retreat\",\"169\",\"1421240\",\"0.0-169.0\",\"\",\"\",\"2-2\",\"4123\",\"37\",\"0\",\"Testing\",\"Stims/Figures/7-J-10-4.bmp\",\"na:lana\",\"Right\",\"39\",\"1\",\"21\",\"7\",\"S\",\"C\",\"21\"
\"\",\"\",\"approach-retreat\",\"170\",\"1427277\",\"0.0-170.0\",\"\",\"\",\"2-2\",\"4529\",\"38\",\"1\",\"Testing\",\"Stims/Figures/85-J-0-2.bmp\",\"ta:pata\",\"Up\",\"38\",\"1\",\"22\",\"7\",\"P\",\"C\",\"22\"
\"\",\"\",\"approach-retreat\",\"171\",\"1432969\",\"0.0-171.0\",\"\",\"\",\"2-2\",\"4183\",\"39\",\"0\",\"Testing\",\"Stims/Figures/93-C-30-1.bmp\",\"paka:ka\",\"Right\",\"37\",\"1\",\"23\",\"7\",\"P\",\"C\",\"23\"
\"\",\"\",\"approach-retreat\",\"172\",\"1438681\",\"0.0-172.0\",\"\",\"\",\"2-2\",\"4204\",\"37\",\"0\",\"Testing\",\"Stims/Figures/118-J-0-2.bmp\",\"pa:kata\",\"Right\",\"39\",\"1\",\"24\",\"7\",\"P\",\"C\",\"24\"
\"\",\"\",\"approach-retreat\",\"173\",\"1444560\",\"0.0-173.0\",\"\",\"\",\"2-2\",\"4370\",\"37\",\"0\",\"Testing\",\"Stims/Figures/128-C-30-3.bmp\",\"namala\",\"Left\",\"39\",\"2\",\"1\",\"7\",\"S\",\"C\",\"25\"
\"\",\"\",\"approach-retreat\",\"174\",\"1450544\",\"0.0-174.0\",\"\",\"\",\"2-2\",\"4477\",\"40\",\"1\",\"Testing\",\"Stims/Figures/118-C-20-2.bmp\",\"pa:pa:ka\",\"Up\",\"40\",\"2\",\"2\",\"7\",\"P\",\"C\",\"26\"
\"\",\"\",\"approach-retreat\",\"175\",\"1456949\",\"0.0-175.0\",\"\",\"\",\"2-2\",\"4897\",\"40\",\"0\",\"Testing\",\"Stims/Figures/100-C-30-3.bmp\",\"na:la:la\",\"Down\",\"38\",\"2\",\"3\",\"7\",\"S\",\"C\",\"27\"
\"\",\"\",\"approach-retreat\",\"176\",\"1462683\",\"0.0-176.0\",\"\",\"\",\"2-2\",\"4226\",\"39\",\"1\",\"Testing\",\"Stims/Figures/71-C-30-1.bmp\",\"ta:ka:ta\",\"Left\",\"39\",\"2\",\"4\",\"7\",\"P\",\"C\",\"28\"
\"\",\"\",\"approach-retreat\",\"177\",\"1468173\",\"0.0-177.0\",\"\",\"\",\"2-2\",\"3980\",\"37\",\"1\",\"Testing\",\"Stims/Figures/128-J-10-3.bmp\",\"na:ma:la\",\"Left\",\"37\",\"2\",\"5\",\"7\",\"S\",\"C\",\"29\"
\"\",\"\",\"approach-retreat\",\"178\",\"1473765\",\"0.0-178.0\",\"\",\"\",\"2-2\",\"4083\",\"38\",\"0\",\"Testing\",\"Stims/Figures/118-J-0-2.bmp\",\"pa:kata\",\"Down\",\"40\",\"2\",\"6\",\"7\",\"P\",\"C\",\"30\"
\"\",\"\",\"approach-retreat\",\"179\",\"1480331\",\"0.0-179.0\",\"\",\"\",\"2-2\",\"5053\",\"39\",\"1\",\"Testing\",\"Stims/Figures/44-J-10-3.bmp\",\"ma:ma:na\",\"Right\",\"39\",\"2\",\"7\",\"7\",\"S\",\"C\",\"31\"
\"\",\"\",\"approach-retreat\",\"180\",\"1486141\",\"0.0-180.0\",\"\",\"\",\"2-2\",\"4300\",\"38\",\"1\",\"Testing\",\"Stims/Figures/44-C-30-3.bmp\",\"mama:la\",\"Down\",\"38\",\"2\",\"8\",\"7\",\"S\",\"C\",\"32\"
\"\",\"\",\"approach-retreat\",\"181\",\"1491788\",\"0.0-181.0\",\"\",\"\",\"2-2\",\"4139\",\"38\",\"0\",\"Testing\",\"Stims/Figures/7-J-10-4.bmp\",\"na:lana\",\"Down\",\"40\",\"2\",\"9\",\"7\",\"S\",\"C\",\"33\"
\"\",\"\",\"approach-retreat\",\"182\",\"1497587\",\"0.0-182.0\",\"\",\"\",\"2-2\",\"4289\",\"37\",\"0\",\"Testing\",\"Stims/Figures/84-J-0-2.bmp\",\"ta:pa:ta\",\"Right\",\"39\",\"2\",\"10\",\"7\",\"P\",\"C\",\"34\"
\"\",\"\",\"approach-retreat\",\"183\",\"1503457\",\"0.0-183.0\",\"\",\"\",\"2-2\",\"4360\",\"37\",\"1\",\"Testing\",\"Stims/Figures/57-J-0-1.bmp\",\"ta:kaka\",\"Left\",\"37\",\"2\",\"11\",\"7\",\"P\",\"C\",\"35\"
\"\",\"\",\"approach-retreat\",\"184\",\"1509794\",\"0.0-184.0\",\"\",\"\",\"2-2\",\"4829\",\"38\",\"1\",\"Testing\",\"Stims/Figures/19-J-10-4.bmp\",\"nalana\",\"Up\",\"38\",\"2\",\"12\",\"7\",\"S\",\"C\",\"36\"
\"\",\"\",\"approach-retreat\",\"185\",\"1515709\",\"0.0-185.0\",\"\",\"\",\"2-2\",\"4405\",\"39\",\"1\",\"Testing\",\"Stims/Figures/102-C-20-4.bmp\",\"nama:la\",\"Left\",\"39\",\"2\",\"13\",\"7\",\"S\",\"C\",\"37\"
\"\",\"\",\"approach-retreat\",\"186\",\"1521461\",\"0.0-186.0\",\"\",\"\",\"2-2\",\"4242\",\"40\",\"0\",\"Testing\",\"Stims/Figures/85-C-20-2.bmp\",\"ta:ka:ka\",\"Down\",\"38\",\"2\",\"14\",\"7\",\"P\",\"C\",\"38\"
\"\",\"\",\"approach-retreat\",\"187\",\"1527392\",\"0.0-187.0\",\"\",\"\",\"2-2\",\"4423\",\"37\",\"1\",\"Testing\",\"Stims/Figures/84-C-20-2.bmp\",\"pa:pata\",\"Right\",\"37\",\"2\",\"15\",\"7\",\"P\",\"C\",\"39\"
\"\",\"\",\"approach-retreat\",\"188\",\"1533079\",\"0.0-188.0\",\"\",\"\",\"2-2\",\"4177\",\"40\",\"0\",\"Testing\",\"Stims/Figures/102-J-10-4.bmp\",\"na:mana\",\"Up\",\"38\",\"2\",\"16\",\"7\",\"S\",\"C\",\"40\"
\"\",\"\",\"approach-retreat\",\"189\",\"1539023\",\"0.0-189.0\",\"\",\"\",\"2-2\",\"4436\",\"38\",\"1\",\"Testing\",\"Stims/Figures/100-J-10-3.bmp\",\"mala:la\",\"Up\",\"38\",\"2\",\"17\",\"7\",\"S\",\"C\",\"41\"
\"\",\"\",\"approach-retreat\",\"190\",\"1544650\",\"0.0-190.0\",\"\",\"\",\"2-2\",\"4114\",\"37\",\"0\",\"Testing\",\"Stims/Figures/93-C-30-1.bmp\",\"paka:ka\",\"Left\",\"39\",\"2\",\"18\",\"7\",\"P\",\"C\",\"42\"
\"\",\"\",\"approach-retreat\",\"191\",\"1550501\",\"0.0-191.0\",\"\",\"\",\"2-2\",\"4343\",\"39\",\"0\",\"Testing\",\"Stims/Figures/57-C-30-1.bmp\",\"taka:ta\",\"Right\",\"37\",\"2\",\"19\",\"7\",\"P\",\"C\",\"43\"
\"\",\"\",\"approach-retreat\",\"192\",\"1556404\",\"0.0-192.0\",\"\",\"\",\"2-2\",\"4393\",\"37\",\"1\",\"Testing\",\"Stims/Figures/7-C-20-4.bmp\",\"mama:na\",\"Right\",\"37\",\"2\",\"20\",\"7\",\"S\",\"C\",\"44\"
\"\",\"\",\"approach-retreat\",\"193\",\"1562134\",\"0.0-193.0\",\"\",\"\",\"2-2\",\"4219\",\"39\",\"1\",\"Testing\",\"Stims/Figures/85-J-0-2.bmp\",\"ta:pata\",\"Right\",\"39\",\"2\",\"21\",\"7\",\"P\",\"C\",\"45\"
\"\",\"\",\"approach-retreat\",\"194\",\"1568016\",\"0.0-194.0\",\"\",\"\",\"2-2\",\"4373\",\"40\",\"1\",\"Testing\",\"Stims/Figures/19-C-20-4.bmp\",\"ma:ma:la\",\"Up\",\"40\",\"2\",\"22\",\"7\",\"S\",\"C\",\"46\"
\"\",\"\",\"approach-retreat\",\"195\",\"1573855\",\"0.0-195.0\",\"\",\"\",\"2-2\",\"4330\",\"38\",\"1\",\"Testing\",\"Stims/Figures/93-J-0-1.bmp\",\"tapa:ta\",\"Up\",\"38\",\"2\",\"23\",\"7\",\"P\",\"C\",\"47\"
\"\",\"\",\"approach-retreat\",\"196\",\"1579621\",\"0.0-196.0\",\"\",\"\",\"2-2\",\"4258\",\"38\",\"0\",\"Testing\",\"Stims/Figures/71-J-0-1.bmp\",\"takata\",\"Down\",\"40\",\"2\",\"24\",\"7\",\"P\",\"C\",\"48\"
\"\",\"\",\"approach-retreat\",\"197\",\"1585448\",\"0.0-197.0\",\"\",\"\",\"2-2\",\"4317\",\"40\",\"1\",\"Testing\",\"Stims/Figures/71-C-30-1.bmp\",\"ta:ka:ta\",\"Up\",\"40\",\"3\",\"1\",\"7\",\"P\",\"C\",\"49\"
\"\",\"\",\"approach-retreat\",\"198\",\"1591363\",\"0.0-198.0\",\"\",\"\",\"2-2\",\"4407\",\"39\",\"0\",\"Testing\",\"Stims/Figures/100-C-30-3.bmp\",\"na:la:la\",\"Right\",\"37\",\"3\",\"2\",\"7\",\"S\",\"C\",\"50\"
\"\",\"\",\"approach-retreat\",\"199\",\"1597290\",\"0.0-199.0\",\"\",\"\",\"2-2\",\"4419\",\"38\",\"1\",\"Testing\",\"Stims/Figures/102-J-10-4.bmp\",\"na:mana\",\"Up\",\"38\",\"3\",\"3\",\"7\",\"S\",\"C\",\"51\"
\"\",\"\",\"approach-retreat\",\"200\",\"1603006\",\"0.0-200.0\",\"\",\"\",\"2-2\",\"4206\",\"40\",\"1\",\"Testing\",\"Stims/Figures/7-J-10-4.bmp\",\"na:lana\",\"Down\",\"40\",\"3\",\"4\",\"7\",\"S\",\"C\",\"52\"
\"\",\"\",\"approach-retreat\",\"201\",\"1608872\",\"0.0-201.0\",\"\",\"\",\"2-2\",\"4358\",\"37\",\"1\",\"Testing\",\"Stims/Figures/100-J-10-3.bmp\",\"mala:la\",\"Left\",\"37\",\"3\",\"5\",\"7\",\"S\",\"C\",\"53\"
\"\",\"\",\"approach-retreat\",\"202\",\"1614694\",\"0.0-202.0\",\"\",\"\",\"2-2\",\"4314\",\"39\",\"0\",\"Testing\",\"Stims/Figures/118-J-0-2.bmp\",\"pa:kata\",\"Left\",\"37\",\"3\",\"6\",\"7\",\"P\",\"C\",\"54\"
\"\",\"\",\"approach-retreat\",\"203\",\"1620717\",\"0.0-203.0\",\"\",\"\",\"2-2\",\"4514\",\"39\",\"1\",\"Testing\",\"Stims/Figures/93-J-0-1.bmp\",\"tapa:ta\",\"Right\",\"39\",\"3\",\"7\",\"7\",\"P\",\"C\",\"55\"
\"\",\"\",\"approach-retreat\",\"204\",\"1626484\",\"0.0-204.0\",\"\",\"\",\"2-2\",\"4259\",\"40\",\"0\",\"Testing\",\"Stims/Figures/7-C-20-4.bmp\",\"mama:na\",\"Down\",\"38\",\"3\",\"8\",\"7\",\"S\",\"C\",\"56\"
\"\",\"\",\"approach-retreat\",\"205\",\"1632239\",\"0.0-205.0\",\"\",\"\",\"2-2\",\"4247\",\"37\",\"0\",\"Testing\",\"Stims/Figures/85-C-20-2.bmp\",\"ta:ka:ka\",\"Left\",\"39\",\"3\",\"9\",\"7\",\"P\",\"C\",\"57\"
\"\",\"\",\"approach-retreat\",\"206\",\"1638088\",\"0.0-206.0\",\"\",\"\",\"2-2\",\"4341\",\"39\",\"0\",\"Testing\",\"Stims/Figures/93-C-30-1.bmp\",\"paka:ka\",\"Right\",\"37\",\"3\",\"10\",\"7\",\"P\",\"C\",\"58\"
\"\",\"\",\"approach-retreat\",\"207\",\"1644307\",\"0.0-207.0\",\"\",\"\",\"2-2\",\"4709\",\"37\",\"1\",\"Testing\",\"Stims/Figures/128-J-10-3.bmp\",\"na:ma:la\",\"Left\",\"37\",\"3\",\"11\",\"7\",\"S\",\"C\",\"59\"
\"\",\"\",\"approach-retreat\",\"208\",\"1650992\",\"0.0-208.0\",\"\",\"\",\"2-2\",\"5176\",\"39\",\"1\",\"Testing\",\"Stims/Figures/44-J-10-3.bmp\",\"ma:ma:na\",\"Right\",\"39\",\"3\",\"12\",\"7\",\"S\",\"C\",\"60\"
\"\",\"\",\"approach-retreat\",\"209\",\"1657026\",\"0.0-209.0\",\"\",\"\",\"2-2\",\"4524\",\"40\",\"1\",\"Testing\",\"Stims/Figures/44-C-30-3.bmp\",\"mama:la\",\"Up\",\"40\",\"3\",\"13\",\"7\",\"S\",\"C\",\"61\"
\"\",\"\",\"approach-retreat\",\"210\",\"1663138\",\"0.0-210.0\",\"\",\"\",\"2-2\",\"4600\",\"38\",\"1\",\"Testing\",\"Stims/Figures/85-J-0-2.bmp\",\"ta:pata\",\"Up\",\"38\",\"3\",\"14\",\"7\",\"P\",\"C\",\"62\"
\"\",\"\",\"approach-retreat\",\"211\",\"1669050\",\"0.0-211.0\",\"\",\"\",\"2-2\",\"4402\",\"37\",\"1\",\"Testing\",\"Stims/Figures/84-C-20-2.bmp\",\"pa:pata\",\"Right\",\"37\",\"3\",\"15\",\"7\",\"P\",\"C\",\"63\"
\"\",\"\",\"approach-retreat\",\"212\",\"1675561\",\"0.0-212.0\",\"\",\"\",\"2-2\",\"5002\",\"39\",\"1\",\"Testing\",\"Stims/Figures/118-C-20-2.bmp\",\"pa:pa:ka\",\"Left\",\"39\",\"3\",\"16\",\"7\",\"P\",\"C\",\"64\"
\"\",\"\",\"approach-retreat\",\"213\",\"1681283\",\"0.0-213.0\",\"\",\"\",\"2-2\",\"4213\",\"38\",\"0\",\"Testing\",\"Stims/Figures/84-J-0-2.bmp\",\"ta:pa:ta\",\"Down\",\"40\",\"3\",\"17\",\"7\",\"P\",\"C\",\"65\"
\"\",\"\",\"approach-retreat\",\"214\",\"1686866\",\"0.0-214.0\",\"\",\"\",\"2-2\",\"4072\",\"40\",\"0\",\"Testing\",\"Stims/Figures/57-C-30-1.bmp\",\"taka:ta\",\"Down\",\"38\",\"3\",\"18\",\"7\",\"P\",\"C\",\"66\"
\"\",\"\",\"approach-retreat\",\"215\",\"1692504\",\"0.0-215.0\",\"\",\"\",\"2-2\",\"4133\",\"40\",\"0\",\"Testing\",\"Stims/Figures/102-C-20-4.bmp\",\"nama:la\",\"Down\",\"38\",\"3\",\"19\",\"7\",\"S\",\"C\",\"67\"
\"\",\"\",\"approach-retreat\",\"216\",\"1698995\",\"0.0-216.0\",\"\",\"\",\"2-2\",\"4981\",\"38\",\"1\",\"Testing\",\"Stims/Figures/19-J-10-4.bmp\",\"nalana\",\"Up\",\"38\",\"3\",\"20\",\"7\",\"S\",\"C\",\"68\"
\"\",\"\",\"approach-retreat\",\"217\",\"1705236\",\"0.0-217.0\",\"\",\"\",\"2-2\",\"4732\",\"38\",\"1\",\"Testing\",\"Stims/Figures/57-J-0-1.bmp\",\"ta:kaka\",\"Up\",\"38\",\"3\",\"21\",\"7\",\"P\",\"C\",\"69\"
\"\",\"\",\"approach-retreat\",\"218\",\"1710910\",\"0.0-218.0\",\"\",\"\",\"2-2\",\"4164\",\"37\",\"1\",\"Testing\",\"Stims/Figures/71-J-0-1.bmp\",\"takata\",\"Left\",\"37\",\"3\",\"22\",\"7\",\"P\",\"C\",\"70\"
\"\",\"\",\"approach-retreat\",\"219\",\"1716528\",\"0.0-219.0\",\"\",\"\",\"2-2\",\"4109\",\"39\",\"0\",\"Testing\",\"Stims/Figures/19-C-20-4.bmp\",\"ma:ma:la\",\"Right\",\"37\",\"3\",\"23\",\"7\",\"S\",\"C\",\"71\"
\"\",\"\",\"approach-retreat\",\"220\",\"1722210\",\"0.0-220.0\",\"\",\"\",\"2-2\",\"4173\",\"40\",\"0\",\"Testing\",\"Stims/Figures/128-C-30-3.bmp\",\"namala\",\"Down\",\"38\",\"3\",\"24\",\"7\",\"S\",\"C\",\"72\"
\"\",\"\",\"approach-retreat\",\"221\",\"1727848\",\"0.0-221.0\",\"\",\"\",\"2-2\",\"4128\",\"39\",\"0\",\"Testing\",\"Stims/Figures/100-C-30-3.bmp\",\"na:la:la\",\"Right\",\"37\",\"4\",\"1\",\"7\",\"S\",\"C\",\"73\"
\"\",\"\",\"approach-retreat\",\"222\",\"1733485\",\"0.0-222.0\",\"\",\"\",\"2-2\",\"4121\",\"38\",\"1\",\"Testing\",\"Stims/Figures/44-C-30-3.bmp\",\"mama:la\",\"Down\",\"38\",\"4\",\"2\",\"7\",\"S\",\"C\",\"74\"
\"\",\"\",\"approach-retreat\",\"223\",\"1739551\",\"0.0-223.0\",\"\",\"\",\"2-2\",\"4558\",\"37\",\"1\",\"Testing\",\"Stims/Figures/44-J-10-3.bmp\",\"ma:ma:na\",\"Left\",\"37\",\"4\",\"3\",\"7\",\"S\",\"C\",\"75\"
\"\",\"\",\"approach-retreat\",\"224\",\"1745810\",\"0.0-224.0\",\"\",\"\",\"2-2\",\"4745\",\"38\",\"0\",\"Testing\",\"Stims/Figures/93-C-30-1.bmp\",\"paka:ka\",\"Up\",\"40\",\"4\",\"4\",\"7\",\"P\",\"C\",\"76\"
\"\",\"\",\"approach-retreat\",\"225\",\"1751527\",\"0.0-225.0\",\"\",\"\",\"2-2\",\"4208\",\"38\",\"1\",\"Testing\",\"Stims/Figures/71-J-0-1.bmp\",\"takata\",\"Up\",\"38\",\"4\",\"5\",\"7\",\"P\",\"C\",\"77\"
\"\",\"\",\"approach-retreat\",\"226\",\"1757274\",\"0.0-226.0\",\"\",\"\",\"2-2\",\"4236\",\"37\",\"0\",\"Testing\",\"Stims/Figures/85-C-20-2.bmp\",\"ta:ka:ka\",\"Left\",\"39\",\"4\",\"6\",\"7\",\"P\",\"C\",\"78\"
\"\",\"\",\"approach-retreat\",\"227\",\"1762939\",\"0.0-227.0\",\"\",\"\",\"2-2\",\"4155\",\"38\",\"0\",\"Testing\",\"Stims/Figures/19-C-20-4.bmp\",\"ma:ma:la\",\"Up\",\"40\",\"4\",\"7\",\"7\",\"S\",\"C\",\"79\"
\"\",\"\",\"approach-retreat\",\"228\",\"1768669\",\"0.0-228.0\",\"\",\"\",\"2-2\",\"4219\",\"40\",\"1\",\"Testing\",\"Stims/Figures/84-J-0-2.bmp\",\"ta:pa:ta\",\"Down\",\"40\",\"4\",\"8\",\"7\",\"P\",\"C\",\"80\"
\"\",\"\",\"approach-retreat\",\"229\",\"1774353\",\"0.0-229.0\",\"\",\"\",\"2-2\",\"4175\",\"37\",\"1\",\"Testing\",\"Stims/Figures/85-J-0-2.bmp\",\"ta:pata\",\"Left\",\"37\",\"4\",\"9\",\"7\",\"P\",\"C\",\"81\"
\"\",\"\",\"approach-retreat\",\"230\",\"1779920\",\"0.0-230.0\",\"\",\"\",\"2-2\",\"4058\",\"37\",\"1\",\"Testing\",\"Stims/Figures/128-J-10-3.bmp\",\"na:ma:la\",\"Left\",\"37\",\"4\",\"10\",\"7\",\"S\",\"C\",\"82\"
\"\",\"\",\"approach-retreat\",\"231\",\"1785591\",\"0.0-231.0\",\"\",\"\",\"2-2\",\"4162\",\"37\",\"0\",\"Testing\",\"Stims/Figures/7-J-10-4.bmp\",\"na:lana\",\"Right\",\"39\",\"4\",\"11\",\"7\",\"S\",\"C\",\"83\"
\"\",\"\",\"approach-retreat\",\"232\",\"1791282\",\"0.0-232.0\",\"\",\"\",\"2-2\",\"4184\",\"37\",\"0\",\"Testing\",\"Stims/Figures/19-J-10-4.bmp\",\"nalana\",\"Right\",\"39\",\"4\",\"12\",\"7\",\"S\",\"C\",\"84\"
\"\",\"\",\"approach-retreat\",\"233\",\"1797171\",\"0.0-233.0\",\"\",\"\",\"2-2\",\"4381\",\"39\",\"1\",\"Testing\",\"Stims/Figures/84-C-20-2.bmp\",\"pa:pata\",\"Left\",\"39\",\"4\",\"13\",\"7\",\"P\",\"C\",\"85\"
\"\",\"\",\"approach-retreat\",\"234\",\"1802708\",\"0.0-234.0\",\"\",\"\",\"2-2\",\"4029\",\"40\",\"0\",\"Testing\",\"Stims/Figures/102-C-20-4.bmp\",\"nama:la\",\"Down\",\"38\",\"4\",\"14\",\"7\",\"S\",\"C\",\"86\"
\"\",\"\",\"approach-retreat\",\"235\",\"1808437\",\"0.0-235.0\",\"\",\"\",\"2-2\",\"4220\",\"40\",\"1\",\"Testing\",\"Stims/Figures/93-J-0-1.bmp\",\"tapa:ta\",\"Down\",\"40\",\"4\",\"15\",\"7\",\"P\",\"C\",\"87\"
\"\",\"\",\"approach-retreat\",\"236\",\"1813977\",\"0.0-236.0\",\"\",\"\",\"2-2\",\"4031\",\"38\",\"1\",\"Testing\",\"Stims/Figures/118-C-20-2.bmp\",\"pa:pa:ka\",\"Down\",\"38\",\"4\",\"16\",\"7\",\"P\",\"C\",\"88\"
\"\",\"\",\"approach-retreat\",\"237\",\"1819874\",\"0.0-237.0\",\"\",\"\",\"2-2\",\"4388\",\"37\",\"0\",\"Testing\",\"Stims/Figures/118-J-0-2.bmp\",\"pa:kata\",\"Right\",\"39\",\"4\",\"17\",\"7\",\"P\",\"C\",\"89\"
\"\",\"\",\"approach-retreat\",\"238\",\"1825462\",\"0.0-238.0\",\"\",\"\",\"2-2\",\"4079\",\"38\",\"1\",\"Testing\",\"Stims/Figures/57-C-30-1.bmp\",\"taka:ta\",\"Down\",\"38\",\"4\",\"18\",\"7\",\"P\",\"C\",\"90\"
\"\",\"\",\"approach-retreat\",\"239\",\"1831278\",\"0.0-239.0\",\"\",\"\",\"2-2\",\"4306\",\"40\",\"0\",\"Testing\",\"Stims/Figures/100-J-10-3.bmp\",\"mala:la\",\"Up\",\"38\",\"4\",\"19\",\"7\",\"S\",\"C\",\"91\"
\"\",\"\",\"approach-retreat\",\"240\",\"1837085\",\"0.0-240.0\",\"\",\"\",\"2-2\",\"4298\",\"39\",\"0\",\"Testing\",\"Stims/Figures/71-C-30-1.bmp\",\"ta:ka:ta\",\"Right\",\"37\",\"4\",\"20\",\"7\",\"P\",\"C\",\"92\"
\"\",\"\",\"approach-retreat\",\"241\",\"1842852\",\"0.0-241.0\",\"\",\"\",\"2-2\",\"4260\",\"37\",\"1\",\"Testing\",\"Stims/Figures/57-J-0-1.bmp\",\"ta:kaka\",\"Left\",\"37\",\"4\",\"21\",\"7\",\"P\",\"C\",\"93\"
\"\",\"\",\"approach-retreat\",\"242\",\"1848602\",\"0.0-242.0\",\"\",\"\",\"2-2\",\"4241\",\"39\",\"1\",\"Testing\",\"Stims/Figures/102-J-10-4.bmp\",\"na:mana\",\"Right\",\"39\",\"4\",\"22\",\"7\",\"S\",\"C\",\"94\"
\"\",\"\",\"approach-retreat\",\"243\",\"1854408\",\"0.0-243.0\",\"\",\"\",\"2-2\",\"4297\",\"38\",\"0\",\"Testing\",\"Stims/Figures/7-C-20-4.bmp\",\"mama:na\",\"Up\",\"40\",\"4\",\"23\",\"7\",\"S\",\"C\",\"95\"
\"\",\"\",\"approach-retreat\",\"244\",\"1859891\",\"0.0-244.0\",\"\",\"\",\"2-2\",\"3974\",\"38\",\"0\",\"Testing\",\"Stims/Figures/128-C-30-3.bmp\",\"namala\",\"Up\",\"40\",\"4\",\"24\",\"7\",\"S\",\"C\",\"96\"
\"106306\",\"\",\"survey-text\",\"245\",\"1966206\",\"0.0-245.0\",\"\",\"{\"\"Q0\"\":\"\"1281/2017\"\"}\",\"\",\"\",\"\",\"\",\"\",\"\",\"\",\"\",\"\",\"\",\"\",\"\",\"\",\"\",\"\"
