\"rt\",\"key_press\",\"trial_type\",\"trial_index\",\"time_elapsed\",\"internal_node_id\",\"view_history\",\"responses\",\"Id\",\"Rt\",\"ResKeyCode\",\"ResCorr\",\"TrialType2\",\"Image\",\"Label\",\"Location\",\"CorrectResponse\",\"Block\",\"BlockTrial\",\"Condition\",\"LabelType\",\"Subcondition\",\"trialNum\"
\"4752\",\"32\",\"text\",\"0\",\"4758\",\"0.0-0.0-0.0\",\"\",\"\",\"\",\"\",\"\",\"\",\"\",\"\",\"\",\"\",\"\",\"\",\"\",\"\",\"\",\"\",\"\"
\"104276\",\"\",\"instructions\",\"1\",\"109037\",\"0.0-1.0\",\"[{\"\"page_index\"\":0,\"\"viewing_time\"\":104274}]\",\"\",\"\",\"\",\"\",\"\",\"\",\"\",\"\",\"\",\"\",\"\",\"\",\"\",\"\",\"\",\"\"
\"21872\",\"\",\"survey-multi-choice\",\"2\",\"130986\",\"0.0-2.0\",\"\",\"{\"\"Q0\"\":\"\"Da\"\",\"\"Q1\"\":\"\"Da\"\",\"\"Q2\"\":\"\"Da\"\",\"\"Q3\"\":\"\"Da\"\",\"\"Q4\"\":\"\"Da\"\",\"\"Q5\"\":\"\"Da\"\"}\",\"\",\"\",\"\",\"\",\"\",\"\",\"\",\"\",\"\",\"\",\"\",\"\",\"\",\"\",\"\"
\"\",\"\",\"bio\",\"3\",\"139252\",\"0.0-3.0\",\"\",\"{\"\"age\"\":\"\"20\"\",\"\"gender\"\":\"\"f\"\",\"\"specify\"\":\"\"\"\"}\",\"\",\"\",\"\",\"\",\"\",\"\",\"\",\"\",\"\",\"\",\"\",\"\",\"\",\"\",\"\"
\"\",\"\",\"approach-retreat\",\"4\",\"146922\",\"0.0-4.0\",\"\",\"\",\"3-5\",\"6144\",\"40\",\"1\",\"Training\",\"Stims/Figures/86-J-0-1.bmp\",\"ta:ka:ka\",\"Down\",\"40\",\"1\",\"1\",\"4\",\"P\",\"C\",\"1\"
\"\",\"\",\"approach-retreat\",\"5\",\"153920\",\"0.0-5.0\",\"\",\"\",\"3-5\",\"5455\",\"37\",\"1\",\"Training\",\"Stims/Figures/144-J-10-3.bmp\",\"papa:ka\",\"Left\",\"37\",\"1\",\"2\",\"4\",\"P\",\"C\",\"2\"
\"\",\"\",\"approach-retreat\",\"6\",\"160745\",\"0.0-6.0\",\"\",\"\",\"3-5\",\"5304\",\"39\",\"0\",\"Training\",\"Stims/Figures/57-C-30-1.bmp\",\"ma:mala\",\"Right\",\"37\",\"1\",\"3\",\"4\",\"S\",\"C\",\"3\"
\"\",\"\",\"approach-retreat\",\"7\",\"167771\",\"0.0-7.0\",\"\",\"\",\"3-5\",\"5486\",\"39\",\"1\",\"Training\",\"Stims/Figures/100-J-10-3.bmp\",\"pa:ka:ka\",\"Right\",\"39\",\"1\",\"4\",\"4\",\"P\",\"C\",\"4\"
\"\",\"\",\"approach-retreat\",\"8\",\"174981\",\"0.0-8.0\",\"\",\"\",\"3-5\",\"5670\",\"37\",\"0\",\"Training\",\"Stims/Figures/86-C-30-1.bmp\",\"ma:ma:la\",\"Left\",\"39\",\"1\",\"5\",\"4\",\"S\",\"C\",\"5\"
\"\",\"\",\"approach-retreat\",\"9\",\"181369\",\"0.0-9.0\",\"\",\"\",\"3-5\",\"4852\",\"38\",\"0\",\"Training\",\"Stims/Figures/74-C-20-4.bmp\",\"na:lana\",\"Up\",\"40\",\"1\",\"6\",\"4\",\"S\",\"C\",\"6\"
\"\",\"\",\"approach-retreat\",\"10\",\"187752\",\"0.0-10.0\",\"\",\"\",\"3-5\",\"4832\",\"40\",\"0\",\"Training\",\"Stims/Figures/144-C-30-3.bmp\",\"malana\",\"Down\",\"38\",\"1\",\"7\",\"4\",\"S\",\"C\",\"7\"
\"\",\"\",\"approach-retreat\",\"11\",\"194481\",\"0.0-11.0\",\"\",\"\",\"3-5\",\"5213\",\"38\",\"0\",\"Training\",\"Stims/Figures/139-C-20-2.bmp\",\"mama:na\",\"Up\",\"40\",\"1\",\"8\",\"4\",\"S\",\"C\",\"8\"
\"\",\"\",\"approach-retreat\",\"12\",\"201537\",\"0.0-12.0\",\"\",\"\",\"3-5\",\"5519\",\"37\",\"1\",\"Training\",\"Stims/Figures/7-J-10-4.bmp\",\"paka:ka\",\"Left\",\"37\",\"1\",\"9\",\"4\",\"P\",\"C\",\"9\"
\"\",\"\",\"approach-retreat\",\"13\",\"209069\",\"0.0-13.0\",\"\",\"\",\"3-5\",\"5634\",\"40\",\"0\",\"Training\",\"Stims/Figures/139-J-0-2.bmp\",\"ta:paka\",\"Up\",\"38\",\"1\",\"10\",\"4\",\"P\",\"C\",\"10\"
\"\",\"\",\"approach-retreat\",\"14\",\"215929\",\"0.0-14.0\",\"\",\"\",\"3-5\",\"5346\",\"37\",\"1\",\"Training\",\"Stims/Figures/85-J-0-2.bmp\",\"takaka\",\"Left\",\"37\",\"1\",\"11\",\"4\",\"P\",\"C\",\"11\"
\"\",\"\",\"approach-retreat\",\"15\",\"222239\",\"0.0-15.0\",\"\",\"\",\"3-5\",\"4774\",\"38\",\"1\",\"Training\",\"Stims/Figures/7-C-20-4.bmp\",\"nala:la\",\"Down\",\"38\",\"1\",\"12\",\"4\",\"S\",\"C\",\"12\"
\"\",\"\",\"approach-retreat\",\"16\",\"228360\",\"0.0-16.0\",\"\",\"\",\"3-5\",\"4584\",\"38\",\"0\",\"Training\",\"Stims/Figures/85-C-20-2.bmp\",\"ma:lala\",\"Up\",\"40\",\"1\",\"13\",\"4\",\"S\",\"C\",\"13\"
\"\",\"\",\"approach-retreat\",\"17\",\"234045\",\"0.0-17.0\",\"\",\"\",\"3-5\",\"4155\",\"40\",\"0\",\"Training\",\"Stims/Figures/100-C-30-3.bmp\",\"na:mana\",\"Down\",\"38\",\"1\",\"14\",\"4\",\"S\",\"C\",\"14\"
\"\",\"\",\"approach-retreat\",\"18\",\"240388\",\"0.0-18.0\",\"\",\"\",\"3-5\",\"4807\",\"37\",\"0\",\"Training\",\"Stims/Figures/57-J-0-1.bmp\",\"tapa:ta\",\"Right\",\"39\",\"1\",\"15\",\"4\",\"P\",\"C\",\"15\"
\"\",\"\",\"approach-retreat\",\"19\",\"246015\",\"0.0-19.0\",\"\",\"\",\"3-5\",\"4114\",\"39\",\"1\",\"Training\",\"Stims/Figures/74-J-10-4.bmp\",\"papa:ta\",\"Right\",\"39\",\"1\",\"16\",\"4\",\"P\",\"C\",\"16\"
\"\",\"\",\"approach-retreat\",\"20\",\"251697\",\"0.0-20.0\",\"\",\"\",\"3-5\",\"4146\",\"38\",\"0\",\"Training\",\"Stims/Figures/86-C-30-1.bmp\",\"ma:ma:la\",\"Up\",\"40\",\"2\",\"1\",\"4\",\"S\",\"C\",\"17\"
\"\",\"\",\"approach-retreat\",\"21\",\"257641\",\"0.0-21.0\",\"\",\"\",\"3-5\",\"4404\",\"38\",\"1\",\"Training\",\"Stims/Figures/57-J-0-1.bmp\",\"tapa:ta\",\"Up\",\"38\",\"2\",\"2\",\"4\",\"P\",\"C\",\"18\"
\"\",\"\",\"approach-retreat\",\"22\",\"264297\",\"0.0-22.0\",\"\",\"\",\"3-5\",\"5120\",\"40\",\"1\",\"Training\",\"Stims/Figures/86-J-0-1.bmp\",\"ta:ka:ka\",\"Down\",\"40\",\"2\",\"3\",\"4\",\"P\",\"C\",\"19\"
\"\",\"\",\"approach-retreat\",\"23\",\"270082\",\"0.0-23.0\",\"\",\"\",\"3-5\",\"4246\",\"37\",\"0\",\"Training\",\"Stims/Figures/74-C-20-4.bmp\",\"na:lana\",\"Left\",\"39\",\"2\",\"4\",\"4\",\"S\",\"C\",\"20\"
\"\",\"\",\"approach-retreat\",\"24\",\"275978\",\"0.0-24.0\",\"\",\"\",\"3-5\",\"4361\",\"39\",\"0\",\"Training\",\"Stims/Figures/85-C-20-2.bmp\",\"ma:lala\",\"Right\",\"37\",\"2\",\"5\",\"4\",\"S\",\"C\",\"21\"
\"\",\"\",\"approach-retreat\",\"25\",\"281852\",\"0.0-25.0\",\"\",\"\",\"3-5\",\"4339\",\"37\",\"1\",\"Training\",\"Stims/Figures/144-C-30-3.bmp\",\"malana\",\"Right\",\"37\",\"2\",\"6\",\"4\",\"S\",\"C\",\"22\"
\"\",\"\",\"approach-retreat\",\"26\",\"287824\",\"0.0-26.0\",\"\",\"\",\"3-5\",\"4435\",\"40\",\"1\",\"Training\",\"Stims/Figures/7-J-10-4.bmp\",\"paka:ka\",\"Down\",\"40\",\"2\",\"7\",\"4\",\"P\",\"C\",\"23\"
\"\",\"\",\"approach-retreat\",\"27\",\"293890\",\"0.0-27.0\",\"\",\"\",\"3-5\",\"4529\",\"40\",\"0\",\"Training\",\"Stims/Figures/57-C-30-1.bmp\",\"ma:mala\",\"Down\",\"38\",\"2\",\"8\",\"4\",\"S\",\"C\",\"24\"
\"\",\"\",\"approach-retreat\",\"28\",\"299573\",\"0.0-28.0\",\"\",\"\",\"3-5\",\"4163\",\"38\",\"0\",\"Training\",\"Stims/Figures/100-C-30-3.bmp\",\"na:mana\",\"Up\",\"40\",\"2\",\"9\",\"4\",\"S\",\"C\",\"25\"
\"\",\"\",\"approach-retreat\",\"29\",\"305705\",\"0.0-29.0\",\"\",\"\",\"3-5\",\"4597\",\"39\",\"1\",\"Training\",\"Stims/Figures/139-J-0-2.bmp\",\"ta:paka\",\"Right\",\"39\",\"2\",\"10\",\"4\",\"P\",\"C\",\"26\"
\"\",\"\",\"approach-retreat\",\"30\",\"311637\",\"0.0-30.0\",\"\",\"\",\"3-5\",\"4391\",\"37\",\"0\",\"Training\",\"Stims/Figures/7-C-20-4.bmp\",\"nala:la\",\"Left\",\"39\",\"2\",\"11\",\"4\",\"S\",\"C\",\"27\"
\"\",\"\",\"approach-retreat\",\"31\",\"317359\",\"0.0-31.0\",\"\",\"\",\"3-5\",\"4186\",\"39\",\"1\",\"Training\",\"Stims/Figures/85-J-0-2.bmp\",\"takaka\",\"Right\",\"39\",\"2\",\"12\",\"4\",\"P\",\"C\",\"28\"
\"\",\"\",\"approach-retreat\",\"32\",\"323664\",\"0.0-32.0\",\"\",\"\",\"3-5\",\"4769\",\"38\",\"1\",\"Training\",\"Stims/Figures/100-J-10-3.bmp\",\"pa:ka:ka\",\"Up\",\"38\",\"2\",\"13\",\"4\",\"P\",\"C\",\"29\"
\"\",\"\",\"approach-retreat\",\"33\",\"329665\",\"0.0-33.0\",\"\",\"\",\"3-5\",\"4465\",\"37\",\"1\",\"Training\",\"Stims/Figures/74-J-10-4.bmp\",\"papa:ta\",\"Left\",\"37\",\"2\",\"14\",\"4\",\"P\",\"C\",\"30\"
\"\",\"\",\"approach-retreat\",\"34\",\"336077\",\"0.0-34.0\",\"\",\"\",\"3-5\",\"4875\",\"37\",\"0\",\"Training\",\"Stims/Figures/139-C-20-2.bmp\",\"mama:na\",\"Left\",\"39\",\"2\",\"15\",\"4\",\"S\",\"C\",\"31\"
\"\",\"\",\"approach-retreat\",\"35\",\"341927\",\"0.0-35.0\",\"\",\"\",\"3-5\",\"4313\",\"40\",\"1\",\"Training\",\"Stims/Figures/144-J-10-3.bmp\",\"papa:ka\",\"Down\",\"40\",\"2\",\"16\",\"4\",\"P\",\"C\",\"32\"
\"\",\"\",\"approach-retreat\",\"36\",\"347485\",\"0.0-36.0\",\"\",\"\",\"3-5\",\"4023\",\"37\",\"1\",\"Training\",\"Stims/Figures/7-J-10-4.bmp\",\"paka:ka\",\"Left\",\"37\",\"3\",\"1\",\"4\",\"P\",\"C\",\"33\"
\"\",\"\",\"approach-retreat\",\"37\",\"353798\",\"0.0-37.0\",\"\",\"\",\"3-5\",\"4802\",\"39\",\"1\",\"Training\",\"Stims/Figures/86-C-30-1.bmp\",\"ma:ma:la\",\"Left\",\"39\",\"3\",\"2\",\"4\",\"S\",\"C\",\"34\"
\"\",\"\",\"approach-retreat\",\"38\",\"359889\",\"0.0-38.0\",\"\",\"\",\"3-5\",\"4551\",\"40\",\"0\",\"Training\",\"Stims/Figures/74-C-20-4.bmp\",\"na:lana\",\"Down\",\"38\",\"3\",\"3\",\"4\",\"S\",\"C\",\"35\"
\"\",\"\",\"approach-retreat\",\"39\",\"366078\",\"0.0-39.0\",\"\",\"\",\"3-5\",\"4655\",\"37\",\"0\",\"Training\",\"Stims/Figures/85-C-20-2.bmp\",\"ma:lala\",\"Left\",\"39\",\"3\",\"4\",\"4\",\"S\",\"C\",\"36\"
\"\",\"\",\"approach-retreat\",\"40\",\"371685\",\"0.0-40.0\",\"\",\"\",\"3-5\",\"4070\",\"38\",\"0\",\"Training\",\"Stims/Figures/7-C-20-4.bmp\",\"nala:la\",\"Up\",\"40\",\"3\",\"5\",\"4\",\"S\",\"C\",\"37\"
\"\",\"\",\"approach-retreat\",\"41\",\"378127\",\"0.0-41.0\",\"\",\"\",\"3-5\",\"4907\",\"40\",\"0\",\"Training\",\"Stims/Figures/57-C-30-1.bmp\",\"ma:mala\",\"Down\",\"38\",\"3\",\"6\",\"4\",\"S\",\"C\",\"38\"
\"\",\"\",\"approach-retreat\",\"42\",\"383832\",\"0.0-42.0\",\"\",\"\",\"3-5\",\"4170\",\"39\",\"0\",\"Training\",\"Stims/Figures/100-C-30-3.bmp\",\"na:mana\",\"Right\",\"37\",\"3\",\"7\",\"4\",\"S\",\"C\",\"39\"
\"\",\"\",\"approach-retreat\",\"43\",\"389485\",\"0.0-43.0\",\"\",\"\",\"3-5\",\"4123\",\"37\",\"1\",\"Training\",\"Stims/Figures/86-J-0-1.bmp\",\"ta:ka:ka\",\"Left\",\"37\",\"3\",\"8\",\"4\",\"P\",\"C\",\"40\"
\"\",\"\",\"approach-retreat\",\"44\",\"395121\",\"0.0-44.0\",\"\",\"\",\"3-5\",\"4104\",\"39\",\"1\",\"Training\",\"Stims/Figures/144-J-10-3.bmp\",\"papa:ka\",\"Right\",\"39\",\"3\",\"9\",\"4\",\"P\",\"C\",\"41\"
\"\",\"\",\"approach-retreat\",\"45\",\"401507\",\"0.0-45.0\",\"\",\"\",\"3-5\",\"4851\",\"37\",\"1\",\"Training\",\"Stims/Figures/144-C-30-3.bmp\",\"malana\",\"Right\",\"37\",\"3\",\"10\",\"4\",\"S\",\"C\",\"42\"
\"\",\"\",\"approach-retreat\",\"46\",\"408367\",\"0.0-46.0\",\"\",\"\",\"3-5\",\"5323\",\"39\",\"1\",\"Training\",\"Stims/Figures/139-J-0-2.bmp\",\"ta:paka\",\"Right\",\"39\",\"3\",\"11\",\"4\",\"P\",\"C\",\"43\"
\"\",\"\",\"approach-retreat\",\"47\",\"415079\",\"0.0-47.0\",\"\",\"\",\"3-5\",\"5173\",\"40\",\"0\",\"Training\",\"Stims/Figures/139-C-20-2.bmp\",\"mama:na\",\"Down\",\"38\",\"3\",\"12\",\"4\",\"S\",\"C\",\"44\"
\"\",\"\",\"approach-retreat\",\"48\",\"421614\",\"0.0-48.0\",\"\",\"\",\"3-5\",\"5000\",\"38\",\"1\",\"Training\",\"Stims/Figures/74-J-10-4.bmp\",\"papa:ta\",\"Up\",\"38\",\"3\",\"13\",\"4\",\"P\",\"C\",\"45\"
\"\",\"\",\"approach-retreat\",\"49\",\"427977\",\"0.0-49.0\",\"\",\"\",\"3-5\",\"4826\",\"40\",\"1\",\"Training\",\"Stims/Figures/100-J-10-3.bmp\",\"pa:ka:ka\",\"Down\",\"40\",\"3\",\"14\",\"4\",\"P\",\"C\",\"46\"
\"\",\"\",\"approach-retreat\",\"50\",\"434368\",\"0.0-50.0\",\"\",\"\",\"3-5\",\"4877\",\"38\",\"1\",\"Training\",\"Stims/Figures/57-J-0-1.bmp\",\"tapa:ta\",\"Up\",\"38\",\"3\",\"15\",\"4\",\"P\",\"C\",\"47\"
\"\",\"\",\"approach-retreat\",\"51\",\"440260\",\"0.0-51.0\",\"\",\"\",\"3-5\",\"4352\",\"40\",\"0\",\"Training\",\"Stims/Figures/85-J-0-2.bmp\",\"takaka\",\"Up\",\"38\",\"3\",\"16\",\"4\",\"P\",\"C\",\"48\"
\"\",\"\",\"approach-retreat\",\"52\",\"446021\",\"0.0-52.0\",\"\",\"\",\"3-5\",\"4226\",\"40\",\"1\",\"Training\",\"Stims/Figures/74-C-20-4.bmp\",\"na:lana\",\"Up\",\"40\",\"4\",\"1\",\"4\",\"S\",\"C\",\"49\"
\"\",\"\",\"approach-retreat\",\"53\",\"452133\",\"0.0-53.0\",\"\",\"\",\"3-5\",\"4577\",\"39\",\"1\",\"Training\",\"Stims/Figures/144-J-10-3.bmp\",\"papa:ka\",\"Right\",\"39\",\"4\",\"2\",\"4\",\"P\",\"C\",\"50\"
\"\",\"\",\"approach-retreat\",\"54\",\"457729\",\"0.0-54.0\",\"\",\"\",\"3-5\",\"4063\",\"37\",\"0\",\"Training\",\"Stims/Figures/57-C-30-1.bmp\",\"ma:mala\",\"Left\",\"39\",\"4\",\"3\",\"4\",\"S\",\"C\",\"51\"
\"\",\"\",\"approach-retreat\",\"55\",\"463362\",\"0.0-55.0\",\"\",\"\",\"3-5\",\"4095\",\"37\",\"1\",\"Training\",\"Stims/Figures/57-J-0-1.bmp\",\"tapa:ta\",\"Left\",\"37\",\"4\",\"4\",\"4\",\"P\",\"C\",\"52\"
\"\",\"\",\"approach-retreat\",\"56\",\"469042\",\"0.0-56.0\",\"\",\"\",\"3-5\",\"4144\",\"38\",\"0\",\"Training\",\"Stims/Figures/85-C-20-2.bmp\",\"ma:lala\",\"Up\",\"40\",\"4\",\"5\",\"4\",\"S\",\"C\",\"53\"
\"\",\"\",\"approach-retreat\",\"57\",\"474825\",\"0.0-57.0\",\"\",\"\",\"3-5\",\"4247\",\"39\",\"0\",\"Training\",\"Stims/Figures/7-C-20-4.bmp\",\"nala:la\",\"Right\",\"37\",\"4\",\"6\",\"4\",\"S\",\"C\",\"54\"
\"\",\"\",\"approach-retreat\",\"58\",\"480857\",\"0.0-58.0\",\"\",\"\",\"3-5\",\"4497\",\"38\",\"0\",\"Training\",\"Stims/Figures/144-C-30-3.bmp\",\"malana\",\"Up\",\"40\",\"4\",\"7\",\"4\",\"S\",\"C\",\"55\"
\"\",\"\",\"approach-retreat\",\"59\",\"486440\",\"0.0-59.0\",\"\",\"\",\"3-5\",\"4048\",\"40\",\"1\",\"Training\",\"Stims/Figures/86-C-30-1.bmp\",\"ma:ma:la\",\"Up\",\"40\",\"4\",\"8\",\"4\",\"S\",\"C\",\"56\"
\"\",\"\",\"approach-retreat\",\"60\",\"491972\",\"0.0-60.0\",\"\",\"\",\"3-5\",\"3999\",\"40\",\"0\",\"Training\",\"Stims/Figures/100-C-30-3.bmp\",\"na:mana\",\"Down\",\"38\",\"4\",\"9\",\"4\",\"S\",\"C\",\"57\"
\"\",\"\",\"approach-retreat\",\"61\",\"497519\",\"0.0-61.0\",\"\",\"\",\"3-5\",\"4011\",\"37\",\"1\",\"Training\",\"Stims/Figures/74-J-10-4.bmp\",\"papa:ta\",\"Left\",\"37\",\"4\",\"10\",\"4\",\"P\",\"C\",\"58\"
\"\",\"\",\"approach-retreat\",\"62\",\"502980\",\"0.0-62.0\",\"\",\"\",\"3-5\",\"3922\",\"39\",\"1\",\"Training\",\"Stims/Figures/100-J-10-3.bmp\",\"pa:ka:ka\",\"Right\",\"39\",\"4\",\"11\",\"4\",\"P\",\"C\",\"59\"
\"\",\"\",\"approach-retreat\",\"63\",\"509284\",\"0.0-63.0\",\"\",\"\",\"3-5\",\"4769\",\"40\",\"1\",\"Training\",\"Stims/Figures/85-J-0-2.bmp\",\"takaka\",\"Down\",\"40\",\"4\",\"12\",\"4\",\"P\",\"C\",\"60\"
\"\",\"\",\"approach-retreat\",\"64\",\"515438\",\"0.0-64.0\",\"\",\"\",\"3-5\",\"4616\",\"37\",\"1\",\"Training\",\"Stims/Figures/86-J-0-1.bmp\",\"ta:ka:ka\",\"Left\",\"37\",\"4\",\"13\",\"4\",\"P\",\"C\",\"61\"
\"\",\"\",\"approach-retreat\",\"65\",\"521729\",\"0.0-65.0\",\"\",\"\",\"3-5\",\"4756\",\"40\",\"1\",\"Training\",\"Stims/Figures/7-J-10-4.bmp\",\"paka:ka\",\"Down\",\"40\",\"4\",\"14\",\"4\",\"P\",\"C\",\"62\"
\"\",\"\",\"approach-retreat\",\"66\",\"527389\",\"0.0-66.0\",\"\",\"\",\"3-5\",\"4125\",\"39\",\"1\",\"Training\",\"Stims/Figures/139-J-0-2.bmp\",\"ta:paka\",\"Right\",\"39\",\"4\",\"15\",\"4\",\"P\",\"C\",\"63\"
\"\",\"\",\"approach-retreat\",\"67\",\"533166\",\"0.0-67.0\",\"\",\"\",\"3-5\",\"4265\",\"40\",\"0\",\"Training\",\"Stims/Figures/139-C-20-2.bmp\",\"mama:na\",\"Down\",\"38\",\"4\",\"16\",\"4\",\"S\",\"C\",\"64\"
\"\",\"\",\"approach-retreat\",\"68\",\"540698\",\"0.0-68.0\",\"\",\"\",\"3-5\",\"5997\",\"38\",\"1\",\"Training\",\"Stims/Figures/139-J-0-2.bmp\",\"ta:paka\",\"Up\",\"38\",\"5\",\"1\",\"4\",\"P\",\"C\",\"65\"
\"\",\"\",\"approach-retreat\",\"69\",\"546531\",\"0.0-69.0\",\"\",\"\",\"3-5\",\"4298\",\"39\",\"0\",\"Training\",\"Stims/Figures/139-C-20-2.bmp\",\"mama:na\",\"Right\",\"37\",\"5\",\"2\",\"4\",\"S\",\"C\",\"66\"
\"\",\"\",\"approach-retreat\",\"70\",\"552057\",\"0.0-70.0\",\"\",\"\",\"3-5\",\"3989\",\"40\",\"0\",\"Training\",\"Stims/Figures/144-C-30-3.bmp\",\"malana\",\"Down\",\"38\",\"5\",\"3\",\"4\",\"S\",\"C\",\"67\"
\"\",\"\",\"approach-retreat\",\"71\",\"557834\",\"0.0-71.0\",\"\",\"\",\"3-5\",\"4268\",\"40\",\"0\",\"Training\",\"Stims/Figures/86-J-0-1.bmp\",\"ta:ka:ka\",\"Up\",\"38\",\"5\",\"4\",\"4\",\"P\",\"C\",\"68\"
\"\",\"\",\"approach-retreat\",\"72\",\"564010\",\"0.0-72.0\",\"\",\"\",\"3-5\",\"4639\",\"37\",\"1\",\"Training\",\"Stims/Figures/85-J-0-2.bmp\",\"takaka\",\"Left\",\"37\",\"5\",\"5\",\"4\",\"P\",\"C\",\"69\"
\"\",\"\",\"approach-retreat\",\"73\",\"569572\",\"0.0-73.0\",\"\",\"\",\"3-5\",\"4032\",\"40\",\"0\",\"Training\",\"Stims/Figures/74-C-20-4.bmp\",\"na:lana\",\"Down\",\"38\",\"5\",\"6\",\"4\",\"S\",\"C\",\"70\"
\"\",\"\",\"approach-retreat\",\"74\",\"575325\",\"0.0-74.0\",\"\",\"\",\"3-5\",\"4219\",\"40\",\"1\",\"Training\",\"Stims/Figures/86-C-30-1.bmp\",\"ma:ma:la\",\"Up\",\"40\",\"5\",\"7\",\"4\",\"S\",\"C\",\"71\"
\"\",\"\",\"approach-retreat\",\"75\",\"580806\",\"0.0-75.0\",\"\",\"\",\"3-5\",\"3951\",\"39\",\"1\",\"Training\",\"Stims/Figures/85-C-20-2.bmp\",\"ma:lala\",\"Left\",\"39\",\"5\",\"8\",\"4\",\"S\",\"C\",\"72\"
\"\",\"\",\"approach-retreat\",\"76\",\"586438\",\"0.0-76.0\",\"\",\"\",\"3-5\",\"4096\",\"40\",\"1\",\"Training\",\"Stims/Figures/144-J-10-3.bmp\",\"papa:ka\",\"Down\",\"40\",\"5\",\"9\",\"4\",\"P\",\"C\",\"73\"
\"\",\"\",\"approach-retreat\",\"77\",\"592308\",\"0.0-77.0\",\"\",\"\",\"3-5\",\"4334\",\"37\",\"0\",\"Training\",\"Stims/Figures/100-J-10-3.bmp\",\"pa:ka:ka\",\"Right\",\"39\",\"5\",\"10\",\"4\",\"P\",\"C\",\"74\"
\"\",\"\",\"approach-retreat\",\"78\",\"597961\",\"0.0-78.0\",\"\",\"\",\"3-5\",\"4116\",\"37\",\"0\",\"Training\",\"Stims/Figures/100-C-30-3.bmp\",\"na:mana\",\"Left\",\"39\",\"5\",\"11\",\"4\",\"S\",\"C\",\"75\"
\"\",\"\",\"approach-retreat\",\"79\",\"603348\",\"0.0-79.0\",\"\",\"\",\"3-5\",\"3850\",\"39\",\"1\",\"Training\",\"Stims/Figures/57-J-0-1.bmp\",\"tapa:ta\",\"Right\",\"39\",\"5\",\"12\",\"4\",\"P\",\"C\",\"76\"
\"\",\"\",\"approach-retreat\",\"80\",\"608903\",\"0.0-80.0\",\"\",\"\",\"3-5\",\"4011\",\"39\",\"0\",\"Training\",\"Stims/Figures/57-C-30-1.bmp\",\"ma:mala\",\"Right\",\"37\",\"5\",\"13\",\"4\",\"S\",\"C\",\"77\"
\"\",\"\",\"approach-retreat\",\"81\",\"614819\",\"0.0-81.0\",\"\",\"\",\"3-5\",\"4377\",\"37\",\"1\",\"Training\",\"Stims/Figures/7-J-10-4.bmp\",\"paka:ka\",\"Left\",\"37\",\"5\",\"14\",\"4\",\"P\",\"C\",\"78\"
\"\",\"\",\"approach-retreat\",\"82\",\"621102\",\"0.0-82.0\",\"\",\"\",\"3-5\",\"4747\",\"38\",\"1\",\"Training\",\"Stims/Figures/74-J-10-4.bmp\",\"papa:ta\",\"Up\",\"38\",\"5\",\"15\",\"4\",\"P\",\"C\",\"79\"
\"\",\"\",\"approach-retreat\",\"83\",\"626620\",\"0.0-83.0\",\"\",\"\",\"3-5\",\"3982\",\"40\",\"0\",\"Training\",\"Stims/Figures/7-C-20-4.bmp\",\"nala:la\",\"Down\",\"38\",\"5\",\"16\",\"4\",\"S\",\"C\",\"80\"
\"\",\"\",\"approach-retreat\",\"84\",\"632348\",\"0.0-84.0\",\"\",\"\",\"3-5\",\"4196\",\"40\",\"1\",\"Training\",\"Stims/Figures/139-J-0-2.bmp\",\"ta:paka\",\"Down\",\"40\",\"6\",\"1\",\"4\",\"P\",\"C\",\"81\"
\"\",\"\",\"approach-retreat\",\"85\",\"637852\",\"0.0-85.0\",\"\",\"\",\"3-5\",\"3968\",\"37\",\"0\",\"Training\",\"Stims/Figures/74-C-20-4.bmp\",\"na:lana\",\"Left\",\"39\",\"6\",\"2\",\"4\",\"S\",\"C\",\"82\"
\"\",\"\",\"approach-retreat\",\"86\",\"643535\",\"0.0-86.0\",\"\",\"\",\"3-5\",\"4148\",\"39\",\"1\",\"Training\",\"Stims/Figures/85-J-0-2.bmp\",\"takaka\",\"Right\",\"39\",\"6\",\"3\",\"4\",\"P\",\"C\",\"83\"
\"\",\"\",\"approach-retreat\",\"87\",\"649408\",\"0.0-87.0\",\"\",\"\",\"3-5\",\"4339\",\"37\",\"0\",\"Training\",\"Stims/Figures/100-C-30-3.bmp\",\"na:mana\",\"Left\",\"39\",\"6\",\"4\",\"4\",\"S\",\"C\",\"84\"
\"\",\"\",\"approach-retreat\",\"88\",\"654851\",\"0.0-88.0\",\"\",\"\",\"3-5\",\"3924\",\"39\",\"0\",\"Training\",\"Stims/Figures/7-C-20-4.bmp\",\"nala:la\",\"Right\",\"37\",\"6\",\"5\",\"4\",\"S\",\"C\",\"85\"
\"\",\"\",\"approach-retreat\",\"89\",\"660486\",\"0.0-89.0\",\"\",\"\",\"3-5\",\"4124\",\"38\",\"0\",\"Training\",\"Stims/Figures/144-C-30-3.bmp\",\"malana\",\"Up\",\"40\",\"6\",\"6\",\"4\",\"S\",\"C\",\"86\"
\"\",\"\",\"approach-retreat\",\"90\",\"666232\",\"0.0-90.0\",\"\",\"\",\"3-5\",\"4231\",\"37\",\"0\",\"Training\",\"Stims/Figures/85-C-20-2.bmp\",\"ma:lala\",\"Left\",\"39\",\"6\",\"7\",\"4\",\"S\",\"C\",\"87\"
\"\",\"\",\"approach-retreat\",\"91\",\"671657\",\"0.0-91.0\",\"\",\"\",\"3-5\",\"3889\",\"39\",\"1\",\"Training\",\"Stims/Figures/7-J-10-4.bmp\",\"paka:ka\",\"Right\",\"39\",\"6\",\"8\",\"4\",\"P\",\"C\",\"88\"
\"\",\"\",\"approach-retreat\",\"92\",\"677079\",\"0.0-92.0\",\"\",\"\",\"3-5\",\"3913\",\"39\",\"1\",\"Training\",\"Stims/Figures/100-J-10-3.bmp\",\"pa:ka:ka\",\"Right\",\"39\",\"6\",\"9\",\"4\",\"P\",\"C\",\"89\"
\"\",\"\",\"approach-retreat\",\"93\",\"682818\",\"0.0-93.0\",\"\",\"\",\"3-5\",\"4229\",\"40\",\"1\",\"Training\",\"Stims/Figures/139-C-20-2.bmp\",\"mama:na\",\"Up\",\"40\",\"6\",\"10\",\"4\",\"S\",\"C\",\"90\"
\"\",\"\",\"approach-retreat\",\"94\",\"688587\",\"0.0-94.0\",\"\",\"\",\"3-5\",\"4259\",\"40\",\"0\",\"Training\",\"Stims/Figures/57-J-0-1.bmp\",\"tapa:ta\",\"Up\",\"38\",\"6\",\"11\",\"4\",\"P\",\"C\",\"91\"
\"\",\"\",\"approach-retreat\",\"95\",\"694134\",\"0.0-95.0\",\"\",\"\",\"3-5\",\"4036\",\"37\",\"1\",\"Training\",\"Stims/Figures/74-J-10-4.bmp\",\"papa:ta\",\"Left\",\"37\",\"6\",\"12\",\"4\",\"P\",\"C\",\"92\"
\"\",\"\",\"approach-retreat\",\"96\",\"699676\",\"0.0-96.0\",\"\",\"\",\"3-5\",\"4012\",\"40\",\"1\",\"Training\",\"Stims/Figures/144-J-10-3.bmp\",\"papa:ka\",\"Down\",\"40\",\"6\",\"13\",\"4\",\"P\",\"C\",\"93\"
\"\",\"\",\"approach-retreat\",\"97\",\"705460\",\"0.0-97.0\",\"\",\"\",\"3-5\",\"4247\",\"40\",\"0\",\"Training\",\"Stims/Figures/57-C-30-1.bmp\",\"ma:mala\",\"Down\",\"38\",\"6\",\"14\",\"4\",\"S\",\"C\",\"94\"
\"\",\"\",\"approach-retreat\",\"98\",\"711081\",\"0.0-98.0\",\"\",\"\",\"3-5\",\"4083\",\"40\",\"0\",\"Training\",\"Stims/Figures/86-C-30-1.bmp\",\"ma:ma:la\",\"Down\",\"38\",\"6\",\"15\",\"4\",\"S\",\"C\",\"95\"
\"\",\"\",\"approach-retreat\",\"99\",\"716922\",\"0.0-99.0\",\"\",\"\",\"3-5\",\"4304\",\"38\",\"1\",\"Training\",\"Stims/Figures/86-J-0-1.bmp\",\"ta:ka:ka\",\"Up\",\"38\",\"6\",\"16\",\"4\",\"P\",\"C\",\"96\"
\"\",\"\",\"approach-retreat\",\"100\",\"722622\",\"0.0-100.0\",\"\",\"\",\"3-5\",\"4162\",\"37\",\"0\",\"Training\",\"Stims/Figures/100-C-30-3.bmp\",\"na:mana\",\"Left\",\"39\",\"7\",\"1\",\"4\",\"S\",\"C\",\"97\"
\"\",\"\",\"approach-retreat\",\"101\",\"728440\",\"0.0-101.0\",\"\",\"\",\"3-5\",\"4283\",\"38\",\"0\",\"Training\",\"Stims/Figures/139-J-0-2.bmp\",\"ta:paka\",\"Down\",\"40\",\"7\",\"2\",\"4\",\"P\",\"C\",\"98\"
\"\",\"\",\"approach-retreat\",\"102\",\"734386\",\"0.0-102.0\",\"\",\"\",\"3-5\",\"4409\",\"39\",\"0\",\"Training\",\"Stims/Figures/57-J-0-1.bmp\",\"tapa:ta\",\"Left\",\"37\",\"7\",\"3\",\"4\",\"P\",\"C\",\"99\"
\"\",\"\",\"approach-retreat\",\"103\",\"740153\",\"0.0-103.0\",\"\",\"\",\"3-5\",\"4236\",\"40\",\"0\",\"Training\",\"Stims/Figures/57-C-30-1.bmp\",\"ma:mala\",\"Down\",\"38\",\"7\",\"4\",\"4\",\"S\",\"C\",\"100\"
\"\",\"\",\"approach-retreat\",\"104\",\"745988\",\"0.0-104.0\",\"\",\"\",\"3-5\",\"4300\",\"40\",\"0\",\"Training\",\"Stims/Figures/74-J-10-4.bmp\",\"papa:ta\",\"Up\",\"38\",\"7\",\"5\",\"4\",\"P\",\"C\",\"101\"
\"\",\"\",\"approach-retreat\",\"105\",\"751613\",\"0.0-105.0\",\"\",\"\",\"3-5\",\"4090\",\"37\",\"0\",\"Training\",\"Stims/Figures/86-C-30-1.bmp\",\"ma:ma:la\",\"Left\",\"39\",\"7\",\"6\",\"4\",\"S\",\"C\",\"102\"
\"\",\"\",\"approach-retreat\",\"106\",\"757388\",\"0.0-106.0\",\"\",\"\",\"3-5\",\"4242\",\"37\",\"1\",\"Training\",\"Stims/Figures/139-C-20-2.bmp\",\"mama:na\",\"Right\",\"37\",\"7\",\"7\",\"4\",\"S\",\"C\",\"103\"
\"\",\"\",\"approach-retreat\",\"107\",\"763031\",\"0.0-107.0\",\"\",\"\",\"3-5\",\"4109\",\"39\",\"1\",\"Training\",\"Stims/Figures/100-J-10-3.bmp\",\"pa:ka:ka\",\"Right\",\"39\",\"7\",\"8\",\"4\",\"P\",\"C\",\"104\"
\"\",\"\",\"approach-retreat\",\"108\",\"768961\",\"0.0-108.0\",\"\",\"\",\"3-5\",\"4395\",\"38\",\"0\",\"Training\",\"Stims/Figures/85-J-0-2.bmp\",\"takaka\",\"Down\",\"40\",\"7\",\"9\",\"4\",\"P\",\"C\",\"105\"
\"\",\"\",\"approach-retreat\",\"109\",\"774772\",\"0.0-109.0\",\"\",\"\",\"3-5\",\"4276\",\"40\",\"0\",\"Training\",\"Stims/Figures/74-C-20-4.bmp\",\"na:lana\",\"Down\",\"38\",\"7\",\"10\",\"4\",\"S\",\"C\",\"106\"
\"\",\"\",\"approach-retreat\",\"110\",\"780882\",\"0.0-110.0\",\"\",\"\",\"3-5\",\"4576\",\"40\",\"1\",\"Training\",\"Stims/Figures/85-C-20-2.bmp\",\"ma:lala\",\"Up\",\"40\",\"7\",\"11\",\"4\",\"S\",\"C\",\"107\"
\"\",\"\",\"approach-retreat\",\"111\",\"786482\",\"0.0-111.0\",\"\",\"\",\"3-5\",\"4066\",\"40\",\"0\",\"Training\",\"Stims/Figures/144-J-10-3.bmp\",\"papa:ka\",\"Up\",\"38\",\"7\",\"12\",\"4\",\"P\",\"C\",\"108\"
\"\",\"\",\"approach-retreat\",\"112\",\"792041\",\"0.0-112.0\",\"\",\"\",\"3-5\",\"4023\",\"40\",\"0\",\"Training\",\"Stims/Figures/86-J-0-1.bmp\",\"ta:ka:ka\",\"Up\",\"38\",\"7\",\"13\",\"4\",\"P\",\"C\",\"109\"
\"\",\"\",\"approach-retreat\",\"113\",\"797824\",\"0.0-113.0\",\"\",\"\",\"3-5\",\"4249\",\"39\",\"1\",\"Training\",\"Stims/Figures/7-J-10-4.bmp\",\"paka:ka\",\"Right\",\"39\",\"7\",\"14\",\"4\",\"P\",\"C\",\"110\"
\"\",\"\",\"approach-retreat\",\"114\",\"805648\",\"0.0-114.0\",\"\",\"\",\"3-5\",\"6285\",\"39\",\"0\",\"Training\",\"Stims/Figures/7-C-20-4.bmp\",\"nala:la\",\"Right\",\"37\",\"7\",\"15\",\"4\",\"S\",\"C\",\"111\"
\"\",\"\",\"approach-retreat\",\"115\",\"811373\",\"0.0-115.0\",\"\",\"\",\"3-5\",\"4186\",\"37\",\"0\",\"Training\",\"Stims/Figures/144-C-30-3.bmp\",\"malana\",\"Left\",\"39\",\"7\",\"16\",\"4\",\"S\",\"C\",\"112\"
\"\",\"\",\"approach-retreat\",\"116\",\"817611\",\"0.0-116.0\",\"\",\"\",\"3-5\",\"4712\",\"38\",\"0\",\"Training\",\"Stims/Figures/74-C-20-4.bmp\",\"na:lana\",\"Up\",\"40\",\"8\",\"1\",\"4\",\"S\",\"C\",\"113\"
\"\",\"\",\"approach-retreat\",\"117\",\"823356\",\"0.0-117.0\",\"\",\"\",\"3-5\",\"4209\",\"37\",\"1\",\"Training\",\"Stims/Figures/74-J-10-4.bmp\",\"papa:ta\",\"Left\",\"37\",\"8\",\"2\",\"4\",\"P\",\"C\",\"114\"
\"\",\"\",\"approach-retreat\",\"118\",\"829615\",\"0.0-118.0\",\"\",\"\",\"3-5\",\"4721\",\"37\",\"1\",\"Training\",\"Stims/Figures/144-J-10-3.bmp\",\"papa:ka\",\"Left\",\"37\",\"8\",\"3\",\"4\",\"P\",\"C\",\"115\"
\"\",\"\",\"approach-retreat\",\"119\",\"835327\",\"0.0-119.0\",\"\",\"\",\"3-5\",\"4178\",\"40\",\"0\",\"Training\",\"Stims/Figures/86-C-30-1.bmp\",\"ma:ma:la\",\"Down\",\"38\",\"8\",\"4\",\"4\",\"S\",\"C\",\"116\"
\"\",\"\",\"approach-retreat\",\"120\",\"840908\",\"0.0-120.0\",\"\",\"\",\"3-5\",\"4068\",\"37\",\"1\",\"Training\",\"Stims/Figures/100-J-10-3.bmp\",\"pa:ka:ka\",\"Left\",\"37\",\"8\",\"5\",\"4\",\"P\",\"C\",\"117\"
\"\",\"\",\"approach-retreat\",\"121\",\"846512\",\"0.0-121.0\",\"\",\"\",\"3-5\",\"4072\",\"37\",\"0\",\"Training\",\"Stims/Figures/7-C-20-4.bmp\",\"nala:la\",\"Left\",\"39\",\"8\",\"6\",\"4\",\"S\",\"C\",\"118\"
\"\",\"\",\"approach-retreat\",\"122\",\"852654\",\"0.0-122.0\",\"\",\"\",\"3-5\",\"4628\",\"38\",\"1\",\"Training\",\"Stims/Figures/144-C-30-3.bmp\",\"malana\",\"Down\",\"38\",\"8\",\"7\",\"4\",\"S\",\"C\",\"119\"
\"\",\"\",\"approach-retreat\",\"123\",\"859440\",\"0.0-123.0\",\"\",\"\",\"3-5\",\"5256\",\"38\",\"1\",\"Training\",\"Stims/Figures/57-C-30-1.bmp\",\"ma:mala\",\"Down\",\"38\",\"8\",\"8\",\"4\",\"S\",\"C\",\"120\"
\"\",\"\",\"approach-retreat\",\"124\",\"865709\",\"0.0-124.0\",\"\",\"\",\"3-5\",\"4732\",\"38\",\"1\",\"Training\",\"Stims/Figures/57-J-0-1.bmp\",\"tapa:ta\",\"Up\",\"38\",\"8\",\"9\",\"4\",\"P\",\"C\",\"121\"
\"\",\"\",\"approach-retreat\",\"125\",\"872264\",\"0.0-125.0\",\"\",\"\",\"3-5\",\"5020\",\"37\",\"1\",\"Training\",\"Stims/Figures/85-C-20-2.bmp\",\"ma:lala\",\"Right\",\"37\",\"8\",\"10\",\"4\",\"S\",\"C\",\"122\"
\"\",\"\",\"approach-retreat\",\"126\",\"878374\",\"0.0-126.0\",\"\",\"\",\"3-5\",\"4580\",\"39\",\"1\",\"Training\",\"Stims/Figures/7-J-10-4.bmp\",\"paka:ka\",\"Right\",\"39\",\"8\",\"11\",\"4\",\"P\",\"C\",\"123\"
\"\",\"\",\"approach-retreat\",\"127\",\"886000\",\"0.0-127.0\",\"\",\"\",\"3-5\",\"6093\",\"38\",\"1\",\"Training\",\"Stims/Figures/139-C-20-2.bmp\",\"mama:na\",\"Down\",\"38\",\"8\",\"12\",\"4\",\"S\",\"C\",\"124\"
\"\",\"\",\"approach-retreat\",\"128\",\"892321\",\"0.0-128.0\",\"\",\"\",\"3-5\",\"4788\",\"38\",\"1\",\"Training\",\"Stims/Figures/85-J-0-2.bmp\",\"takaka\",\"Up\",\"38\",\"8\",\"13\",\"4\",\"P\",\"C\",\"125\"
\"\",\"\",\"approach-retreat\",\"129\",\"898367\",\"0.0-129.0\",\"\",\"\",\"3-5\",\"4508\",\"40\",\"1\",\"Training\",\"Stims/Figures/100-C-30-3.bmp\",\"na:mana\",\"Up\",\"40\",\"8\",\"14\",\"4\",\"S\",\"C\",\"126\"
\"\",\"\",\"approach-retreat\",\"130\",\"904174\",\"0.0-130.0\",\"\",\"\",\"3-5\",\"4271\",\"37\",\"0\",\"Training\",\"Stims/Figures/139-J-0-2.bmp\",\"ta:paka\",\"Right\",\"39\",\"8\",\"15\",\"4\",\"P\",\"C\",\"127\"
\"\",\"\",\"approach-retreat\",\"131\",\"910147\",\"0.0-131.0\",\"\",\"\",\"3-5\",\"4440\",\"39\",\"1\",\"Training\",\"Stims/Figures/86-J-0-1.bmp\",\"ta:ka:ka\",\"Right\",\"39\",\"8\",\"16\",\"4\",\"P\",\"C\",\"128\"
\"\",\"\",\"approach-retreat\",\"132\",\"916379\",\"0.0-132.0\",\"\",\"\",\"3-5\",\"4700\",\"38\",\"1\",\"Training\",\"Stims/Figures/100-C-30-3.bmp\",\"na:mana\",\"Down\",\"38\",\"9\",\"1\",\"4\",\"S\",\"C\",\"129\"
\"\",\"\",\"approach-retreat\",\"133\",\"923198\",\"0.0-133.0\",\"\",\"\",\"3-5\",\"5280\",\"37\",\"1\",\"Training\",\"Stims/Figures/7-C-20-4.bmp\",\"nala:la\",\"Right\",\"37\",\"9\",\"2\",\"4\",\"S\",\"C\",\"130\"
\"\",\"\",\"approach-retreat\",\"134\",\"929563\",\"0.0-134.0\",\"\",\"\",\"3-5\",\"4831\",\"38\",\"1\",\"Training\",\"Stims/Figures/139-J-0-2.bmp\",\"ta:paka\",\"Up\",\"38\",\"9\",\"3\",\"4\",\"P\",\"C\",\"131\"
\"\",\"\",\"approach-retreat\",\"135\",\"935557\",\"0.0-135.0\",\"\",\"\",\"3-5\",\"4464\",\"39\",\"1\",\"Training\",\"Stims/Figures/144-C-30-3.bmp\",\"malana\",\"Left\",\"39\",\"9\",\"4\",\"4\",\"S\",\"C\",\"132\"
\"\",\"\",\"approach-retreat\",\"136\",\"941554\",\"0.0-136.0\",\"\",\"\",\"3-5\",\"4465\",\"38\",\"1\",\"Training\",\"Stims/Figures/85-C-20-2.bmp\",\"ma:lala\",\"Down\",\"38\",\"9\",\"5\",\"4\",\"S\",\"C\",\"133\"
\"\",\"\",\"approach-retreat\",\"137\",\"947859\",\"0.0-137.0\",\"\",\"\",\"3-5\",\"4770\",\"38\",\"1\",\"Training\",\"Stims/Figures/139-C-20-2.bmp\",\"mama:na\",\"Down\",\"38\",\"9\",\"6\",\"4\",\"S\",\"C\",\"134\"
\"\",\"\",\"approach-retreat\",\"138\",\"953796\",\"0.0-138.0\",\"\",\"\",\"3-5\",\"4406\",\"39\",\"1\",\"Training\",\"Stims/Figures/74-C-20-4.bmp\",\"na:lana\",\"Left\",\"39\",\"9\",\"7\",\"4\",\"S\",\"C\",\"135\"
\"\",\"\",\"approach-retreat\",\"139\",\"960085\",\"0.0-139.0\",\"\",\"\",\"3-5\",\"4756\",\"38\",\"1\",\"Training\",\"Stims/Figures/74-J-10-4.bmp\",\"papa:ta\",\"Up\",\"38\",\"9\",\"8\",\"4\",\"P\",\"C\",\"136\"
\"\",\"\",\"approach-retreat\",\"140\",\"966074\",\"0.0-140.0\",\"\",\"\",\"3-5\",\"4455\",\"39\",\"1\",\"Training\",\"Stims/Figures/57-J-0-1.bmp\",\"tapa:ta\",\"Right\",\"39\",\"9\",\"9\",\"4\",\"P\",\"C\",\"137\"
\"\",\"\",\"approach-retreat\",\"141\",\"972440\",\"0.0-141.0\",\"\",\"\",\"3-5\",\"4836\",\"38\",\"0\",\"Training\",\"Stims/Figures/85-J-0-2.bmp\",\"takaka\",\"Down\",\"40\",\"9\",\"10\",\"4\",\"P\",\"C\",\"138\"
\"\",\"\",\"approach-retreat\",\"142\",\"979245\",\"0.0-142.0\",\"\",\"\",\"3-5\",\"5272\",\"37\",\"1\",\"Training\",\"Stims/Figures/7-J-10-4.bmp\",\"paka:ka\",\"Left\",\"37\",\"9\",\"11\",\"4\",\"P\",\"C\",\"139\"
\"\",\"\",\"approach-retreat\",\"143\",\"985884\",\"0.0-143.0\",\"\",\"\",\"3-5\",\"5112\",\"39\",\"1\",\"Training\",\"Stims/Figures/100-J-10-3.bmp\",\"pa:ka:ka\",\"Right\",\"39\",\"9\",\"12\",\"4\",\"P\",\"C\",\"140\"
\"\",\"\",\"approach-retreat\",\"144\",\"991512\",\"0.0-144.0\",\"\",\"\",\"3-5\",\"4113\",\"37\",\"1\",\"Training\",\"Stims/Figures/86-C-30-1.bmp\",\"ma:ma:la\",\"Right\",\"37\",\"9\",\"13\",\"4\",\"S\",\"C\",\"141\"
\"\",\"\",\"approach-retreat\",\"145\",\"997711\",\"0.0-145.0\",\"\",\"\",\"3-5\",\"4668\",\"40\",\"1\",\"Training\",\"Stims/Figures/57-C-30-1.bmp\",\"ma:mala\",\"Up\",\"40\",\"9\",\"14\",\"4\",\"S\",\"C\",\"142\"
\"\",\"\",\"approach-retreat\",\"146\",\"1003584\",\"0.0-146.0\",\"\",\"\",\"3-5\",\"4338\",\"37\",\"1\",\"Training\",\"Stims/Figures/144-J-10-3.bmp\",\"papa:ka\",\"Left\",\"37\",\"9\",\"15\",\"4\",\"P\",\"C\",\"143\"
\"\",\"\",\"approach-retreat\",\"147\",\"1009685\",\"0.0-147.0\",\"\",\"\",\"3-5\",\"4567\",\"38\",\"1\",\"Training\",\"Stims/Figures/86-J-0-1.bmp\",\"ta:ka:ka\",\"Up\",\"38\",\"9\",\"16\",\"4\",\"P\",\"C\",\"144\"
\"3624\",\"\",\"instructions\",\"148\",\"1013311\",\"0.0-148.0\",\"[{\"\"page_index\"\":0,\"\"viewing_time\"\":3622}]\",\"\",\"\",\"\",\"\",\"\",\"\",\"\",\"\",\"\",\"\",\"\",\"\",\"\",\"\",\"\",\"\"
\"\",\"\",\"approach-retreat\",\"149\",\"1019982\",\"0.0-149.0\",\"\",\"\",\"3-5\",\"5147\",\"37\",\"1\",\"Testing\",\"Stims/Figures/100-C-30-3.bmp\",\"na:mana\",\"Right\",\"37\",\"1\",\"1\",\"4\",\"S\",\"C\",\"1\"
\"\",\"\",\"approach-retreat\",\"150\",\"1026696\",\"0.0-150.0\",\"\",\"\",\"3-5\",\"5185\",\"40\",\"0\",\"Testing\",\"Stims/Figures/71-J-0-1.bmp\",\"pakata\",\"Up\",\"38\",\"1\",\"2\",\"4\",\"P\",\"C\",\"2\"
\"\",\"\",\"approach-retreat\",\"151\",\"1032312\",\"0.0-151.0\",\"\",\"\",\"3-5\",\"4088\",\"38\",\"1\",\"Testing\",\"Stims/Figures/100-J-10-3.bmp\",\"pa:ka:ka\",\"Up\",\"38\",\"1\",\"3\",\"4\",\"P\",\"C\",\"3\"
\"\",\"\",\"approach-retreat\",\"152\",\"1038509\",\"0.0-152.0\",\"\",\"\",\"3-5\",\"4670\",\"39\",\"0\",\"Testing\",\"Stims/Figures/139-C-20-2.bmp\",\"mama:na\",\"Right\",\"37\",\"1\",\"4\",\"4\",\"S\",\"C\",\"4\"
\"\",\"\",\"approach-retreat\",\"153\",\"1044293\",\"0.0-153.0\",\"\",\"\",\"3-5\",\"4255\",\"39\",\"1\",\"Testing\",\"Stims/Figures/57-J-0-1.bmp\",\"tapa:ta\",\"Right\",\"39\",\"1\",\"5\",\"4\",\"P\",\"C\",\"5\"
\"\",\"\",\"approach-retreat\",\"154\",\"1050446\",\"0.0-154.0\",\"\",\"\",\"3-5\",\"4626\",\"38\",\"1\",\"Testing\",\"Stims/Figures/7-C-20-4.bmp\",\"nala:la\",\"Down\",\"38\",\"1\",\"6\",\"4\",\"S\",\"C\",\"6\"
\"\",\"\",\"approach-retreat\",\"155\",\"1056731\",\"0.0-155.0\",\"\",\"\",\"3-5\",\"4757\",\"40\",\"0\",\"Testing\",\"Stims/Figures/144-C-30-3.bmp\",\"malana\",\"Down\",\"38\",\"1\",\"7\",\"4\",\"S\",\"C\",\"7\"
\"\",\"\",\"approach-retreat\",\"156\",\"1062664\",\"0.0-156.0\",\"\",\"\",\"3-5\",\"4404\",\"37\",\"0\",\"Testing\",\"Stims/Figures/84-C-20-2.bmp\",\"nama:na\",\"Left\",\"39\",\"1\",\"8\",\"4\",\"S\",\"C\",\"8\"
\"\",\"\",\"approach-retreat\",\"157\",\"1069311\",\"0.0-157.0\",\"\",\"\",\"3-5\",\"5119\",\"37\",\"1\",\"Testing\",\"Stims/Figures/74-J-10-4.bmp\",\"papa:ta\",\"Left\",\"37\",\"1\",\"9\",\"4\",\"P\",\"C\",\"9\"
\"\",\"\",\"approach-retreat\",\"158\",\"1076573\",\"0.0-158.0\",\"\",\"\",\"3-5\",\"5736\",\"38\",\"1\",\"Testing\",\"Stims/Figures/102-J-10-4.bmp\",\"ta:kaka\",\"Up\",\"38\",\"1\",\"10\",\"4\",\"P\",\"C\",\"10\"
\"\",\"\",\"approach-retreat\",\"159\",\"1083015\",\"0.0-159.0\",\"\",\"\",\"3-5\",\"4915\",\"39\",\"1\",\"Testing\",\"Stims/Figures/85-J-0-2.bmp\",\"takaka\",\"Right\",\"39\",\"1\",\"11\",\"4\",\"P\",\"C\",\"11\"
\"\",\"\",\"approach-retreat\",\"160\",\"1089291\",\"0.0-160.0\",\"\",\"\",\"3-5\",\"4750\",\"37\",\"1\",\"Testing\",\"Stims/Figures/86-C-30-1.bmp\",\"ma:ma:la\",\"Right\",\"37\",\"1\",\"12\",\"4\",\"S\",\"C\",\"12\"
\"\",\"\",\"approach-retreat\",\"161\",\"1095237\",\"0.0-161.0\",\"\",\"\",\"3-5\",\"4416\",\"39\",\"0\",\"Testing\",\"Stims/Figures/74-C-20-4.bmp\",\"na:lana\",\"Right\",\"37\",\"1\",\"13\",\"4\",\"S\",\"C\",\"13\"
\"\",\"\",\"approach-retreat\",\"162\",\"1102284\",\"0.0-162.0\",\"\",\"\",\"3-5\",\"5520\",\"38\",\"1\",\"Testing\",\"Stims/Figures/71-C-30-1.bmp\",\"namana\",\"Down\",\"38\",\"1\",\"14\",\"4\",\"S\",\"C\",\"14\"
\"\",\"\",\"approach-retreat\",\"163\",\"1108617\",\"0.0-163.0\",\"\",\"\",\"3-5\",\"4803\",\"40\",\"1\",\"Testing\",\"Stims/Figures/7-J-10-4.bmp\",\"paka:ka\",\"Down\",\"40\",\"1\",\"15\",\"4\",\"P\",\"C\",\"15\"
\"\",\"\",\"approach-retreat\",\"164\",\"1114492\",\"0.0-164.0\",\"\",\"\",\"3-5\",\"4352\",\"37\",\"0\",\"Testing\",\"Stims/Figures/85-C-20-2.bmp\",\"ma:lala\",\"Left\",\"39\",\"1\",\"16\",\"4\",\"S\",\"C\",\"16\"
\"\",\"\",\"approach-retreat\",\"165\",\"1121488\",\"0.0-165.0\",\"\",\"\",\"3-5\",\"5463\",\"39\",\"1\",\"Testing\",\"Stims/Figures/102-C-20-4.bmp\",\"mala:na\",\"Left\",\"39\",\"1\",\"17\",\"4\",\"S\",\"C\",\"17\"
\"\",\"\",\"approach-retreat\",\"166\",\"1127264\",\"0.0-166.0\",\"\",\"\",\"3-5\",\"4249\",\"38\",\"0\",\"Testing\",\"Stims/Figures/57-C-30-1.bmp\",\"ma:mala\",\"Up\",\"40\",\"1\",\"18\",\"4\",\"S\",\"C\",\"18\"
\"\",\"\",\"approach-retreat\",\"167\",\"1133066\",\"0.0-167.0\",\"\",\"\",\"3-5\",\"4267\",\"37\",\"1\",\"Testing\",\"Stims/Figures/139-J-0-2.bmp\",\"ta:paka\",\"Left\",\"37\",\"1\",\"19\",\"4\",\"P\",\"C\",\"19\"
\"\",\"\",\"approach-retreat\",\"168\",\"1139096\",\"0.0-168.0\",\"\",\"\",\"3-5\",\"4504\",\"40\",\"1\",\"Testing\",\"Stims/Figures/86-J-0-1.bmp\",\"ta:ka:ka\",\"Down\",\"40\",\"1\",\"20\",\"4\",\"P\",\"C\",\"20\"
\"\",\"\",\"approach-retreat\",\"169\",\"1145292\",\"0.0-169.0\",\"\",\"\",\"3-5\",\"4670\",\"38\",\"1\",\"Testing\",\"Stims/Figures/111-C-30-3.bmp\",\"nalala\",\"Down\",\"38\",\"1\",\"21\",\"4\",\"S\",\"C\",\"21\"
\"\",\"\",\"approach-retreat\",\"170\",\"1151518\",\"0.0-170.0\",\"\",\"\",\"3-5\",\"4699\",\"38\",\"1\",\"Testing\",\"Stims/Figures/144-J-10-3.bmp\",\"papa:ka\",\"Up\",\"38\",\"1\",\"22\",\"4\",\"P\",\"C\",\"22\"
\"\",\"\",\"approach-retreat\",\"171\",\"1157392\",\"0.0-171.0\",\"\",\"\",\"3-5\",\"4348\",\"38\",\"1\",\"Testing\",\"Stims/Figures/84-J-0-2.bmp\",\"pa:pata\",\"Up\",\"38\",\"1\",\"23\",\"4\",\"P\",\"C\",\"23\"
\"\",\"\",\"approach-retreat\",\"172\",\"1163115\",\"0.0-172.0\",\"\",\"\",\"3-5\",\"4198\",\"39\",\"0\",\"Testing\",\"Stims/Figures/111-J-10-3.bmp\",\"papata\",\"Left\",\"37\",\"1\",\"24\",\"4\",\"P\",\"C\",\"24\"
\"\",\"\",\"approach-retreat\",\"173\",\"1169217\",\"0.0-173.0\",\"\",\"\",\"3-5\",\"4575\",\"38\",\"1\",\"Testing\",\"Stims/Figures/111-C-30-3.bmp\",\"nalala\",\"Down\",\"38\",\"2\",\"1\",\"4\",\"S\",\"C\",\"25\"
\"\",\"\",\"approach-retreat\",\"174\",\"1175627\",\"0.0-174.0\",\"\",\"\",\"3-5\",\"4883\",\"40\",\"1\",\"Testing\",\"Stims/Figures/71-C-30-1.bmp\",\"namana\",\"Up\",\"40\",\"2\",\"2\",\"4\",\"S\",\"C\",\"26\"
\"\",\"\",\"approach-retreat\",\"175\",\"1182215\",\"0.0-175.0\",\"\",\"\",\"3-5\",\"5058\",\"37\",\"0\",\"Testing\",\"Stims/Figures/100-J-10-3.bmp\",\"pa:ka:ka\",\"Right\",\"39\",\"2\",\"3\",\"4\",\"P\",\"C\",\"27\"
\"\",\"\",\"approach-retreat\",\"176\",\"1188962\",\"0.0-176.0\",\"\",\"\",\"3-5\",\"5223\",\"37\",\"0\",\"Testing\",\"Stims/Figures/144-C-30-3.bmp\",\"malana\",\"Left\",\"39\",\"2\",\"4\",\"4\",\"S\",\"C\",\"28\"
\"\",\"\",\"approach-retreat\",\"177\",\"1195610\",\"0.0-177.0\",\"\",\"\",\"3-5\",\"5120\",\"38\",\"1\",\"Testing\",\"Stims/Figures/57-J-0-1.bmp\",\"tapa:ta\",\"Up\",\"38\",\"2\",\"5\",\"4\",\"P\",\"C\",\"29\"
\"\",\"\",\"approach-retreat\",\"178\",\"1201409\",\"0.0-178.0\",\"\",\"\",\"3-5\",\"4272\",\"38\",\"1\",\"Testing\",\"Stims/Figures/74-J-10-4.bmp\",\"papa:ta\",\"Up\",\"38\",\"2\",\"6\",\"4\",\"P\",\"C\",\"30\"
\"\",\"\",\"approach-retreat\",\"179\",\"1207485\",\"0.0-179.0\",\"\",\"\",\"3-5\",\"4551\",\"37\",\"1\",\"Testing\",\"Stims/Figures/102-C-20-4.bmp\",\"mala:na\",\"Right\",\"37\",\"2\",\"7\",\"4\",\"S\",\"C\",\"31\"
\"\",\"\",\"approach-retreat\",\"180\",\"1214855\",\"0.0-180.0\",\"\",\"\",\"3-5\",\"5843\",\"39\",\"0\",\"Testing\",\"Stims/Figures/57-C-30-1.bmp\",\"ma:mala\",\"Right\",\"37\",\"2\",\"8\",\"4\",\"S\",\"C\",\"32\"
\"\",\"\",\"approach-retreat\",\"181\",\"1221135\",\"0.0-181.0\",\"\",\"\",\"3-5\",\"4752\",\"40\",\"1\",\"Testing\",\"Stims/Figures/71-J-0-1.bmp\",\"pakata\",\"Down\",\"40\",\"2\",\"9\",\"4\",\"P\",\"C\",\"33\"
\"\",\"\",\"approach-retreat\",\"182\",\"1227849\",\"0.0-182.0\",\"\",\"\",\"3-5\",\"5188\",\"38\",\"0\",\"Testing\",\"Stims/Figures/85-C-20-2.bmp\",\"ma:lala\",\"Up\",\"40\",\"2\",\"10\",\"4\",\"S\",\"C\",\"34\"
\"\",\"\",\"approach-retreat\",\"183\",\"1234028\",\"0.0-183.0\",\"\",\"\",\"3-5\",\"4653\",\"37\",\"0\",\"Testing\",\"Stims/Figures/74-C-20-4.bmp\",\"na:lana\",\"Left\",\"39\",\"2\",\"11\",\"4\",\"S\",\"C\",\"35\"
\"\",\"\",\"approach-retreat\",\"184\",\"1240029\",\"0.0-184.0\",\"\",\"\",\"3-5\",\"4474\",\"39\",\"1\",\"Testing\",\"Stims/Figures/144-J-10-3.bmp\",\"papa:ka\",\"Right\",\"39\",\"2\",\"12\",\"4\",\"P\",\"C\",\"36\"
\"\",\"\",\"approach-retreat\",\"185\",\"1246932\",\"0.0-185.0\",\"\",\"\",\"3-5\",\"5374\",\"38\",\"0\",\"Testing\",\"Stims/Figures/111-J-10-3.bmp\",\"papata\",\"Down\",\"40\",\"2\",\"13\",\"4\",\"P\",\"C\",\"37\"
\"\",\"\",\"approach-retreat\",\"186\",\"1253352\",\"0.0-186.0\",\"\",\"\",\"3-5\",\"4893\",\"37\",\"1\",\"Testing\",\"Stims/Figures/86-J-0-1.bmp\",\"ta:ka:ka\",\"Left\",\"37\",\"2\",\"14\",\"4\",\"P\",\"C\",\"38\"
\"\",\"\",\"approach-retreat\",\"187\",\"1259719\",\"0.0-187.0\",\"\",\"\",\"3-5\",\"4841\",\"40\",\"0\",\"Testing\",\"Stims/Figures/7-J-10-4.bmp\",\"paka:ka\",\"Up\",\"38\",\"2\",\"15\",\"4\",\"P\",\"C\",\"39\"
\"\",\"\",\"approach-retreat\",\"188\",\"1265410\",\"0.0-188.0\",\"\",\"\",\"3-5\",\"4164\",\"39\",\"0\",\"Testing\",\"Stims/Figures/102-J-10-4.bmp\",\"ta:kaka\",\"Left\",\"37\",\"2\",\"16\",\"4\",\"P\",\"C\",\"40\"
\"\",\"\",\"approach-retreat\",\"189\",\"1271529\",\"0.0-189.0\",\"\",\"\",\"3-5\",\"4593\",\"39\",\"0\",\"Testing\",\"Stims/Figures/139-C-20-2.bmp\",\"mama:na\",\"Right\",\"37\",\"2\",\"17\",\"4\",\"S\",\"C\",\"41\"
\"\",\"\",\"approach-retreat\",\"190\",\"1279086\",\"0.0-190.0\",\"\",\"\",\"3-5\",\"6030\",\"40\",\"0\",\"Testing\",\"Stims/Figures/100-C-30-3.bmp\",\"na:mana\",\"Down\",\"38\",\"2\",\"18\",\"4\",\"S\",\"C\",\"42\"
\"\",\"\",\"approach-retreat\",\"191\",\"1285616\",\"0.0-191.0\",\"\",\"\",\"3-5\",\"5005\",\"39\",\"1\",\"Testing\",\"Stims/Figures/86-C-30-1.bmp\",\"ma:ma:la\",\"Left\",\"39\",\"2\",\"19\",\"4\",\"S\",\"C\",\"43\"
\"\",\"\",\"approach-retreat\",\"192\",\"1292065\",\"0.0-192.0\",\"\",\"\",\"3-5\",\"4922\",\"40\",\"1\",\"Testing\",\"Stims/Figures/139-J-0-2.bmp\",\"ta:paka\",\"Down\",\"40\",\"2\",\"20\",\"4\",\"P\",\"C\",\"44\"
\"\",\"\",\"approach-retreat\",\"193\",\"1298107\",\"0.0-193.0\",\"\",\"\",\"3-5\",\"4516\",\"40\",\"0\",\"Testing\",\"Stims/Figures/84-J-0-2.bmp\",\"pa:pata\",\"Up\",\"38\",\"2\",\"21\",\"4\",\"P\",\"C\",\"45\"
\"\",\"\",\"approach-retreat\",\"194\",\"1304025\",\"0.0-194.0\",\"\",\"\",\"3-5\",\"4391\",\"39\",\"0\",\"Testing\",\"Stims/Figures/85-J-0-2.bmp\",\"takaka\",\"Left\",\"37\",\"2\",\"22\",\"4\",\"P\",\"C\",\"46\"
\"\",\"\",\"approach-retreat\",\"195\",\"1310135\",\"0.0-195.0\",\"\",\"\",\"3-5\",\"4584\",\"38\",\"1\",\"Testing\",\"Stims/Figures/84-C-20-2.bmp\",\"nama:na\",\"Down\",\"38\",\"2\",\"23\",\"4\",\"S\",\"C\",\"47\"
\"\",\"\",\"approach-retreat\",\"196\",\"1316731\",\"0.0-196.0\",\"\",\"\",\"3-5\",\"5069\",\"39\",\"0\",\"Testing\",\"Stims/Figures/7-C-20-4.bmp\",\"nala:la\",\"Right\",\"37\",\"2\",\"24\",\"4\",\"S\",\"C\",\"48\"
\"\",\"\",\"approach-retreat\",\"197\",\"1323339\",\"0.0-197.0\",\"\",\"\",\"3-5\",\"5081\",\"38\",\"1\",\"Testing\",\"Stims/Figures/57-J-0-1.bmp\",\"tapa:ta\",\"Up\",\"38\",\"3\",\"1\",\"4\",\"P\",\"C\",\"49\"
\"\",\"\",\"approach-retreat\",\"198\",\"1329605\",\"0.0-198.0\",\"\",\"\",\"3-5\",\"4741\",\"40\",\"1\",\"Testing\",\"Stims/Figures/74-J-10-4.bmp\",\"papa:ta\",\"Down\",\"40\",\"3\",\"2\",\"4\",\"P\",\"C\",\"50\"
\"\",\"\",\"approach-retreat\",\"199\",\"1336074\",\"0.0-199.0\",\"\",\"\",\"3-5\",\"4942\",\"40\",\"1\",\"Testing\",\"Stims/Figures/102-C-20-4.bmp\",\"mala:na\",\"Up\",\"40\",\"3\",\"3\",\"4\",\"S\",\"C\",\"51\"
\"\",\"\",\"approach-retreat\",\"200\",\"1342138\",\"0.0-200.0\",\"\",\"\",\"3-5\",\"4546\",\"39\",\"0\",\"Testing\",\"Stims/Figures/85-J-0-2.bmp\",\"takaka\",\"Left\",\"37\",\"3\",\"4\",\"4\",\"P\",\"C\",\"52\"
\"\",\"\",\"approach-retreat\",\"201\",\"1348230\",\"0.0-201.0\",\"\",\"\",\"3-5\",\"4564\",\"39\",\"0\",\"Testing\",\"Stims/Figures/7-C-20-4.bmp\",\"nala:la\",\"Right\",\"37\",\"3\",\"5\",\"4\",\"S\",\"C\",\"53\"
\"\",\"\",\"approach-retreat\",\"202\",\"1354316\",\"0.0-202.0\",\"\",\"\",\"3-5\",\"4561\",\"39\",\"1\",\"Testing\",\"Stims/Figures/139-J-0-2.bmp\",\"ta:paka\",\"Right\",\"39\",\"3\",\"6\",\"4\",\"P\",\"C\",\"54\"
\"\",\"\",\"approach-retreat\",\"203\",\"1360485\",\"0.0-203.0\",\"\",\"\",\"3-5\",\"4642\",\"38\",\"0\",\"Testing\",\"Stims/Figures/144-C-30-3.bmp\",\"malana\",\"Up\",\"40\",\"3\",\"7\",\"4\",\"S\",\"C\",\"55\"
\"\",\"\",\"approach-retreat\",\"204\",\"1366230\",\"0.0-204.0\",\"\",\"\",\"3-5\",\"4218\",\"38\",\"1\",\"Testing\",\"Stims/Figures/86-J-0-1.bmp\",\"ta:ka:ka\",\"Up\",\"38\",\"3\",\"8\",\"4\",\"P\",\"C\",\"56\"
\"\",\"\",\"approach-retreat\",\"205\",\"1372138\",\"0.0-205.0\",\"\",\"\",\"3-5\",\"4383\",\"39\",\"1\",\"Testing\",\"Stims/Figures/86-C-30-1.bmp\",\"ma:ma:la\",\"Left\",\"39\",\"3\",\"9\",\"4\",\"S\",\"C\",\"57\"
\"\",\"\",\"approach-retreat\",\"206\",\"1378156\",\"0.0-206.0\",\"\",\"\",\"3-5\",\"4491\",\"40\",\"1\",\"Testing\",\"Stims/Figures/71-C-30-1.bmp\",\"namana\",\"Up\",\"40\",\"3\",\"10\",\"4\",\"S\",\"C\",\"58\"
\"\",\"\",\"approach-retreat\",\"207\",\"1384065\",\"0.0-207.0\",\"\",\"\",\"3-5\",\"4383\",\"37\",\"1\",\"Testing\",\"Stims/Figures/144-J-10-3.bmp\",\"papa:ka\",\"Left\",\"37\",\"3\",\"11\",\"4\",\"P\",\"C\",\"59\"
\"\",\"\",\"approach-retreat\",\"208\",\"1390118\",\"0.0-208.0\",\"\",\"\",\"3-5\",\"4526\",\"40\",\"1\",\"Testing\",\"Stims/Figures/7-J-10-4.bmp\",\"paka:ka\",\"Down\",\"40\",\"3\",\"12\",\"4\",\"P\",\"C\",\"60\"
\"\",\"\",\"approach-retreat\",\"209\",\"1395970\",\"0.0-209.0\",\"\",\"\",\"3-5\",\"4323\",\"37\",\"0\",\"Testing\",\"Stims/Figures/74-C-20-4.bmp\",\"na:lana\",\"Left\",\"39\",\"3\",\"13\",\"4\",\"S\",\"C\",\"61\"
\"\",\"\",\"approach-retreat\",\"210\",\"1402887\",\"0.0-210.0\",\"\",\"\",\"3-5\",\"5391\",\"39\",\"0\",\"Testing\",\"Stims/Figures/84-C-20-2.bmp\",\"nama:na\",\"Right\",\"37\",\"3\",\"14\",\"4\",\"S\",\"C\",\"62\"
\"\",\"\",\"approach-retreat\",\"211\",\"1409510\",\"0.0-211.0\",\"\",\"\",\"3-5\",\"5094\",\"37\",\"1\",\"Testing\",\"Stims/Figures/100-C-30-3.bmp\",\"na:mana\",\"Right\",\"37\",\"3\",\"15\",\"4\",\"S\",\"C\",\"63\"
\"\",\"\",\"approach-retreat\",\"212\",\"1415618\",\"0.0-212.0\",\"\",\"\",\"3-5\",\"4581\",\"37\",\"1\",\"Testing\",\"Stims/Figures/71-J-0-1.bmp\",\"pakata\",\"Left\",\"37\",\"3\",\"16\",\"4\",\"P\",\"C\",\"64\"
\"\",\"\",\"approach-retreat\",\"213\",\"1421486\",\"0.0-213.0\",\"\",\"\",\"3-5\",\"4339\",\"39\",\"0\",\"Testing\",\"Stims/Figures/57-C-30-1.bmp\",\"ma:mala\",\"Right\",\"37\",\"3\",\"17\",\"4\",\"S\",\"C\",\"65\"
\"\",\"\",\"approach-retreat\",\"214\",\"1427625\",\"0.0-214.0\",\"\",\"\",\"3-5\",\"4613\",\"37\",\"0\",\"Testing\",\"Stims/Figures/111-J-10-3.bmp\",\"papata\",\"Right\",\"39\",\"3\",\"18\",\"4\",\"P\",\"C\",\"66\"
\"\",\"\",\"approach-retreat\",\"215\",\"1433461\",\"0.0-215.0\",\"\",\"\",\"3-5\",\"4309\",\"38\",\"1\",\"Testing\",\"Stims/Figures/85-C-20-2.bmp\",\"ma:lala\",\"Down\",\"38\",\"3\",\"19\",\"4\",\"S\",\"C\",\"67\"
\"\",\"\",\"approach-retreat\",\"216\",\"1439862\",\"0.0-216.0\",\"\",\"\",\"3-5\",\"4874\",\"38\",\"1\",\"Testing\",\"Stims/Figures/111-C-30-3.bmp\",\"nalala\",\"Down\",\"38\",\"3\",\"20\",\"4\",\"S\",\"C\",\"68\"
\"\",\"\",\"approach-retreat\",\"217\",\"1446288\",\"0.0-217.0\",\"\",\"\",\"3-5\",\"4898\",\"39\",\"0\",\"Testing\",\"Stims/Figures/84-J-0-2.bmp\",\"pa:pata\",\"Left\",\"37\",\"3\",\"21\",\"4\",\"P\",\"C\",\"69\"
\"\",\"\",\"approach-retreat\",\"218\",\"1452556\",\"0.0-218.0\",\"\",\"\",\"3-5\",\"4742\",\"38\",\"0\",\"Testing\",\"Stims/Figures/102-J-10-4.bmp\",\"ta:kaka\",\"Down\",\"40\",\"3\",\"22\",\"4\",\"P\",\"C\",\"70\"
\"\",\"\",\"approach-retreat\",\"219\",\"1459357\",\"0.0-219.0\",\"\",\"\",\"3-5\",\"5273\",\"40\",\"0\",\"Testing\",\"Stims/Figures/139-C-20-2.bmp\",\"mama:na\",\"Down\",\"38\",\"3\",\"23\",\"4\",\"S\",\"C\",\"71\"
\"\",\"\",\"approach-retreat\",\"220\",\"1466053\",\"0.0-220.0\",\"\",\"\",\"3-5\",\"5169\",\"40\",\"0\",\"Testing\",\"Stims/Figures/100-J-10-3.bmp\",\"pa:ka:ka\",\"Up\",\"38\",\"3\",\"24\",\"4\",\"P\",\"C\",\"72\"
\"\",\"\",\"approach-retreat\",\"221\",\"1472944\",\"0.0-221.0\",\"\",\"\",\"3-5\",\"5372\",\"38\",\"0\",\"Testing\",\"Stims/Figures/102-J-10-4.bmp\",\"ta:kaka\",\"Down\",\"40\",\"4\",\"1\",\"4\",\"P\",\"C\",\"73\"
\"\",\"\",\"approach-retreat\",\"222\",\"1481259\",\"0.0-222.0\",\"\",\"\",\"3-5\",\"6788\",\"37\",\"1\",\"Testing\",\"Stims/Figures/100-C-30-3.bmp\",\"na:mana\",\"Right\",\"37\",\"4\",\"2\",\"4\",\"S\",\"C\",\"74\"
\"\",\"\",\"approach-retreat\",\"223\",\"1487340\",\"0.0-223.0\",\"\",\"\",\"3-5\",\"4554\",\"38\",\"0\",\"Testing\",\"Stims/Figures/111-J-10-3.bmp\",\"papata\",\"Down\",\"40\",\"4\",\"3\",\"4\",\"P\",\"C\",\"75\"
\"\",\"\",\"approach-retreat\",\"224\",\"1493061\",\"0.0-224.0\",\"\",\"\",\"3-5\",\"4193\",\"37\",\"0\",\"Testing\",\"Stims/Figures/100-J-10-3.bmp\",\"pa:ka:ka\",\"Right\",\"39\",\"4\",\"4\",\"4\",\"P\",\"C\",\"76\"
\"\",\"\",\"approach-retreat\",\"225\",\"1499555\",\"0.0-225.0\",\"\",\"\",\"3-5\",\"4967\",\"39\",\"0\",\"Testing\",\"Stims/Figures/84-J-0-2.bmp\",\"pa:pata\",\"Left\",\"37\",\"4\",\"5\",\"4\",\"P\",\"C\",\"77\"
\"\",\"\",\"approach-retreat\",\"226\",\"1505733\",\"0.0-226.0\",\"\",\"\",\"3-5\",\"4653\",\"37\",\"1\",\"Testing\",\"Stims/Figures/71-C-30-1.bmp\",\"namana\",\"Right\",\"37\",\"4\",\"6\",\"4\",\"S\",\"C\",\"78\"
\"\",\"\",\"approach-retreat\",\"227\",\"1511888\",\"0.0-227.0\",\"\",\"\",\"3-5\",\"4627\",\"38\",\"1\",\"Testing\",\"Stims/Figures/102-C-20-4.bmp\",\"mala:na\",\"Down\",\"38\",\"4\",\"7\",\"4\",\"S\",\"C\",\"79\"
\"\",\"\",\"approach-retreat\",\"228\",\"1518419\",\"0.0-228.0\",\"\",\"\",\"3-5\",\"5004\",\"38\",\"1\",\"Testing\",\"Stims/Figures/144-C-30-3.bmp\",\"malana\",\"Down\",\"38\",\"4\",\"8\",\"4\",\"S\",\"C\",\"80\"
\"\",\"\",\"approach-retreat\",\"229\",\"1524440\",\"0.0-229.0\",\"\",\"\",\"3-5\",\"4494\",\"37\",\"1\",\"Testing\",\"Stims/Figures/84-C-20-2.bmp\",\"nama:na\",\"Right\",\"37\",\"4\",\"9\",\"4\",\"S\",\"C\",\"81\"
\"\",\"\",\"approach-retreat\",\"230\",\"1530183\",\"0.0-230.0\",\"\",\"\",\"3-5\",\"4218\",\"37\",\"0\",\"Testing\",\"Stims/Figures/71-J-0-1.bmp\",\"pakata\",\"Right\",\"39\",\"4\",\"10\",\"4\",\"P\",\"C\",\"82\"
\"\",\"\",\"approach-retreat\",\"231\",\"1536133\",\"0.0-231.0\",\"\",\"\",\"3-5\",\"4424\",\"37\",\"1\",\"Testing\",\"Stims/Figures/144-J-10-3.bmp\",\"papa:ka\",\"Left\",\"37\",\"4\",\"11\",\"4\",\"P\",\"C\",\"83\"
\"\",\"\",\"approach-retreat\",\"232\",\"1542258\",\"0.0-232.0\",\"\",\"\",\"3-5\",\"4596\",\"38\",\"1\",\"Testing\",\"Stims/Figures/85-C-20-2.bmp\",\"ma:lala\",\"Down\",\"38\",\"4\",\"12\",\"4\",\"S\",\"C\",\"84\"
\"\",\"\",\"approach-retreat\",\"233\",\"1549742\",\"0.0-233.0\",\"\",\"\",\"3-5\",\"5955\",\"39\",\"1\",\"Testing\",\"Stims/Figures/7-C-20-4.bmp\",\"nala:la\",\"Left\",\"39\",\"4\",\"13\",\"4\",\"S\",\"C\",\"85\"
\"\",\"\",\"approach-retreat\",\"234\",\"1556033\",\"0.0-234.0\",\"\",\"\",\"3-5\",\"4761\",\"37\",\"0\",\"Testing\",\"Stims/Figures/74-C-20-4.bmp\",\"na:lana\",\"Left\",\"39\",\"4\",\"14\",\"4\",\"S\",\"C\",\"86\"
\"\",\"\",\"approach-retreat\",\"235\",\"1561912\",\"0.0-235.0\",\"\",\"\",\"3-5\",\"4354\",\"37\",\"1\",\"Testing\",\"Stims/Figures/74-J-10-4.bmp\",\"papa:ta\",\"Left\",\"37\",\"4\",\"15\",\"4\",\"P\",\"C\",\"87\"
\"\",\"\",\"approach-retreat\",\"236\",\"1568247\",\"0.0-236.0\",\"\",\"\",\"3-5\",\"4809\",\"38\",\"1\",\"Testing\",\"Stims/Figures/139-J-0-2.bmp\",\"ta:paka\",\"Up\",\"38\",\"4\",\"16\",\"4\",\"P\",\"C\",\"88\"
\"\",\"\",\"approach-retreat\",\"237\",\"1574215\",\"0.0-237.0\",\"\",\"\",\"3-5\",\"4440\",\"38\",\"0\",\"Testing\",\"Stims/Figures/139-C-20-2.bmp\",\"mama:na\",\"Up\",\"40\",\"4\",\"17\",\"4\",\"S\",\"C\",\"89\"
\"\",\"\",\"approach-retreat\",\"238\",\"1580758\",\"0.0-238.0\",\"\",\"\",\"3-5\",\"5018\",\"38\",\"0\",\"Testing\",\"Stims/Figures/57-C-30-1.bmp\",\"ma:mala\",\"Up\",\"40\",\"4\",\"18\",\"4\",\"S\",\"C\",\"90\"
\"\",\"\",\"approach-retreat\",\"239\",\"1587429\",\"0.0-239.0\",\"\",\"\",\"3-5\",\"5144\",\"40\",\"0\",\"Testing\",\"Stims/Figures/7-J-10-4.bmp\",\"paka:ka\",\"Up\",\"38\",\"4\",\"19\",\"4\",\"P\",\"C\",\"91\"
\"\",\"\",\"approach-retreat\",\"240\",\"1593655\",\"0.0-240.0\",\"\",\"\",\"3-5\",\"4698\",\"38\",\"1\",\"Testing\",\"Stims/Figures/86-J-0-1.bmp\",\"ta:ka:ka\",\"Up\",\"38\",\"4\",\"20\",\"4\",\"P\",\"C\",\"92\"
\"\",\"\",\"approach-retreat\",\"241\",\"1599999\",\"0.0-241.0\",\"\",\"\",\"3-5\",\"4819\",\"38\",\"1\",\"Testing\",\"Stims/Figures/111-C-30-3.bmp\",\"nalala\",\"Down\",\"38\",\"4\",\"21\",\"4\",\"S\",\"C\",\"93\"
\"\",\"\",\"approach-retreat\",\"242\",\"1606089\",\"0.0-242.0\",\"\",\"\",\"3-5\",\"4563\",\"37\",\"0\",\"Testing\",\"Stims/Figures/85-J-0-2.bmp\",\"takaka\",\"Right\",\"39\",\"4\",\"22\",\"4\",\"P\",\"C\",\"94\"
\"\",\"\",\"approach-retreat\",\"243\",\"1611755\",\"0.0-243.0\",\"\",\"\",\"3-5\",\"4137\",\"40\",\"1\",\"Testing\",\"Stims/Figures/86-C-30-1.bmp\",\"ma:ma:la\",\"Up\",\"40\",\"4\",\"23\",\"4\",\"S\",\"C\",\"95\"
\"\",\"\",\"approach-retreat\",\"244\",\"1617729\",\"0.0-244.0\",\"\",\"\",\"3-5\",\"4448\",\"37\",\"1\",\"Testing\",\"Stims/Figures/57-J-0-1.bmp\",\"tapa:ta\",\"Left\",\"37\",\"4\",\"24\",\"4\",\"P\",\"C\",\"96\"
\"14676\",\"\",\"survey-text\",\"245\",\"1632425\",\"0.0-245.0\",\"\",\"{\"\"Q0\"\":\"\"PS170064\"\"}\",\"\",\"\",\"\",\"\",\"\",\"\",\"\",\"\",\"\",\"\",\"\",\"\",\"\",\"\",\"\"
