\"rt\",\"key_press\",\"trial_type\",\"trial_index\",\"time_elapsed\",\"internal_node_id\",\"view_history\",\"responses\",\"Id\",\"Rt\",\"ResKeyCode\",\"ResCorr\",\"TrialType2\",\"Image\",\"Label\",\"Location\",\"CorrectResponse\",\"Block\",\"BlockTrial\",\"Condition\",\"LabelType\",\"Subcondition\",\"trialNum\"
\"13462\",\"32\",\"text\",\"0\",\"13465\",\"0.0-0.0-0.0\",\"\",\"\",\"\",\"\",\"\",\"\",\"\",\"\",\"\",\"\",\"\",\"\",\"\",\"\",\"\",\"\",\"\"
\"93662\",\"\",\"instructions\",\"1\",\"107127\",\"0.0-1.0\",\"[{\"\"page_index\"\":0,\"\"viewing_time\"\":93662}]\",\"\",\"\",\"\",\"\",\"\",\"\",\"\",\"\",\"\",\"\",\"\",\"\",\"\",\"\",\"\",\"\"
\"44468\",\"\",\"survey-multi-choice\",\"2\",\"151631\",\"0.0-2.0\",\"\",\"{\"\"Q0\"\":\"\"Da\"\",\"\"Q1\"\":\"\"Da\"\",\"\"Q2\"\":\"\"Da\"\",\"\"Q3\"\":\"\"Da\"\",\"\"Q4\"\":\"\"Da\"\",\"\"Q5\"\":\"\"Da\"\"}\",\"\",\"\",\"\",\"\",\"\",\"\",\"\",\"\",\"\",\"\",\"\",\"\",\"\",\"\",\"\"
\"\",\"\",\"bio\",\"3\",\"157995\",\"0.0-3.0\",\"\",\"{\"\"age\"\":\"\"22\"\",\"\"gender\"\":\"\"f\"\",\"\"specify\"\":\"\"\"\"}\",\"\",\"\",\"\",\"\",\"\",\"\",\"\",\"\",\"\",\"\",\"\",\"\",\"\",\"\",\"\"
\"\",\"\",\"approach-retreat\",\"4\",\"172845\",\"0.0-4.0\",\"\",\"\",\"1-4\",\"13343\",\"39\",\"0\",\"Training\",\"Stims/Figures/74-C-20-4.bmp\",\"va:fa:va\",\"Left\",\"37\",\"1\",\"1\",\"6B\",\"C1\",\"J\",\"1\"
\"\",\"\",\"approach-retreat\",\"5\",\"182235\",\"0.0-5.0\",\"\",\"\",\"1-4\",\"7886\",\"38\",\"0\",\"Training\",\"Stims/Figures/44-C-30-3.bmp\",\"fafa:va\",\"Down\",\"40\",\"1\",\"2\",\"6B\",\"C1\",\"J\",\"2\"
\"\",\"\",\"approach-retreat\",\"6\",\"190788\",\"0.0-6.0\",\"\",\"\",\"1-4\",\"7048\",\"37\",\"0\",\"Training\",\"Stims/Figures/44-J-10-3.bmp\",\"saha:ha\",\"Left\",\"39\",\"1\",\"3\",\"6B\",\"C2\",\"J\",\"3\"
\"\",\"\",\"approach-retreat\",\"7\",\"200571\",\"0.0-7.0\",\"\",\"\",\"1-4\",\"8278\",\"39\",\"0\",\"Training\",\"Stims/Figures/84-C-20-2.bmp\",\"vafa:sha\",\"Left\",\"37\",\"1\",\"4\",\"6B\",\"C1\",\"J\",\"4\"
\"\",\"\",\"approach-retreat\",\"8\",\"220588\",\"0.0-8.0\",\"\",\"\",\"1-4\",\"18512\",\"37\",\"0\",\"Training\",\"Stims/Figures/118-C-20-2.bmp\",\"fa:fa:va\",\"Right\",\"39\",\"1\",\"5\",\"6B\",\"C1\",\"J\",\"5\"
\"\",\"\",\"approach-retreat\",\"9\",\"232773\",\"0.0-9.0\",\"\",\"\",\"1-4\",\"10679\",\"40\",\"0\",\"Training\",\"Stims/Figures/27-C-30-1.bmp\",\"vafa:va\",\"Up\",\"38\",\"1\",\"6\",\"6B\",\"C1\",\"J\",\"6\"
\"\",\"\",\"approach-retreat\",\"10\",\"242351\",\"0.0-10.0\",\"\",\"\",\"1-4\",\"8063\",\"37\",\"1\",\"Training\",\"Stims/Figures/19-J-10-4.bmp\",\"saha:za\",\"Right\",\"37\",\"1\",\"7\",\"6B\",\"C2\",\"J\",\"7\"
\"\",\"\",\"approach-retreat\",\"11\",\"253325\",\"0.0-11.0\",\"\",\"\",\"1-4\",\"9467\",\"37\",\"1\",\"Training\",\"Stims/Figures/84-J-0-2.bmp\",\"zasa:za\",\"Right\",\"37\",\"1\",\"8\",\"6B\",\"C2\",\"J\",\"8\"
\"\",\"\",\"approach-retreat\",\"12\",\"260027\",\"0.0-12.0\",\"\",\"\",\"1-4\",\"5197\",\"38\",\"1\",\"Training\",\"Stims/Figures/27-J-0-1.bmp\",\"sa:ha:za\",\"Down\",\"38\",\"1\",\"9\",\"6B\",\"C2\",\"J\",\"9\"
\"\",\"\",\"approach-retreat\",\"13\",\"266809\",\"0.0-13.0\",\"\",\"\",\"1-4\",\"5256\",\"39\",\"1\",\"Training\",\"Stims/Figures/74-J-10-4.bmp\",\"zahaha\",\"Left\",\"39\",\"1\",\"10\",\"6B\",\"C2\",\"J\",\"10\"
\"\",\"\",\"approach-retreat\",\"14\",\"287429\",\"0.0-14.0\",\"\",\"\",\"1-4\",\"19113\",\"40\",\"1\",\"Training\",\"Stims/Figures/118-J-0-2.bmp\",\"za:ha:ha\",\"Up\",\"40\",\"1\",\"11\",\"6B\",\"C2\",\"J\",\"11\"
\"\",\"\",\"approach-retreat\",\"15\",\"300155\",\"0.0-15.0\",\"\",\"\",\"1-4\",\"11219\",\"40\",\"0\",\"Training\",\"Stims/Figures/57-C-30-1.bmp\",\"fa:sha:va\",\"Up\",\"38\",\"1\",\"12\",\"6B\",\"C1\",\"J\",\"12\"
\"\",\"\",\"approach-retreat\",\"16\",\"311339\",\"0.0-16.0\",\"\",\"\",\"1-4\",\"9680\",\"40\",\"1\",\"Training\",\"Stims/Figures/128-J-10-3.bmp\",\"sa:ha:ha\",\"Up\",\"40\",\"1\",\"13\",\"6B\",\"C2\",\"J\",\"13\"
\"\",\"\",\"approach-retreat\",\"17\",\"319114\",\"0.0-17.0\",\"\",\"\",\"1-4\",\"6239\",\"38\",\"0\",\"Training\",\"Stims/Figures/128-C-30-3.bmp\",\"fa:shasha\",\"Down\",\"40\",\"1\",\"14\",\"6B\",\"C1\",\"J\",\"14\"
\"\",\"\",\"approach-retreat\",\"18\",\"326171\",\"0.0-18.0\",\"\",\"\",\"1-4\",\"5553\",\"38\",\"1\",\"Training\",\"Stims/Figures/57-J-0-1.bmp\",\"zasa:ha\",\"Down\",\"38\",\"1\",\"15\",\"6B\",\"C2\",\"J\",\"15\"
\"\",\"\",\"approach-retreat\",\"19\",\"334018\",\"0.0-19.0\",\"\",\"\",\"1-4\",\"6343\",\"37\",\"0\",\"Training\",\"Stims/Figures/19-C-20-4.bmp\",\"va:sha:sha\",\"Right\",\"39\",\"1\",\"16\",\"6B\",\"C1\",\"J\",\"16\"
\"\",\"\",\"approach-retreat\",\"20\",\"341482\",\"0.0-20.0\",\"\",\"\",\"1-4\",\"5960\",\"38\",\"1\",\"Training\",\"Stims/Figures/84-J-0-2.bmp\",\"zasa:za\",\"Down\",\"38\",\"2\",\"1\",\"6B\",\"C2\",\"J\",\"17\"
\"\",\"\",\"approach-retreat\",\"21\",\"347522\",\"0.0-21.0\",\"\",\"\",\"1-4\",\"4536\",\"38\",\"0\",\"Training\",\"Stims/Figures/27-C-30-1.bmp\",\"vafa:va\",\"Down\",\"40\",\"2\",\"2\",\"6B\",\"C1\",\"J\",\"18\"
\"\",\"\",\"approach-retreat\",\"22\",\"353526\",\"0.0-22.0\",\"\",\"\",\"1-4\",\"4491\",\"39\",\"0\",\"Training\",\"Stims/Figures/19-C-20-4.bmp\",\"va:sha:sha\",\"Left\",\"37\",\"2\",\"3\",\"6B\",\"C1\",\"J\",\"19\"
\"\",\"\",\"approach-retreat\",\"23\",\"359618\",\"0.0-23.0\",\"\",\"\",\"1-4\",\"4585\",\"39\",\"0\",\"Training\",\"Stims/Figures/84-C-20-2.bmp\",\"vafa:sha\",\"Left\",\"37\",\"2\",\"4\",\"6B\",\"C1\",\"J\",\"20\"
\"\",\"\",\"approach-retreat\",\"24\",\"366011\",\"0.0-24.0\",\"\",\"\",\"1-4\",\"4889\",\"40\",\"1\",\"Training\",\"Stims/Figures/44-C-30-3.bmp\",\"fafa:va\",\"Down\",\"40\",\"2\",\"5\",\"6B\",\"C1\",\"J\",\"21\"
\"\",\"\",\"approach-retreat\",\"25\",\"372466\",\"0.0-25.0\",\"\",\"\",\"1-4\",\"4952\",\"39\",\"0\",\"Training\",\"Stims/Figures/19-J-10-4.bmp\",\"saha:za\",\"Right\",\"37\",\"2\",\"6\",\"6B\",\"C2\",\"J\",\"22\"
\"\",\"\",\"approach-retreat\",\"26\",\"380891\",\"0.0-26.0\",\"\",\"\",\"1-4\",\"6921\",\"39\",\"0\",\"Training\",\"Stims/Figures/128-J-10-3.bmp\",\"sa:ha:ha\",\"Right\",\"37\",\"2\",\"7\",\"6B\",\"C2\",\"J\",\"23\"
\"\",\"\",\"approach-retreat\",\"27\",\"386628\",\"0.0-27.0\",\"\",\"\",\"1-4\",\"4214\",\"38\",\"1\",\"Training\",\"Stims/Figures/118-J-0-2.bmp\",\"za:ha:ha\",\"Down\",\"38\",\"2\",\"8\",\"6B\",\"C2\",\"J\",\"24\"
\"\",\"\",\"approach-retreat\",\"28\",\"396316\",\"0.0-28.0\",\"\",\"\",\"1-4\",\"8184\",\"37\",\"1\",\"Training\",\"Stims/Figures/118-C-20-2.bmp\",\"fa:fa:va\",\"Left\",\"37\",\"2\",\"9\",\"6B\",\"C1\",\"J\",\"25\"
\"\",\"\",\"approach-retreat\",\"29\",\"405579\",\"0.0-29.0\",\"\",\"\",\"1-4\",\"7733\",\"38\",\"1\",\"Training\",\"Stims/Figures/74-C-20-4.bmp\",\"va:fa:va\",\"Up\",\"38\",\"2\",\"10\",\"6B\",\"C1\",\"J\",\"26\"
\"\",\"\",\"approach-retreat\",\"30\",\"414604\",\"0.0-30.0\",\"\",\"\",\"1-4\",\"7515\",\"38\",\"0\",\"Training\",\"Stims/Figures/27-J-0-1.bmp\",\"sa:ha:za\",\"Up\",\"40\",\"2\",\"11\",\"6B\",\"C2\",\"J\",\"27\"
\"\",\"\",\"approach-retreat\",\"31\",\"423955\",\"0.0-31.0\",\"\",\"\",\"1-4\",\"7843\",\"39\",\"0\",\"Training\",\"Stims/Figures/57-J-0-1.bmp\",\"zasa:ha\",\"Right\",\"37\",\"2\",\"12\",\"6B\",\"C2\",\"J\",\"28\"
\"\",\"\",\"approach-retreat\",\"32\",\"430127\",\"0.0-32.0\",\"\",\"\",\"1-4\",\"4663\",\"38\",\"1\",\"Training\",\"Stims/Figures/128-C-30-3.bmp\",\"fa:shasha\",\"Up\",\"38\",\"2\",\"13\",\"6B\",\"C1\",\"J\",\"29\"
\"\",\"\",\"approach-retreat\",\"33\",\"443195\",\"0.0-33.0\",\"\",\"\",\"1-4\",\"11560\",\"40\",\"0\",\"Training\",\"Stims/Figures/57-C-30-1.bmp\",\"fa:sha:va\",\"Up\",\"38\",\"2\",\"14\",\"6B\",\"C1\",\"J\",\"30\"
\"\",\"\",\"approach-retreat\",\"34\",\"451249\",\"0.0-34.0\",\"\",\"\",\"1-4\",\"6551\",\"37\",\"0\",\"Training\",\"Stims/Figures/44-J-10-3.bmp\",\"saha:ha\",\"Left\",\"39\",\"2\",\"15\",\"6B\",\"C2\",\"J\",\"31\"
\"\",\"\",\"approach-retreat\",\"35\",\"462122\",\"0.0-35.0\",\"\",\"\",\"1-4\",\"9369\",\"39\",\"0\",\"Training\",\"Stims/Figures/74-J-10-4.bmp\",\"zahaha\",\"Right\",\"37\",\"2\",\"16\",\"6B\",\"C2\",\"J\",\"32\"
\"\",\"\",\"approach-retreat\",\"36\",\"471161\",\"0.0-36.0\",\"\",\"\",\"1-4\",\"7536\",\"38\",\"1\",\"Training\",\"Stims/Figures/27-J-0-1.bmp\",\"sa:ha:za\",\"Down\",\"38\",\"3\",\"1\",\"6B\",\"C2\",\"J\",\"33\"
\"\",\"\",\"approach-retreat\",\"37\",\"477386\",\"0.0-37.0\",\"\",\"\",\"1-4\",\"4719\",\"39\",\"0\",\"Training\",\"Stims/Figures/19-J-10-4.bmp\",\"saha:za\",\"Right\",\"37\",\"3\",\"2\",\"6B\",\"C2\",\"J\",\"34\"
\"\",\"\",\"approach-retreat\",\"38\",\"485827\",\"0.0-38.0\",\"\",\"\",\"1-4\",\"6912\",\"37\",\"1\",\"Training\",\"Stims/Figures/27-C-30-1.bmp\",\"vafa:va\",\"Left\",\"37\",\"3\",\"3\",\"6B\",\"C1\",\"J\",\"35\"
\"\",\"\",\"approach-retreat\",\"39\",\"495153\",\"0.0-39.0\",\"\",\"\",\"1-4\",\"7819\",\"38\",\"1\",\"Training\",\"Stims/Figures/118-C-20-2.bmp\",\"fa:fa:va\",\"Up\",\"38\",\"3\",\"4\",\"6B\",\"C1\",\"J\",\"36\"
\"\",\"\",\"approach-retreat\",\"40\",\"502961\",\"0.0-40.0\",\"\",\"\",\"1-4\",\"6303\",\"37\",\"0\",\"Training\",\"Stims/Figures/57-C-30-1.bmp\",\"fa:sha:va\",\"Right\",\"39\",\"3\",\"5\",\"6B\",\"C1\",\"J\",\"37\"
\"\",\"\",\"approach-retreat\",\"41\",\"510722\",\"0.0-41.0\",\"\",\"\",\"1-4\",\"6257\",\"40\",\"1\",\"Training\",\"Stims/Figures/128-J-10-3.bmp\",\"sa:ha:ha\",\"Up\",\"40\",\"3\",\"6\",\"6B\",\"C2\",\"J\",\"38\"
\"\",\"\",\"approach-retreat\",\"42\",\"518809\",\"0.0-42.0\",\"\",\"\",\"1-4\",\"6583\",\"37\",\"1\",\"Training\",\"Stims/Figures/19-C-20-4.bmp\",\"va:sha:sha\",\"Left\",\"37\",\"3\",\"7\",\"6B\",\"C1\",\"J\",\"39\"
\"\",\"\",\"approach-retreat\",\"43\",\"527366\",\"0.0-43.0\",\"\",\"\",\"1-4\",\"7047\",\"40\",\"1\",\"Training\",\"Stims/Figures/84-C-20-2.bmp\",\"vafa:sha\",\"Down\",\"40\",\"3\",\"8\",\"6B\",\"C1\",\"J\",\"40\"
\"\",\"\",\"approach-retreat\",\"44\",\"534703\",\"0.0-44.0\",\"\",\"\",\"1-4\",\"5832\",\"38\",\"1\",\"Training\",\"Stims/Figures/128-C-30-3.bmp\",\"fa:shasha\",\"Up\",\"38\",\"3\",\"9\",\"6B\",\"C1\",\"J\",\"41\"
\"\",\"\",\"approach-retreat\",\"45\",\"541537\",\"0.0-45.0\",\"\",\"\",\"1-4\",\"5330\",\"38\",\"1\",\"Training\",\"Stims/Figures/44-C-30-3.bmp\",\"fafa:va\",\"Up\",\"38\",\"3\",\"10\",\"6B\",\"C1\",\"J\",\"42\"
\"\",\"\",\"approach-retreat\",\"46\",\"553850\",\"0.0-46.0\",\"\",\"\",\"1-4\",\"10809\",\"39\",\"0\",\"Training\",\"Stims/Figures/57-J-0-1.bmp\",\"zasa:ha\",\"Right\",\"37\",\"3\",\"11\",\"6B\",\"C2\",\"J\",\"43\"
\"\",\"\",\"approach-retreat\",\"47\",\"560503\",\"0.0-47.0\",\"\",\"\",\"1-4\",\"5151\",\"38\",\"1\",\"Training\",\"Stims/Figures/44-J-10-3.bmp\",\"saha:ha\",\"Down\",\"38\",\"3\",\"12\",\"6B\",\"C2\",\"J\",\"44\"
\"\",\"\",\"approach-retreat\",\"48\",\"566457\",\"0.0-48.0\",\"\",\"\",\"1-4\",\"4448\",\"39\",\"0\",\"Training\",\"Stims/Figures/74-J-10-4.bmp\",\"zahaha\",\"Right\",\"37\",\"3\",\"13\",\"6B\",\"C2\",\"J\",\"45\"
\"\",\"\",\"approach-retreat\",\"49\",\"574303\",\"0.0-49.0\",\"\",\"\",\"1-4\",\"6335\",\"40\",\"0\",\"Training\",\"Stims/Figures/118-J-0-2.bmp\",\"za:ha:ha\",\"Down\",\"38\",\"3\",\"14\",\"6B\",\"C2\",\"J\",\"46\"
\"\",\"\",\"approach-retreat\",\"50\",\"581216\",\"0.0-50.0\",\"\",\"\",\"1-4\",\"5406\",\"39\",\"1\",\"Training\",\"Stims/Figures/84-J-0-2.bmp\",\"zasa:za\",\"Left\",\"39\",\"3\",\"15\",\"6B\",\"C2\",\"J\",\"47\"
\"\",\"\",\"approach-retreat\",\"51\",\"592353\",\"0.0-51.0\",\"\",\"\",\"1-4\",\"9631\",\"37\",\"1\",\"Training\",\"Stims/Figures/74-C-20-4.bmp\",\"va:fa:va\",\"Left\",\"37\",\"3\",\"16\",\"6B\",\"C1\",\"J\",\"48\"
\"\",\"\",\"approach-retreat\",\"52\",\"607237\",\"0.0-52.0\",\"\",\"\",\"1-4\",\"13347\",\"38\",\"0\",\"Training\",\"Stims/Figures/84-C-20-2.bmp\",\"vafa:sha\",\"Down\",\"40\",\"4\",\"1\",\"6B\",\"C1\",\"J\",\"49\"
\"\",\"\",\"approach-retreat\",\"53\",\"617969\",\"0.0-53.0\",\"\",\"\",\"1-4\",\"9226\",\"38\",\"1\",\"Training\",\"Stims/Figures/118-J-0-2.bmp\",\"za:ha:ha\",\"Down\",\"38\",\"4\",\"2\",\"6B\",\"C2\",\"J\",\"50\"
\"\",\"\",\"approach-retreat\",\"54\",\"627200\",\"0.0-54.0\",\"\",\"\",\"1-4\",\"7727\",\"38\",\"0\",\"Training\",\"Stims/Figures/128-J-10-3.bmp\",\"sa:ha:ha\",\"Up\",\"40\",\"4\",\"3\",\"6B\",\"C2\",\"J\",\"51\"
\"\",\"\",\"approach-retreat\",\"55\",\"633232\",\"0.0-55.0\",\"\",\"\",\"1-4\",\"4528\",\"39\",\"0\",\"Training\",\"Stims/Figures/74-C-20-4.bmp\",\"va:fa:va\",\"Left\",\"37\",\"4\",\"4\",\"6B\",\"C1\",\"J\",\"52\"
\"\",\"\",\"approach-retreat\",\"56\",\"647111\",\"0.0-56.0\",\"\",\"\",\"1-4\",\"12344\",\"39\",\"1\",\"Training\",\"Stims/Figures/44-J-10-3.bmp\",\"saha:ha\",\"Left\",\"39\",\"4\",\"5\",\"6B\",\"C2\",\"J\",\"53\"
\"\",\"\",\"approach-retreat\",\"57\",\"652745\",\"0.0-57.0\",\"\",\"\",\"1-4\",\"4127\",\"38\",\"0\",\"Training\",\"Stims/Figures/118-C-20-2.bmp\",\"fa:fa:va\",\"Down\",\"40\",\"4\",\"6\",\"6B\",\"C1\",\"J\",\"54\"
\"\",\"\",\"approach-retreat\",\"58\",\"669417\",\"0.0-58.0\",\"\",\"\",\"1-4\",\"15168\",\"37\",\"1\",\"Training\",\"Stims/Figures/27-C-30-1.bmp\",\"vafa:va\",\"Left\",\"37\",\"4\",\"7\",\"6B\",\"C1\",\"J\",\"55\"
\"\",\"\",\"approach-retreat\",\"59\",\"676864\",\"0.0-59.0\",\"\",\"\",\"1-4\",\"5944\",\"40\",\"1\",\"Training\",\"Stims/Figures/44-C-30-3.bmp\",\"fafa:va\",\"Down\",\"40\",\"4\",\"8\",\"6B\",\"C1\",\"J\",\"56\"
\"\",\"\",\"approach-retreat\",\"60\",\"684932\",\"0.0-60.0\",\"\",\"\",\"1-4\",\"6536\",\"39\",\"0\",\"Training\",\"Stims/Figures/19-J-10-4.bmp\",\"saha:za\",\"Right\",\"37\",\"4\",\"9\",\"6B\",\"C2\",\"J\",\"57\"
\"\",\"\",\"approach-retreat\",\"61\",\"691775\",\"0.0-61.0\",\"\",\"\",\"1-4\",\"5338\",\"37\",\"1\",\"Training\",\"Stims/Figures/74-J-10-4.bmp\",\"zahaha\",\"Right\",\"37\",\"4\",\"10\",\"6B\",\"C2\",\"J\",\"58\"
\"\",\"\",\"approach-retreat\",\"62\",\"698120\",\"0.0-62.0\",\"\",\"\",\"1-4\",\"4840\",\"40\",\"1\",\"Training\",\"Stims/Figures/84-J-0-2.bmp\",\"zasa:za\",\"Up\",\"40\",\"4\",\"11\",\"6B\",\"C2\",\"J\",\"59\"
\"\",\"\",\"approach-retreat\",\"63\",\"705175\",\"0.0-63.0\",\"\",\"\",\"1-4\",\"5552\",\"37\",\"1\",\"Training\",\"Stims/Figures/27-J-0-1.bmp\",\"sa:ha:za\",\"Right\",\"37\",\"4\",\"12\",\"6B\",\"C2\",\"J\",\"60\"
\"\",\"\",\"approach-retreat\",\"64\",\"712120\",\"0.0-64.0\",\"\",\"\",\"1-4\",\"5440\",\"38\",\"1\",\"Training\",\"Stims/Figures/57-C-30-1.bmp\",\"fa:sha:va\",\"Up\",\"38\",\"4\",\"13\",\"6B\",\"C1\",\"J\",\"61\"
\"\",\"\",\"approach-retreat\",\"65\",\"720201\",\"0.0-65.0\",\"\",\"\",\"1-4\",\"6577\",\"37\",\"1\",\"Training\",\"Stims/Figures/128-C-30-3.bmp\",\"fa:shasha\",\"Left\",\"37\",\"4\",\"14\",\"6B\",\"C1\",\"J\",\"62\"
\"\",\"\",\"approach-retreat\",\"66\",\"727711\",\"0.0-66.0\",\"\",\"\",\"1-4\",\"6008\",\"40\",\"1\",\"Training\",\"Stims/Figures/57-J-0-1.bmp\",\"zasa:ha\",\"Up\",\"40\",\"4\",\"15\",\"6B\",\"C2\",\"J\",\"63\"
\"\",\"\",\"approach-retreat\",\"67\",\"737319\",\"0.0-67.0\",\"\",\"\",\"1-4\",\"8103\",\"39\",\"1\",\"Training\",\"Stims/Figures/19-C-20-4.bmp\",\"va:sha:sha\",\"Right\",\"39\",\"4\",\"16\",\"6B\",\"C1\",\"J\",\"64\"
\"\",\"\",\"approach-retreat\",\"68\",\"744440\",\"0.0-68.0\",\"\",\"\",\"1-4\",\"5616\",\"39\",\"1\",\"Training\",\"Stims/Figures/118-C-20-2.bmp\",\"fa:fa:va\",\"Right\",\"39\",\"5\",\"1\",\"6B\",\"C1\",\"J\",\"65\"
\"\",\"\",\"approach-retreat\",\"69\",\"755928\",\"0.0-69.0\",\"\",\"\",\"1-4\",\"9984\",\"37\",\"1\",\"Training\",\"Stims/Figures/19-J-10-4.bmp\",\"saha:za\",\"Right\",\"37\",\"5\",\"2\",\"6B\",\"C2\",\"J\",\"66\"
\"\",\"\",\"approach-retreat\",\"70\",\"762759\",\"0.0-70.0\",\"\",\"\",\"1-4\",\"5327\",\"37\",\"1\",\"Training\",\"Stims/Figures/128-C-30-3.bmp\",\"fa:shasha\",\"Left\",\"37\",\"5\",\"3\",\"6B\",\"C1\",\"J\",\"67\"
\"\",\"\",\"approach-retreat\",\"71\",\"769001\",\"0.0-71.0\",\"\",\"\",\"1-4\",\"4737\",\"37\",\"1\",\"Training\",\"Stims/Figures/74-J-10-4.bmp\",\"zahaha\",\"Right\",\"37\",\"5\",\"4\",\"6B\",\"C2\",\"J\",\"68\"
\"\",\"\",\"approach-retreat\",\"72\",\"775270\",\"0.0-72.0\",\"\",\"\",\"1-4\",\"4746\",\"37\",\"1\",\"Training\",\"Stims/Figures/57-C-30-1.bmp\",\"fa:sha:va\",\"Left\",\"37\",\"5\",\"5\",\"6B\",\"C1\",\"J\",\"69\"
\"\",\"\",\"approach-retreat\",\"73\",\"790823\",\"0.0-73.0\",\"\",\"\",\"1-4\",\"14049\",\"39\",\"1\",\"Training\",\"Stims/Figures/19-C-20-4.bmp\",\"va:sha:sha\",\"Right\",\"39\",\"5\",\"6\",\"6B\",\"C1\",\"J\",\"70\"
\"\",\"\",\"approach-retreat\",\"74\",\"797942\",\"0.0-74.0\",\"\",\"\",\"1-4\",\"5616\",\"38\",\"1\",\"Training\",\"Stims/Figures/44-J-10-3.bmp\",\"saha:ha\",\"Down\",\"38\",\"5\",\"7\",\"6B\",\"C2\",\"J\",\"71\"
\"\",\"\",\"approach-retreat\",\"75\",\"804482\",\"0.0-75.0\",\"\",\"\",\"1-4\",\"5008\",\"37\",\"1\",\"Training\",\"Stims/Figures/27-C-30-1.bmp\",\"vafa:va\",\"Left\",\"37\",\"5\",\"8\",\"6B\",\"C1\",\"J\",\"72\"
\"\",\"\",\"approach-retreat\",\"76\",\"813215\",\"0.0-76.0\",\"\",\"\",\"1-4\",\"7224\",\"40\",\"1\",\"Training\",\"Stims/Figures/57-J-0-1.bmp\",\"zasa:ha\",\"Up\",\"40\",\"5\",\"9\",\"6B\",\"C2\",\"J\",\"73\"
\"\",\"\",\"approach-retreat\",\"77\",\"820896\",\"0.0-77.0\",\"\",\"\",\"1-4\",\"6177\",\"39\",\"1\",\"Training\",\"Stims/Figures/27-J-0-1.bmp\",\"sa:ha:za\",\"Left\",\"39\",\"5\",\"10\",\"6B\",\"C2\",\"J\",\"74\"
\"\",\"\",\"approach-retreat\",\"78\",\"835774\",\"0.0-78.0\",\"\",\"\",\"1-4\",\"13376\",\"40\",\"1\",\"Training\",\"Stims/Figures/44-C-30-3.bmp\",\"fafa:va\",\"Down\",\"40\",\"5\",\"11\",\"6B\",\"C1\",\"J\",\"75\"
\"\",\"\",\"approach-retreat\",\"79\",\"841702\",\"0.0-79.0\",\"\",\"\",\"1-4\",\"4418\",\"40\",\"1\",\"Training\",\"Stims/Figures/84-C-20-2.bmp\",\"vafa:sha\",\"Down\",\"40\",\"5\",\"12\",\"6B\",\"C1\",\"J\",\"76\"
\"\",\"\",\"approach-retreat\",\"80\",\"849994\",\"0.0-80.0\",\"\",\"\",\"1-4\",\"6761\",\"40\",\"1\",\"Training\",\"Stims/Figures/118-J-0-2.bmp\",\"za:ha:ha\",\"Up\",\"40\",\"5\",\"13\",\"6B\",\"C2\",\"J\",\"77\"
\"\",\"\",\"approach-retreat\",\"81\",\"855894\",\"0.0-81.0\",\"\",\"\",\"1-4\",\"4393\",\"38\",\"1\",\"Training\",\"Stims/Figures/128-J-10-3.bmp\",\"sa:ha:ha\",\"Down\",\"38\",\"5\",\"14\",\"6B\",\"C2\",\"J\",\"78\"
\"\",\"\",\"approach-retreat\",\"82\",\"862594\",\"0.0-82.0\",\"\",\"\",\"1-4\",\"5170\",\"38\",\"1\",\"Training\",\"Stims/Figures/74-C-20-4.bmp\",\"va:fa:va\",\"Up\",\"38\",\"5\",\"15\",\"6B\",\"C1\",\"J\",\"79\"
\"\",\"\",\"approach-retreat\",\"83\",\"870110\",\"0.0-83.0\",\"\",\"\",\"1-4\",\"6011\",\"40\",\"1\",\"Training\",\"Stims/Figures/84-J-0-2.bmp\",\"zasa:za\",\"Up\",\"40\",\"5\",\"16\",\"6B\",\"C2\",\"J\",\"80\"
\"\",\"\",\"approach-retreat\",\"84\",\"877271\",\"0.0-84.0\",\"\",\"\",\"1-4\",\"5656\",\"37\",\"1\",\"Training\",\"Stims/Figures/128-J-10-3.bmp\",\"sa:ha:ha\",\"Right\",\"37\",\"6\",\"1\",\"6B\",\"C2\",\"J\",\"81\"
\"\",\"\",\"approach-retreat\",\"85\",\"887118\",\"0.0-85.0\",\"\",\"\",\"1-4\",\"8343\",\"38\",\"1\",\"Training\",\"Stims/Figures/19-C-20-4.bmp\",\"va:sha:sha\",\"Up\",\"38\",\"6\",\"2\",\"6B\",\"C1\",\"J\",\"82\"
\"\",\"\",\"approach-retreat\",\"86\",\"893520\",\"0.0-86.0\",\"\",\"\",\"1-4\",\"4897\",\"37\",\"1\",\"Training\",\"Stims/Figures/74-J-10-4.bmp\",\"zahaha\",\"Right\",\"37\",\"6\",\"3\",\"6B\",\"C2\",\"J\",\"83\"
\"\",\"\",\"approach-retreat\",\"87\",\"902353\",\"0.0-87.0\",\"\",\"\",\"1-4\",\"7328\",\"37\",\"1\",\"Training\",\"Stims/Figures/74-C-20-4.bmp\",\"va:fa:va\",\"Left\",\"37\",\"6\",\"4\",\"6B\",\"C1\",\"J\",\"84\"
\"\",\"\",\"approach-retreat\",\"88\",\"908245\",\"0.0-88.0\",\"\",\"\",\"1-4\",\"4387\",\"37\",\"1\",\"Training\",\"Stims/Figures/57-J-0-1.bmp\",\"zasa:ha\",\"Right\",\"37\",\"6\",\"5\",\"6B\",\"C2\",\"J\",\"85\"
\"\",\"\",\"approach-retreat\",\"89\",\"914937\",\"0.0-89.0\",\"\",\"\",\"1-4\",\"5159\",\"38\",\"1\",\"Training\",\"Stims/Figures/118-C-20-2.bmp\",\"fa:fa:va\",\"Up\",\"38\",\"6\",\"6\",\"6B\",\"C1\",\"J\",\"86\"
\"\",\"\",\"approach-retreat\",\"90\",\"925541\",\"0.0-90.0\",\"\",\"\",\"1-4\",\"9090\",\"37\",\"1\",\"Training\",\"Stims/Figures/57-C-30-1.bmp\",\"fa:sha:va\",\"Left\",\"37\",\"6\",\"7\",\"6B\",\"C1\",\"J\",\"87\"
\"\",\"\",\"approach-retreat\",\"91\",\"936974\",\"0.0-91.0\",\"\",\"\",\"1-4\",\"9927\",\"40\",\"1\",\"Training\",\"Stims/Figures/44-J-10-3.bmp\",\"saha:ha\",\"Up\",\"40\",\"6\",\"8\",\"6B\",\"C2\",\"J\",\"88\"
\"\",\"\",\"approach-retreat\",\"92\",\"960151\",\"0.0-92.0\",\"\",\"\",\"1-4\",\"21670\",\"40\",\"1\",\"Training\",\"Stims/Figures/44-C-30-3.bmp\",\"fafa:va\",\"Down\",\"40\",\"6\",\"9\",\"6B\",\"C1\",\"J\",\"89\"
\"\",\"\",\"approach-retreat\",\"93\",\"970237\",\"0.0-93.0\",\"\",\"\",\"1-4\",\"8583\",\"39\",\"1\",\"Training\",\"Stims/Figures/118-J-0-2.bmp\",\"za:ha:ha\",\"Left\",\"39\",\"6\",\"10\",\"6B\",\"C2\",\"J\",\"90\"
\"\",\"\",\"approach-retreat\",\"94\",\"997087\",\"0.0-94.0\",\"\",\"\",\"1-4\",\"25344\",\"40\",\"1\",\"Training\",\"Stims/Figures/27-C-30-1.bmp\",\"vafa:va\",\"Down\",\"40\",\"6\",\"11\",\"6B\",\"C1\",\"J\",\"91\"
\"\",\"\",\"approach-retreat\",\"95\",\"1005974\",\"0.0-95.0\",\"\",\"\",\"1-4\",\"7383\",\"38\",\"1\",\"Training\",\"Stims/Figures/19-J-10-4.bmp\",\"saha:za\",\"Down\",\"38\",\"6\",\"12\",\"6B\",\"C2\",\"J\",\"92\"
\"\",\"\",\"approach-retreat\",\"96\",\"1013654\",\"0.0-96.0\",\"\",\"\",\"1-4\",\"6175\",\"38\",\"1\",\"Training\",\"Stims/Figures/128-C-30-3.bmp\",\"fa:shasha\",\"Up\",\"38\",\"6\",\"13\",\"6B\",\"C1\",\"J\",\"93\"
\"\",\"\",\"approach-retreat\",\"97\",\"1023061\",\"0.0-97.0\",\"\",\"\",\"1-4\",\"7902\",\"38\",\"1\",\"Training\",\"Stims/Figures/27-J-0-1.bmp\",\"sa:ha:za\",\"Down\",\"38\",\"6\",\"14\",\"6B\",\"C2\",\"J\",\"94\"
\"\",\"\",\"approach-retreat\",\"98\",\"1036358\",\"0.0-98.0\",\"\",\"\",\"1-4\",\"11793\",\"37\",\"1\",\"Training\",\"Stims/Figures/84-C-20-2.bmp\",\"vafa:sha\",\"Left\",\"37\",\"6\",\"15\",\"6B\",\"C1\",\"J\",\"95\"
\"\",\"\",\"approach-retreat\",\"99\",\"1047837\",\"0.0-99.0\",\"\",\"\",\"1-4\",\"9974\",\"37\",\"1\",\"Training\",\"Stims/Figures/84-J-0-2.bmp\",\"zasa:za\",\"Right\",\"37\",\"6\",\"16\",\"6B\",\"C2\",\"J\",\"96\"
\"\",\"\",\"approach-retreat\",\"100\",\"1058391\",\"0.0-100.0\",\"\",\"\",\"1-4\",\"9040\",\"37\",\"1\",\"Training\",\"Stims/Figures/27-C-30-1.bmp\",\"vafa:va\",\"Left\",\"37\",\"7\",\"1\",\"6B\",\"C1\",\"J\",\"97\"
\"\",\"\",\"approach-retreat\",\"101\",\"1065565\",\"0.0-101.0\",\"\",\"\",\"1-4\",\"5665\",\"39\",\"1\",\"Training\",\"Stims/Figures/118-J-0-2.bmp\",\"za:ha:ha\",\"Left\",\"39\",\"7\",\"2\",\"6B\",\"C2\",\"J\",\"98\"
\"\",\"\",\"approach-retreat\",\"102\",\"1073775\",\"0.0-102.0\",\"\",\"\",\"1-4\",\"6688\",\"37\",\"1\",\"Training\",\"Stims/Figures/27-J-0-1.bmp\",\"sa:ha:za\",\"Right\",\"37\",\"7\",\"3\",\"6B\",\"C2\",\"J\",\"99\"
\"\",\"\",\"approach-retreat\",\"103\",\"1081109\",\"0.0-103.0\",\"\",\"\",\"1-4\",\"5828\",\"40\",\"1\",\"Training\",\"Stims/Figures/57-J-0-1.bmp\",\"zasa:ha\",\"Up\",\"40\",\"7\",\"4\",\"6B\",\"C2\",\"J\",\"100\"
\"\",\"\",\"approach-retreat\",\"104\",\"1087605\",\"0.0-104.0\",\"\",\"\",\"1-4\",\"4992\",\"39\",\"1\",\"Training\",\"Stims/Figures/84-J-0-2.bmp\",\"zasa:za\",\"Left\",\"39\",\"7\",\"5\",\"6B\",\"C2\",\"J\",\"101\"
\"\",\"\",\"approach-retreat\",\"105\",\"1095228\",\"0.0-105.0\",\"\",\"\",\"1-4\",\"6118\",\"37\",\"1\",\"Training\",\"Stims/Figures/128-J-10-3.bmp\",\"sa:ha:ha\",\"Right\",\"37\",\"7\",\"6\",\"6B\",\"C2\",\"J\",\"102\"
\"\",\"\",\"approach-retreat\",\"106\",\"1103430\",\"0.0-106.0\",\"\",\"\",\"1-4\",\"6697\",\"40\",\"1\",\"Training\",\"Stims/Figures/44-C-30-3.bmp\",\"fafa:va\",\"Down\",\"40\",\"7\",\"7\",\"6B\",\"C1\",\"J\",\"103\"
\"\",\"\",\"approach-retreat\",\"107\",\"1112870\",\"0.0-107.0\",\"\",\"\",\"1-4\",\"7936\",\"40\",\"1\",\"Training\",\"Stims/Figures/74-C-20-4.bmp\",\"va:fa:va\",\"Down\",\"40\",\"7\",\"8\",\"6B\",\"C1\",\"J\",\"104\"
\"\",\"\",\"approach-retreat\",\"108\",\"1120109\",\"0.0-108.0\",\"\",\"\",\"1-4\",\"5735\",\"39\",\"1\",\"Training\",\"Stims/Figures/84-C-20-2.bmp\",\"vafa:sha\",\"Right\",\"39\",\"7\",\"9\",\"6B\",\"C1\",\"J\",\"105\"
\"\",\"\",\"approach-retreat\",\"109\",\"1133856\",\"0.0-109.0\",\"\",\"\",\"1-4\",\"12215\",\"38\",\"1\",\"Training\",\"Stims/Figures/57-C-30-1.bmp\",\"fa:sha:va\",\"Up\",\"38\",\"7\",\"10\",\"6B\",\"C1\",\"J\",\"106\"
\"\",\"\",\"approach-retreat\",\"110\",\"1141524\",\"0.0-110.0\",\"\",\"\",\"1-4\",\"6160\",\"39\",\"1\",\"Training\",\"Stims/Figures/118-C-20-2.bmp\",\"fa:fa:va\",\"Right\",\"39\",\"7\",\"11\",\"6B\",\"C1\",\"J\",\"107\"
\"\",\"\",\"approach-retreat\",\"111\",\"1147869\",\"0.0-111.0\",\"\",\"\",\"1-4\",\"4840\",\"40\",\"1\",\"Training\",\"Stims/Figures/19-C-20-4.bmp\",\"va:sha:sha\",\"Down\",\"40\",\"7\",\"12\",\"6B\",\"C1\",\"J\",\"108\"
\"\",\"\",\"approach-retreat\",\"112\",\"1154216\",\"0.0-112.0\",\"\",\"\",\"1-4\",\"4824\",\"38\",\"1\",\"Training\",\"Stims/Figures/19-J-10-4.bmp\",\"saha:za\",\"Down\",\"38\",\"7\",\"13\",\"6B\",\"C2\",\"J\",\"109\"
\"\",\"\",\"approach-retreat\",\"113\",\"1163853\",\"0.0-113.0\",\"\",\"\",\"1-4\",\"8131\",\"38\",\"1\",\"Training\",\"Stims/Figures/128-C-30-3.bmp\",\"fa:shasha\",\"Up\",\"38\",\"7\",\"14\",\"6B\",\"C1\",\"J\",\"110\"
\"\",\"\",\"approach-retreat\",\"114\",\"1174982\",\"0.0-114.0\",\"\",\"\",\"1-4\",\"9618\",\"40\",\"1\",\"Training\",\"Stims/Figures/74-J-10-4.bmp\",\"zahaha\",\"Up\",\"40\",\"7\",\"15\",\"6B\",\"C2\",\"J\",\"111\"
\"\",\"\",\"approach-retreat\",\"115\",\"1181956\",\"0.0-115.0\",\"\",\"\",\"1-4\",\"5466\",\"39\",\"1\",\"Training\",\"Stims/Figures/44-J-10-3.bmp\",\"saha:ha\",\"Left\",\"39\",\"7\",\"16\",\"6B\",\"C2\",\"J\",\"112\"
\"\",\"\",\"approach-retreat\",\"116\",\"1188188\",\"0.0-116.0\",\"\",\"\",\"1-4\",\"4728\",\"40\",\"1\",\"Training\",\"Stims/Figures/118-J-0-2.bmp\",\"za:ha:ha\",\"Up\",\"40\",\"8\",\"1\",\"6B\",\"C2\",\"J\",\"113\"
\"\",\"\",\"approach-retreat\",\"117\",\"1194029\",\"0.0-117.0\",\"\",\"\",\"1-4\",\"4320\",\"37\",\"0\",\"Training\",\"Stims/Figures/19-C-20-4.bmp\",\"va:sha:sha\",\"Right\",\"39\",\"8\",\"2\",\"6B\",\"C1\",\"J\",\"114\"
\"\",\"\",\"approach-retreat\",\"118\",\"1200042\",\"0.0-118.0\",\"\",\"\",\"1-4\",\"4496\",\"38\",\"1\",\"Training\",\"Stims/Figures/57-J-0-1.bmp\",\"zasa:ha\",\"Down\",\"38\",\"8\",\"3\",\"6B\",\"C2\",\"J\",\"115\"
\"\",\"\",\"approach-retreat\",\"119\",\"1206905\",\"0.0-119.0\",\"\",\"\",\"1-4\",\"5340\",\"38\",\"1\",\"Training\",\"Stims/Figures/57-C-30-1.bmp\",\"fa:sha:va\",\"Up\",\"38\",\"8\",\"4\",\"6B\",\"C1\",\"J\",\"116\"
\"\",\"\",\"approach-retreat\",\"120\",\"1214020\",\"0.0-120.0\",\"\",\"\",\"1-4\",\"5611\",\"38\",\"1\",\"Training\",\"Stims/Figures/19-J-10-4.bmp\",\"saha:za\",\"Down\",\"38\",\"8\",\"5\",\"6B\",\"C2\",\"J\",\"117\"
\"\",\"\",\"approach-retreat\",\"121\",\"1221131\",\"0.0-121.0\",\"\",\"\",\"1-4\",\"5606\",\"38\",\"1\",\"Training\",\"Stims/Figures/74-J-10-4.bmp\",\"zahaha\",\"Down\",\"38\",\"8\",\"6\",\"6B\",\"C2\",\"J\",\"118\"
\"\",\"\",\"approach-retreat\",\"122\",\"1227375\",\"0.0-122.0\",\"\",\"\",\"1-4\",\"4722\",\"38\",\"1\",\"Training\",\"Stims/Figures/128-C-30-3.bmp\",\"fa:shasha\",\"Up\",\"38\",\"8\",\"7\",\"6B\",\"C1\",\"J\",\"119\"
\"\",\"\",\"approach-retreat\",\"123\",\"1234104\",\"0.0-123.0\",\"\",\"\",\"1-4\",\"5218\",\"40\",\"1\",\"Training\",\"Stims/Figures/27-C-30-1.bmp\",\"vafa:va\",\"Down\",\"40\",\"8\",\"8\",\"6B\",\"C1\",\"J\",\"120\"
\"\",\"\",\"approach-retreat\",\"124\",\"1243228\",\"0.0-124.0\",\"\",\"\",\"1-4\",\"7620\",\"39\",\"1\",\"Training\",\"Stims/Figures/118-C-20-2.bmp\",\"fa:fa:va\",\"Right\",\"39\",\"8\",\"9\",\"6B\",\"C1\",\"J\",\"121\"
\"\",\"\",\"approach-retreat\",\"125\",\"1249244\",\"0.0-125.0\",\"\",\"\",\"1-4\",\"4511\",\"39\",\"1\",\"Training\",\"Stims/Figures/74-C-20-4.bmp\",\"va:fa:va\",\"Right\",\"39\",\"8\",\"10\",\"6B\",\"C1\",\"J\",\"122\"
\"\",\"\",\"approach-retreat\",\"126\",\"1257603\",\"0.0-126.0\",\"\",\"\",\"1-4\",\"6856\",\"37\",\"1\",\"Training\",\"Stims/Figures/84-C-20-2.bmp\",\"vafa:sha\",\"Left\",\"37\",\"8\",\"11\",\"6B\",\"C1\",\"J\",\"123\"
\"\",\"\",\"approach-retreat\",\"127\",\"1263264\",\"0.0-127.0\",\"\",\"\",\"1-4\",\"4136\",\"39\",\"1\",\"Training\",\"Stims/Figures/128-J-10-3.bmp\",\"sa:ha:ha\",\"Left\",\"39\",\"8\",\"12\",\"6B\",\"C2\",\"J\",\"124\"
\"\",\"\",\"approach-retreat\",\"128\",\"1272715\",\"0.0-128.0\",\"\",\"\",\"1-4\",\"7930\",\"40\",\"1\",\"Training\",\"Stims/Figures/44-J-10-3.bmp\",\"saha:ha\",\"Up\",\"40\",\"8\",\"13\",\"6B\",\"C2\",\"J\",\"125\"
\"\",\"\",\"approach-retreat\",\"129\",\"1279067\",\"0.0-129.0\",\"\",\"\",\"1-4\",\"4845\",\"37\",\"1\",\"Training\",\"Stims/Figures/27-J-0-1.bmp\",\"sa:ha:za\",\"Right\",\"37\",\"8\",\"14\",\"6B\",\"C2\",\"J\",\"126\"
\"\",\"\",\"approach-retreat\",\"130\",\"1286259\",\"0.0-130.0\",\"\",\"\",\"1-4\",\"5689\",\"37\",\"1\",\"Training\",\"Stims/Figures/44-C-30-3.bmp\",\"fafa:va\",\"Left\",\"37\",\"8\",\"15\",\"6B\",\"C1\",\"J\",\"127\"
\"\",\"\",\"approach-retreat\",\"131\",\"1292508\",\"0.0-131.0\",\"\",\"\",\"1-4\",\"4737\",\"39\",\"1\",\"Training\",\"Stims/Figures/84-J-0-2.bmp\",\"zasa:za\",\"Left\",\"39\",\"8\",\"16\",\"6B\",\"C2\",\"J\",\"128\"
\"\",\"\",\"approach-retreat\",\"132\",\"1304523\",\"0.0-132.0\",\"\",\"\",\"1-4\",\"10497\",\"38\",\"1\",\"Training\",\"Stims/Figures/44-C-30-3.bmp\",\"fafa:va\",\"Up\",\"38\",\"9\",\"1\",\"6B\",\"C1\",\"J\",\"129\"
\"\",\"\",\"approach-retreat\",\"133\",\"1311693\",\"0.0-133.0\",\"\",\"\",\"1-4\",\"5664\",\"37\",\"1\",\"Training\",\"Stims/Figures/118-J-0-2.bmp\",\"za:ha:ha\",\"Right\",\"37\",\"9\",\"2\",\"6B\",\"C2\",\"J\",\"130\"
\"\",\"\",\"approach-retreat\",\"134\",\"1325866\",\"0.0-134.0\",\"\",\"\",\"1-4\",\"12669\",\"40\",\"1\",\"Training\",\"Stims/Figures/84-J-0-2.bmp\",\"zasa:za\",\"Up\",\"40\",\"9\",\"3\",\"6B\",\"C2\",\"J\",\"131\"
\"\",\"\",\"approach-retreat\",\"135\",\"1333146\",\"0.0-135.0\",\"\",\"\",\"1-4\",\"5776\",\"39\",\"1\",\"Training\",\"Stims/Figures/44-J-10-3.bmp\",\"saha:ha\",\"Left\",\"39\",\"9\",\"4\",\"6B\",\"C2\",\"J\",\"132\"
\"\",\"\",\"approach-retreat\",\"136\",\"1339755\",\"0.0-136.0\",\"\",\"\",\"1-4\",\"5103\",\"40\",\"0\",\"Training\",\"Stims/Figures/27-C-30-1.bmp\",\"vafa:va\",\"Up\",\"38\",\"9\",\"5\",\"6B\",\"C1\",\"J\",\"133\"
\"\",\"\",\"approach-retreat\",\"137\",\"1346791\",\"0.0-137.0\",\"\",\"\",\"1-4\",\"5496\",\"37\",\"1\",\"Training\",\"Stims/Figures/118-C-20-2.bmp\",\"fa:fa:va\",\"Left\",\"37\",\"9\",\"6\",\"6B\",\"C1\",\"J\",\"134\"
\"\",\"\",\"approach-retreat\",\"138\",\"1353196\",\"0.0-138.0\",\"\",\"\",\"1-4\",\"4900\",\"37\",\"0\",\"Training\",\"Stims/Figures/19-C-20-4.bmp\",\"va:sha:sha\",\"Right\",\"39\",\"9\",\"7\",\"6B\",\"C1\",\"J\",\"135\"
\"\",\"\",\"approach-retreat\",\"139\",\"1361234\",\"0.0-139.0\",\"\",\"\",\"1-4\",\"6535\",\"40\",\"1\",\"Training\",\"Stims/Figures/74-C-20-4.bmp\",\"va:fa:va\",\"Down\",\"40\",\"9\",\"8\",\"6B\",\"C1\",\"J\",\"136\"
\"\",\"\",\"approach-retreat\",\"140\",\"1367370\",\"0.0-140.0\",\"\",\"\",\"1-4\",\"4632\",\"38\",\"1\",\"Training\",\"Stims/Figures/57-J-0-1.bmp\",\"zasa:ha\",\"Down\",\"38\",\"9\",\"9\",\"6B\",\"C2\",\"J\",\"137\"
\"\",\"\",\"approach-retreat\",\"141\",\"1373354\",\"0.0-141.0\",\"\",\"\",\"1-4\",\"4478\",\"37\",\"1\",\"Training\",\"Stims/Figures/74-J-10-4.bmp\",\"zahaha\",\"Right\",\"37\",\"9\",\"10\",\"6B\",\"C2\",\"J\",\"138\"
\"\",\"\",\"approach-retreat\",\"142\",\"1379355\",\"0.0-142.0\",\"\",\"\",\"1-4\",\"4497\",\"40\",\"1\",\"Training\",\"Stims/Figures/19-J-10-4.bmp\",\"saha:za\",\"Up\",\"40\",\"9\",\"11\",\"6B\",\"C2\",\"J\",\"139\"
\"\",\"\",\"approach-retreat\",\"143\",\"1385570\",\"0.0-143.0\",\"\",\"\",\"1-4\",\"4710\",\"40\",\"1\",\"Training\",\"Stims/Figures/57-C-30-1.bmp\",\"fa:sha:va\",\"Down\",\"40\",\"9\",\"12\",\"6B\",\"C1\",\"J\",\"140\"
\"\",\"\",\"approach-retreat\",\"144\",\"1391153\",\"0.0-144.0\",\"\",\"\",\"1-4\",\"4079\",\"37\",\"1\",\"Training\",\"Stims/Figures/128-C-30-3.bmp\",\"fa:shasha\",\"Left\",\"37\",\"9\",\"13\",\"6B\",\"C1\",\"J\",\"141\"
\"\",\"\",\"approach-retreat\",\"145\",\"1397297\",\"0.0-145.0\",\"\",\"\",\"1-4\",\"4638\",\"39\",\"1\",\"Training\",\"Stims/Figures/128-J-10-3.bmp\",\"sa:ha:ha\",\"Left\",\"39\",\"9\",\"14\",\"6B\",\"C2\",\"J\",\"142\"
\"\",\"\",\"approach-retreat\",\"146\",\"1403072\",\"0.0-146.0\",\"\",\"\",\"1-4\",\"4232\",\"40\",\"1\",\"Training\",\"Stims/Figures/84-C-20-2.bmp\",\"vafa:sha\",\"Down\",\"40\",\"9\",\"15\",\"6B\",\"C1\",\"J\",\"143\"
\"\",\"\",\"approach-retreat\",\"147\",\"1409498\",\"0.0-147.0\",\"\",\"\",\"1-4\",\"4918\",\"37\",\"1\",\"Training\",\"Stims/Figures/27-J-0-1.bmp\",\"sa:ha:za\",\"Right\",\"37\",\"9\",\"16\",\"6B\",\"C2\",\"J\",\"144\"
\"11515\",\"\",\"instructions\",\"148\",\"1421015\",\"0.0-148.0\",\"[{\"\"page_index\"\":0,\"\"viewing_time\"\":11515}]\",\"\",\"\",\"\",\"\",\"\",\"\",\"\",\"\",\"\",\"\",\"\",\"\",\"\",\"\",\"\",\"\"
\"\",\"\",\"approach-retreat\",\"149\",\"1428322\",\"0.0-149.0\",\"\",\"\",\"1-4\",\"5802\",\"37\",\"1\",\"Testing\",\"Stims/Figures/74-J-10-4.bmp\",\"zahaha\",\"Right\",\"37\",\"1\",\"1\",\"6B\",\"C2\",\"J\",\"1\"
\"\",\"\",\"approach-retreat\",\"150\",\"1434931\",\"0.0-150.0\",\"\",\"\",\"1-4\",\"5104\",\"39\",\"1\",\"Testing\",\"Stims/Figures/111-J-10-3.bmp\",\"zahaza\",\"Left\",\"39\",\"1\",\"2\",\"6B\",\"C2\",\"J\",\"2\"
\"\",\"\",\"approach-retreat\",\"151\",\"1440929\",\"0.0-151.0\",\"\",\"\",\"1-4\",\"4495\",\"37\",\"1\",\"Testing\",\"Stims/Figures/57-J-0-1.bmp\",\"zasa:ha\",\"Right\",\"37\",\"1\",\"3\",\"6B\",\"C2\",\"J\",\"3\"
\"\",\"\",\"approach-retreat\",\"152\",\"1446737\",\"0.0-152.0\",\"\",\"\",\"1-4\",\"4305\",\"39\",\"1\",\"Testing\",\"Stims/Figures/118-J-0-2.bmp\",\"za:ha:ha\",\"Left\",\"39\",\"1\",\"4\",\"6B\",\"C2\",\"J\",\"4\"
\"\",\"\",\"approach-retreat\",\"153\",\"1452994\",\"0.0-153.0\",\"\",\"\",\"1-4\",\"4753\",\"38\",\"1\",\"Testing\",\"Stims/Figures/7-J-10-4.bmp\",\"zasaza\",\"Down\",\"38\",\"1\",\"5\",\"6B\",\"C2\",\"J\",\"5\"
\"\",\"\",\"approach-retreat\",\"154\",\"1459321\",\"0.0-154.0\",\"\",\"\",\"1-4\",\"4825\",\"40\",\"1\",\"Testing\",\"Stims/Figures/27-J-0-1.bmp\",\"sa:ha:za\",\"Up\",\"40\",\"1\",\"6\",\"6B\",\"C2\",\"J\",\"6\"
\"\",\"\",\"approach-retreat\",\"155\",\"1467698\",\"0.0-155.0\",\"\",\"\",\"1-4\",\"6873\",\"40\",\"1\",\"Testing\",\"Stims/Figures/128-J-10-3.bmp\",\"sa:ha:ha\",\"Up\",\"40\",\"1\",\"7\",\"6B\",\"C2\",\"J\",\"7\"
\"\",\"\",\"approach-retreat\",\"156\",\"1473506\",\"0.0-156.0\",\"\",\"\",\"1-4\",\"4305\",\"37\",\"1\",\"Testing\",\"Stims/Figures/139-J-0-2.bmp\",\"sa:saha\",\"Right\",\"37\",\"1\",\"8\",\"6B\",\"C2\",\"J\",\"8\"
\"\",\"\",\"approach-retreat\",\"157\",\"1486411\",\"0.0-157.0\",\"\",\"\",\"1-4\",\"11400\",\"40\",\"1\",\"Testing\",\"Stims/Figures/74-C-20-4.bmp\",\"va:fa:va\",\"Down\",\"40\",\"1\",\"9\",\"6B\",\"C1\",\"J\",\"9\"
\"\",\"\",\"approach-retreat\",\"158\",\"1492353\",\"0.0-158.0\",\"\",\"\",\"1-4\",\"4439\",\"37\",\"1\",\"Testing\",\"Stims/Figures/111-C-30-3.bmp\",\"fa:fasha\",\"Left\",\"37\",\"1\",\"10\",\"6B\",\"C1\",\"J\",\"10\"
\"\",\"\",\"approach-retreat\",\"159\",\"1499426\",\"0.0-159.0\",\"\",\"\",\"1-4\",\"5569\",\"37\",\"1\",\"Testing\",\"Stims/Figures/86-J-0-1.bmp\",\"zaha:ha\",\"Right\",\"37\",\"1\",\"11\",\"6B\",\"C2\",\"J\",\"11\"
\"\",\"\",\"approach-retreat\",\"160\",\"1505481\",\"0.0-160.0\",\"\",\"\",\"1-4\",\"4552\",\"40\",\"1\",\"Testing\",\"Stims/Figures/84-C-20-2.bmp\",\"vafa:sha\",\"Down\",\"40\",\"1\",\"12\",\"6B\",\"C1\",\"J\",\"12\"
\"\",\"\",\"approach-retreat\",\"161\",\"1512353\",\"0.0-161.0\",\"\",\"\",\"1-4\",\"5369\",\"40\",\"1\",\"Testing\",\"Stims/Figures/86-C-30-1.bmp\",\"vashasha\",\"Down\",\"40\",\"1\",\"13\",\"6B\",\"C1\",\"J\",\"13\"
\"\",\"\",\"approach-retreat\",\"162\",\"1518904\",\"0.0-162.0\",\"\",\"\",\"1-4\",\"5048\",\"40\",\"1\",\"Testing\",\"Stims/Figures/84-J-0-2.bmp\",\"zasa:za\",\"Up\",\"40\",\"1\",\"14\",\"6B\",\"C2\",\"J\",\"14\"
\"\",\"\",\"approach-retreat\",\"163\",\"1526075\",\"0.0-163.0\",\"\",\"\",\"1-4\",\"5667\",\"39\",\"1\",\"Testing\",\"Stims/Figures/118-C-20-2.bmp\",\"fa:fa:va\",\"Right\",\"39\",\"1\",\"15\",\"6B\",\"C1\",\"J\",\"15\"
\"\",\"\",\"approach-retreat\",\"164\",\"1532348\",\"0.0-164.0\",\"\",\"\",\"1-4\",\"4769\",\"39\",\"1\",\"Testing\",\"Stims/Figures/57-C-30-1.bmp\",\"fa:sha:va\",\"Right\",\"39\",\"1\",\"16\",\"6B\",\"C1\",\"J\",\"16\"
\"\",\"\",\"approach-retreat\",\"165\",\"1538554\",\"0.0-165.0\",\"\",\"\",\"1-4\",\"4701\",\"37\",\"1\",\"Testing\",\"Stims/Figures/44-C-30-3.bmp\",\"fafa:va\",\"Left\",\"37\",\"1\",\"17\",\"6B\",\"C1\",\"J\",\"17\"
\"\",\"\",\"approach-retreat\",\"166\",\"1544815\",\"0.0-166.0\",\"\",\"\",\"1-4\",\"4751\",\"37\",\"1\",\"Testing\",\"Stims/Figures/139-C-20-2.bmp\",\"va:fa:sha\",\"Left\",\"37\",\"1\",\"18\",\"6B\",\"C1\",\"J\",\"18\"
\"\",\"\",\"approach-retreat\",\"167\",\"1550610\",\"0.0-167.0\",\"\",\"\",\"1-4\",\"4285\",\"40\",\"1\",\"Testing\",\"Stims/Figures/44-J-10-3.bmp\",\"saha:ha\",\"Up\",\"40\",\"1\",\"19\",\"6B\",\"C2\",\"J\",\"19\"
\"\",\"\",\"approach-retreat\",\"168\",\"1556312\",\"0.0-168.0\",\"\",\"\",\"1-4\",\"4199\",\"38\",\"1\",\"Testing\",\"Stims/Figures/19-J-10-4.bmp\",\"saha:za\",\"Down\",\"38\",\"1\",\"20\",\"6B\",\"C2\",\"J\",\"20\"
\"\",\"\",\"approach-retreat\",\"169\",\"1565121\",\"0.0-169.0\",\"\",\"\",\"1-4\",\"7304\",\"37\",\"1\",\"Testing\",\"Stims/Figures/7-C-20-4.bmp\",\"fafava\",\"Left\",\"37\",\"1\",\"21\",\"6B\",\"C1\",\"J\",\"21\"
\"\",\"\",\"approach-retreat\",\"170\",\"1573217\",\"0.0-170.0\",\"\",\"\",\"1-4\",\"6592\",\"40\",\"1\",\"Testing\",\"Stims/Figures/19-C-20-4.bmp\",\"va:sha:sha\",\"Down\",\"40\",\"1\",\"22\",\"6B\",\"C1\",\"J\",\"22\"
\"\",\"\",\"approach-retreat\",\"171\",\"1580072\",\"0.0-171.0\",\"\",\"\",\"1-4\",\"5353\",\"38\",\"1\",\"Testing\",\"Stims/Figures/27-C-30-1.bmp\",\"vafa:va\",\"Up\",\"38\",\"1\",\"23\",\"6B\",\"C1\",\"J\",\"23\"
\"\",\"\",\"approach-retreat\",\"172\",\"1587481\",\"0.0-172.0\",\"\",\"\",\"1-4\",\"5905\",\"38\",\"1\",\"Testing\",\"Stims/Figures/128-C-30-3.bmp\",\"fa:shasha\",\"Up\",\"38\",\"1\",\"24\",\"6B\",\"C1\",\"J\",\"24\"
\"\",\"\",\"approach-retreat\",\"173\",\"1593625\",\"0.0-173.0\",\"\",\"\",\"1-4\",\"4641\",\"38\",\"1\",\"Testing\",\"Stims/Figures/7-C-20-4.bmp\",\"fafava\",\"Up\",\"38\",\"2\",\"1\",\"6B\",\"C1\",\"J\",\"25\"
\"\",\"\",\"approach-retreat\",\"174\",\"1601233\",\"0.0-174.0\",\"\",\"\",\"1-4\",\"6104\",\"37\",\"1\",\"Testing\",\"Stims/Figures/111-C-30-3.bmp\",\"fa:fasha\",\"Left\",\"37\",\"2\",\"2\",\"6B\",\"C1\",\"J\",\"26\"
\"\",\"\",\"approach-retreat\",\"175\",\"1607918\",\"0.0-175.0\",\"\",\"\",\"1-4\",\"5161\",\"37\",\"1\",\"Testing\",\"Stims/Figures/57-J-0-1.bmp\",\"zasa:ha\",\"Right\",\"37\",\"2\",\"3\",\"6B\",\"C2\",\"J\",\"27\"
\"\",\"\",\"approach-retreat\",\"176\",\"1614344\",\"0.0-176.0\",\"\",\"\",\"1-4\",\"4922\",\"37\",\"1\",\"Testing\",\"Stims/Figures/84-C-20-2.bmp\",\"vafa:sha\",\"Left\",\"37\",\"2\",\"4\",\"6B\",\"C1\",\"J\",\"28\"
\"\",\"\",\"approach-retreat\",\"177\",\"1620304\",\"0.0-177.0\",\"\",\"\",\"1-4\",\"4457\",\"37\",\"1\",\"Testing\",\"Stims/Figures/44-J-10-3.bmp\",\"saha:ha\",\"Right\",\"37\",\"2\",\"5\",\"6B\",\"C2\",\"J\",\"29\"
\"\",\"\",\"approach-retreat\",\"178\",\"1626193\",\"0.0-178.0\",\"\",\"\",\"1-4\",\"4384\",\"39\",\"1\",\"Testing\",\"Stims/Figures/139-J-0-2.bmp\",\"sa:saha\",\"Left\",\"39\",\"2\",\"6\",\"6B\",\"C2\",\"J\",\"30\"
\"\",\"\",\"approach-retreat\",\"179\",\"1633601\",\"0.0-179.0\",\"\",\"\",\"1-4\",\"5904\",\"38\",\"1\",\"Testing\",\"Stims/Figures/19-C-20-4.bmp\",\"va:sha:sha\",\"Up\",\"38\",\"2\",\"7\",\"6B\",\"C1\",\"J\",\"31\"
\"\",\"\",\"approach-retreat\",\"180\",\"1643249\",\"0.0-180.0\",\"\",\"\",\"1-4\",\"8143\",\"39\",\"1\",\"Testing\",\"Stims/Figures/74-C-20-4.bmp\",\"va:fa:va\",\"Right\",\"39\",\"2\",\"8\",\"6B\",\"C1\",\"J\",\"32\"
\"\",\"\",\"approach-retreat\",\"181\",\"1649808\",\"0.0-181.0\",\"\",\"\",\"1-4\",\"5057\",\"37\",\"1\",\"Testing\",\"Stims/Figures/118-J-0-2.bmp\",\"za:ha:ha\",\"Right\",\"37\",\"2\",\"9\",\"6B\",\"C2\",\"J\",\"33\"
\"\",\"\",\"approach-retreat\",\"182\",\"1657376\",\"0.0-182.0\",\"\",\"\",\"1-4\",\"6065\",\"40\",\"1\",\"Testing\",\"Stims/Figures/57-C-30-1.bmp\",\"fa:sha:va\",\"Down\",\"40\",\"2\",\"10\",\"6B\",\"C1\",\"J\",\"34\"
\"\",\"\",\"approach-retreat\",\"183\",\"1663425\",\"0.0-183.0\",\"\",\"\",\"1-4\",\"4544\",\"39\",\"1\",\"Testing\",\"Stims/Figures/139-C-20-2.bmp\",\"va:fa:sha\",\"Right\",\"39\",\"2\",\"11\",\"6B\",\"C1\",\"J\",\"35\"
\"\",\"\",\"approach-retreat\",\"184\",\"1670081\",\"0.0-184.0\",\"\",\"\",\"1-4\",\"5152\",\"40\",\"1\",\"Testing\",\"Stims/Figures/19-J-10-4.bmp\",\"saha:za\",\"Up\",\"40\",\"2\",\"12\",\"6B\",\"C2\",\"J\",\"36\"
\"\",\"\",\"approach-retreat\",\"185\",\"1676920\",\"0.0-185.0\",\"\",\"\",\"1-4\",\"5336\",\"39\",\"1\",\"Testing\",\"Stims/Figures/86-C-30-1.bmp\",\"vashasha\",\"Right\",\"39\",\"2\",\"13\",\"6B\",\"C1\",\"J\",\"37\"
\"\",\"\",\"approach-retreat\",\"186\",\"1683320\",\"0.0-186.0\",\"\",\"\",\"1-4\",\"4897\",\"40\",\"1\",\"Testing\",\"Stims/Figures/27-J-0-1.bmp\",\"sa:ha:za\",\"Up\",\"40\",\"2\",\"14\",\"6B\",\"C2\",\"J\",\"38\"
\"\",\"\",\"approach-retreat\",\"187\",\"1694400\",\"0.0-187.0\",\"\",\"\",\"1-4\",\"9577\",\"37\",\"1\",\"Testing\",\"Stims/Figures/44-C-30-3.bmp\",\"fafa:va\",\"Left\",\"37\",\"2\",\"15\",\"6B\",\"C1\",\"J\",\"39\"
\"\",\"\",\"approach-retreat\",\"188\",\"1702159\",\"0.0-188.0\",\"\",\"\",\"1-4\",\"6255\",\"40\",\"1\",\"Testing\",\"Stims/Figures/111-J-10-3.bmp\",\"zahaza\",\"Up\",\"40\",\"2\",\"16\",\"6B\",\"C2\",\"J\",\"40\"
\"\",\"\",\"approach-retreat\",\"189\",\"1709513\",\"0.0-189.0\",\"\",\"\",\"1-4\",\"5850\",\"38\",\"1\",\"Testing\",\"Stims/Figures/7-J-10-4.bmp\",\"zasaza\",\"Down\",\"38\",\"2\",\"17\",\"6B\",\"C2\",\"J\",\"41\"
\"\",\"\",\"approach-retreat\",\"190\",\"1715191\",\"0.0-190.0\",\"\",\"\",\"1-4\",\"4176\",\"38\",\"1\",\"Testing\",\"Stims/Figures/74-J-10-4.bmp\",\"zahaha\",\"Down\",\"38\",\"2\",\"18\",\"6B\",\"C2\",\"J\",\"42\"
\"\",\"\",\"approach-retreat\",\"191\",\"1721126\",\"0.0-191.0\",\"\",\"\",\"1-4\",\"4409\",\"40\",\"1\",\"Testing\",\"Stims/Figures/86-J-0-1.bmp\",\"zaha:ha\",\"Up\",\"40\",\"2\",\"19\",\"6B\",\"C2\",\"J\",\"43\"
\"\",\"\",\"approach-retreat\",\"192\",\"1727807\",\"0.0-192.0\",\"\",\"\",\"1-4\",\"5176\",\"38\",\"1\",\"Testing\",\"Stims/Figures/84-J-0-2.bmp\",\"zasa:za\",\"Down\",\"38\",\"2\",\"20\",\"6B\",\"C2\",\"J\",\"44\"
\"\",\"\",\"approach-retreat\",\"193\",\"1735481\",\"0.0-193.0\",\"\",\"\",\"1-4\",\"6171\",\"40\",\"1\",\"Testing\",\"Stims/Figures/118-C-20-2.bmp\",\"fa:fa:va\",\"Down\",\"40\",\"2\",\"21\",\"6B\",\"C1\",\"J\",\"45\"
\"\",\"\",\"approach-retreat\",\"194\",\"1742424\",\"0.0-194.0\",\"\",\"\",\"1-4\",\"5439\",\"39\",\"1\",\"Testing\",\"Stims/Figures/128-J-10-3.bmp\",\"sa:ha:ha\",\"Left\",\"39\",\"2\",\"22\",\"6B\",\"C2\",\"J\",\"46\"
\"\",\"\",\"approach-retreat\",\"195\",\"1748144\",\"0.0-195.0\",\"\",\"\",\"1-4\",\"4215\",\"37\",\"1\",\"Testing\",\"Stims/Figures/128-C-30-3.bmp\",\"fa:shasha\",\"Left\",\"37\",\"2\",\"23\",\"6B\",\"C1\",\"J\",\"47\"
\"\",\"\",\"approach-retreat\",\"196\",\"1754776\",\"0.0-196.0\",\"\",\"\",\"1-4\",\"5111\",\"40\",\"1\",\"Testing\",\"Stims/Figures/27-C-30-1.bmp\",\"vafa:va\",\"Down\",\"40\",\"2\",\"24\",\"6B\",\"C1\",\"J\",\"48\"
\"\",\"\",\"approach-retreat\",\"197\",\"1761367\",\"0.0-197.0\",\"\",\"\",\"1-4\",\"5086\",\"39\",\"1\",\"Testing\",\"Stims/Figures/118-C-20-2.bmp\",\"fa:fa:va\",\"Right\",\"39\",\"3\",\"1\",\"6B\",\"C1\",\"J\",\"49\"
\"\",\"\",\"approach-retreat\",\"198\",\"1767279\",\"0.0-198.0\",\"\",\"\",\"1-4\",\"4408\",\"39\",\"1\",\"Testing\",\"Stims/Figures/111-C-30-3.bmp\",\"fa:fasha\",\"Right\",\"39\",\"3\",\"2\",\"6B\",\"C1\",\"J\",\"50\"
\"\",\"\",\"approach-retreat\",\"199\",\"1774411\",\"0.0-199.0\",\"\",\"\",\"1-4\",\"5601\",\"38\",\"1\",\"Testing\",\"Stims/Figures/84-C-20-2.bmp\",\"vafa:sha\",\"Up\",\"38\",\"3\",\"3\",\"6B\",\"C1\",\"J\",\"51\"
\"\",\"\",\"approach-retreat\",\"200\",\"1780360\",\"0.0-200.0\",\"\",\"\",\"1-4\",\"4445\",\"40\",\"1\",\"Testing\",\"Stims/Figures/86-J-0-1.bmp\",\"zaha:ha\",\"Up\",\"40\",\"3\",\"4\",\"6B\",\"C2\",\"J\",\"52\"
\"\",\"\",\"approach-retreat\",\"201\",\"1787223\",\"0.0-201.0\",\"\",\"\",\"1-4\",\"5360\",\"38\",\"1\",\"Testing\",\"Stims/Figures/139-C-20-2.bmp\",\"va:fa:sha\",\"Up\",\"38\",\"3\",\"5\",\"6B\",\"C1\",\"J\",\"53\"
\"\",\"\",\"approach-retreat\",\"202\",\"1792999\",\"0.0-202.0\",\"\",\"\",\"1-4\",\"4273\",\"38\",\"1\",\"Testing\",\"Stims/Figures/128-J-10-3.bmp\",\"sa:ha:ha\",\"Down\",\"38\",\"3\",\"6\",\"6B\",\"C2\",\"J\",\"54\"
\"\",\"\",\"approach-retreat\",\"203\",\"1799777\",\"0.0-203.0\",\"\",\"\",\"1-4\",\"5274\",\"37\",\"1\",\"Testing\",\"Stims/Figures/128-C-30-3.bmp\",\"fa:shasha\",\"Left\",\"37\",\"3\",\"7\",\"6B\",\"C1\",\"J\",\"55\"
\"\",\"\",\"approach-retreat\",\"204\",\"1805471\",\"0.0-204.0\",\"\",\"\",\"1-4\",\"4191\",\"39\",\"1\",\"Testing\",\"Stims/Figures/118-J-0-2.bmp\",\"za:ha:ha\",\"Left\",\"39\",\"3\",\"8\",\"6B\",\"C2\",\"J\",\"56\"
\"\",\"\",\"approach-retreat\",\"205\",\"1811560\",\"0.0-205.0\",\"\",\"\",\"1-4\",\"4585\",\"39\",\"1\",\"Testing\",\"Stims/Figures/57-C-30-1.bmp\",\"fa:sha:va\",\"Right\",\"39\",\"3\",\"9\",\"6B\",\"C1\",\"J\",\"57\"
\"\",\"\",\"approach-retreat\",\"206\",\"1817447\",\"0.0-206.0\",\"\",\"\",\"1-4\",\"4383\",\"38\",\"1\",\"Testing\",\"Stims/Figures/84-J-0-2.bmp\",\"zasa:za\",\"Down\",\"38\",\"3\",\"10\",\"6B\",\"C2\",\"J\",\"58\"
\"\",\"\",\"approach-retreat\",\"207\",\"1826343\",\"0.0-207.0\",\"\",\"\",\"1-4\",\"7392\",\"39\",\"1\",\"Testing\",\"Stims/Figures/19-C-20-4.bmp\",\"va:sha:sha\",\"Right\",\"39\",\"3\",\"11\",\"6B\",\"C1\",\"J\",\"59\"
\"\",\"\",\"approach-retreat\",\"208\",\"1832497\",\"0.0-208.0\",\"\",\"\",\"1-4\",\"4647\",\"40\",\"1\",\"Testing\",\"Stims/Figures/19-J-10-4.bmp\",\"saha:za\",\"Up\",\"40\",\"3\",\"12\",\"6B\",\"C2\",\"J\",\"60\"
\"\",\"\",\"approach-retreat\",\"209\",\"1838927\",\"0.0-209.0\",\"\",\"\",\"1-4\",\"4928\",\"38\",\"1\",\"Testing\",\"Stims/Figures/86-C-30-1.bmp\",\"vashasha\",\"Up\",\"38\",\"3\",\"13\",\"6B\",\"C1\",\"J\",\"61\"
\"\",\"\",\"approach-retreat\",\"210\",\"1844902\",\"0.0-210.0\",\"\",\"\",\"1-4\",\"4472\",\"39\",\"1\",\"Testing\",\"Stims/Figures/27-C-30-1.bmp\",\"vafa:va\",\"Right\",\"39\",\"3\",\"14\",\"6B\",\"C1\",\"J\",\"62\"
\"\",\"\",\"approach-retreat\",\"211\",\"1851335\",\"0.0-211.0\",\"\",\"\",\"1-4\",\"4929\",\"38\",\"1\",\"Testing\",\"Stims/Figures/111-J-10-3.bmp\",\"zahaza\",\"Down\",\"38\",\"3\",\"15\",\"6B\",\"C2\",\"J\",\"63\"
\"\",\"\",\"approach-retreat\",\"212\",\"1857992\",\"0.0-212.0\",\"\",\"\",\"1-4\",\"5153\",\"37\",\"1\",\"Testing\",\"Stims/Figures/44-C-30-3.bmp\",\"fafa:va\",\"Left\",\"37\",\"3\",\"16\",\"6B\",\"C1\",\"J\",\"64\"
\"\",\"\",\"approach-retreat\",\"213\",\"1864310\",\"0.0-213.0\",\"\",\"\",\"1-4\",\"4816\",\"39\",\"1\",\"Testing\",\"Stims/Figures/57-J-0-1.bmp\",\"zasa:ha\",\"Left\",\"39\",\"3\",\"17\",\"6B\",\"C2\",\"J\",\"65\"
\"\",\"\",\"approach-retreat\",\"214\",\"1874511\",\"0.0-214.0\",\"\",\"\",\"1-4\",\"8696\",\"37\",\"1\",\"Testing\",\"Stims/Figures/7-C-20-4.bmp\",\"fafava\",\"Left\",\"37\",\"3\",\"18\",\"6B\",\"C1\",\"J\",\"66\"
\"\",\"\",\"approach-retreat\",\"215\",\"1889406\",\"0.0-215.0\",\"\",\"\",\"1-4\",\"13387\",\"38\",\"1\",\"Testing\",\"Stims/Figures/139-J-0-2.bmp\",\"sa:saha\",\"Down\",\"38\",\"3\",\"19\",\"6B\",\"C2\",\"J\",\"67\"
\"\",\"\",\"approach-retreat\",\"216\",\"1895839\",\"0.0-216.0\",\"\",\"\",\"1-4\",\"4929\",\"38\",\"1\",\"Testing\",\"Stims/Figures/44-J-10-3.bmp\",\"saha:ha\",\"Down\",\"38\",\"3\",\"20\",\"6B\",\"C2\",\"J\",\"68\"
\"\",\"\",\"approach-retreat\",\"217\",\"1902247\",\"0.0-217.0\",\"\",\"\",\"1-4\",\"4906\",\"37\",\"1\",\"Testing\",\"Stims/Figures/7-J-10-4.bmp\",\"zasaza\",\"Right\",\"37\",\"3\",\"21\",\"6B\",\"C2\",\"J\",\"69\"
\"\",\"\",\"approach-retreat\",\"218\",\"1910822\",\"0.0-218.0\",\"\",\"\",\"1-4\",\"7072\",\"38\",\"1\",\"Testing\",\"Stims/Figures/74-J-10-4.bmp\",\"zahaha\",\"Down\",\"38\",\"3\",\"22\",\"6B\",\"C2\",\"J\",\"70\"
\"\",\"\",\"approach-retreat\",\"219\",\"1917206\",\"0.0-219.0\",\"\",\"\",\"1-4\",\"4881\",\"39\",\"1\",\"Testing\",\"Stims/Figures/27-J-0-1.bmp\",\"sa:ha:za\",\"Left\",\"39\",\"3\",\"23\",\"6B\",\"C2\",\"J\",\"71\"
\"\",\"\",\"approach-retreat\",\"220\",\"1924509\",\"0.0-220.0\",\"\",\"\",\"1-4\",\"5800\",\"38\",\"1\",\"Testing\",\"Stims/Figures/74-C-20-4.bmp\",\"va:fa:va\",\"Up\",\"38\",\"3\",\"24\",\"6B\",\"C1\",\"J\",\"72\"
\"\",\"\",\"approach-retreat\",\"221\",\"1930241\",\"0.0-221.0\",\"\",\"\",\"1-4\",\"4227\",\"38\",\"1\",\"Testing\",\"Stims/Figures/86-C-30-1.bmp\",\"vashasha\",\"Up\",\"38\",\"4\",\"1\",\"6B\",\"C1\",\"J\",\"73\"
\"\",\"\",\"approach-retreat\",\"222\",\"1936029\",\"0.0-222.0\",\"\",\"\",\"1-4\",\"4285\",\"39\",\"1\",\"Testing\",\"Stims/Figures/27-C-30-1.bmp\",\"vafa:va\",\"Right\",\"39\",\"4\",\"2\",\"6B\",\"C1\",\"J\",\"74\"
\"\",\"\",\"approach-retreat\",\"223\",\"1941798\",\"0.0-223.0\",\"\",\"\",\"1-4\",\"4266\",\"37\",\"1\",\"Testing\",\"Stims/Figures/7-J-10-4.bmp\",\"zasaza\",\"Right\",\"37\",\"4\",\"3\",\"6B\",\"C2\",\"J\",\"75\"
\"\",\"\",\"approach-retreat\",\"224\",\"1947498\",\"0.0-224.0\",\"\",\"\",\"1-4\",\"4192\",\"39\",\"1\",\"Testing\",\"Stims/Figures/111-J-10-3.bmp\",\"zahaza\",\"Left\",\"39\",\"4\",\"4\",\"6B\",\"C2\",\"J\",\"76\"
\"\",\"\",\"approach-retreat\",\"225\",\"1953911\",\"0.0-225.0\",\"\",\"\",\"1-4\",\"4909\",\"40\",\"1\",\"Testing\",\"Stims/Figures/57-C-30-1.bmp\",\"fa:sha:va\",\"Down\",\"40\",\"4\",\"5\",\"6B\",\"C1\",\"J\",\"77\"
\"\",\"\",\"approach-retreat\",\"226\",\"1959919\",\"0.0-226.0\",\"\",\"\",\"1-4\",\"4505\",\"37\",\"1\",\"Testing\",\"Stims/Figures/74-J-10-4.bmp\",\"zahaha\",\"Right\",\"37\",\"4\",\"6\",\"6B\",\"C2\",\"J\",\"78\"
\"\",\"\",\"approach-retreat\",\"227\",\"1966150\",\"0.0-227.0\",\"\",\"\",\"1-4\",\"4729\",\"38\",\"1\",\"Testing\",\"Stims/Figures/139-J-0-2.bmp\",\"sa:saha\",\"Down\",\"38\",\"4\",\"7\",\"6B\",\"C2\",\"J\",\"79\"
\"\",\"\",\"approach-retreat\",\"228\",\"1972515\",\"0.0-228.0\",\"\",\"\",\"1-4\",\"4840\",\"37\",\"1\",\"Testing\",\"Stims/Figures/118-C-20-2.bmp\",\"fa:fa:va\",\"Left\",\"37\",\"4\",\"8\",\"6B\",\"C1\",\"J\",\"80\"
\"\",\"\",\"approach-retreat\",\"229\",\"1978654\",\"0.0-229.0\",\"\",\"\",\"1-4\",\"4635\",\"37\",\"1\",\"Testing\",\"Stims/Figures/7-C-20-4.bmp\",\"fafava\",\"Left\",\"37\",\"4\",\"9\",\"6B\",\"C1\",\"J\",\"81\"
\"\",\"\",\"approach-retreat\",\"230\",\"1984869\",\"0.0-230.0\",\"\",\"\",\"1-4\",\"4712\",\"39\",\"1\",\"Testing\",\"Stims/Figures/111-C-30-3.bmp\",\"fa:fasha\",\"Right\",\"39\",\"4\",\"10\",\"6B\",\"C1\",\"J\",\"82\"
\"\",\"\",\"approach-retreat\",\"231\",\"1991581\",\"0.0-231.0\",\"\",\"\",\"1-4\",\"5209\",\"38\",\"1\",\"Testing\",\"Stims/Figures/84-C-20-2.bmp\",\"vafa:sha\",\"Up\",\"38\",\"4\",\"11\",\"6B\",\"C1\",\"J\",\"83\"
\"\",\"\",\"approach-retreat\",\"232\",\"1997362\",\"0.0-232.0\",\"\",\"\",\"1-4\",\"4273\",\"38\",\"1\",\"Testing\",\"Stims/Figures/44-J-10-3.bmp\",\"saha:ha\",\"Down\",\"38\",\"4\",\"12\",\"6B\",\"C2\",\"J\",\"84\"
\"\",\"\",\"approach-retreat\",\"233\",\"2005342\",\"0.0-233.0\",\"\",\"\",\"1-4\",\"6475\",\"38\",\"1\",\"Testing\",\"Stims/Figures/44-C-30-3.bmp\",\"fafa:va\",\"Up\",\"38\",\"4\",\"13\",\"6B\",\"C1\",\"J\",\"85\"
\"\",\"\",\"approach-retreat\",\"234\",\"2011283\",\"0.0-234.0\",\"\",\"\",\"1-4\",\"4427\",\"39\",\"1\",\"Testing\",\"Stims/Figures/57-J-0-1.bmp\",\"zasa:ha\",\"Left\",\"39\",\"4\",\"14\",\"6B\",\"C2\",\"J\",\"86\"
\"\",\"\",\"approach-retreat\",\"235\",\"2017551\",\"0.0-235.0\",\"\",\"\",\"1-4\",\"4761\",\"38\",\"1\",\"Testing\",\"Stims/Figures/128-J-10-3.bmp\",\"sa:ha:ha\",\"Down\",\"38\",\"4\",\"15\",\"6B\",\"C2\",\"J\",\"87\"
\"\",\"\",\"approach-retreat\",\"236\",\"2025999\",\"0.0-236.0\",\"\",\"\",\"1-4\",\"6943\",\"37\",\"1\",\"Testing\",\"Stims/Figures/86-J-0-1.bmp\",\"zaha:ha\",\"Right\",\"37\",\"4\",\"16\",\"6B\",\"C2\",\"J\",\"88\"
\"\",\"\",\"approach-retreat\",\"237\",\"2031796\",\"0.0-237.0\",\"\",\"\",\"1-4\",\"4264\",\"39\",\"1\",\"Testing\",\"Stims/Figures/19-J-10-4.bmp\",\"saha:za\",\"Left\",\"39\",\"4\",\"17\",\"6B\",\"C2\",\"J\",\"89\"
\"\",\"\",\"approach-retreat\",\"238\",\"2037773\",\"0.0-238.0\",\"\",\"\",\"1-4\",\"4452\",\"40\",\"1\",\"Testing\",\"Stims/Figures/128-C-30-3.bmp\",\"fa:shasha\",\"Down\",\"40\",\"4\",\"18\",\"6B\",\"C1\",\"J\",\"90\"
\"\",\"\",\"approach-retreat\",\"239\",\"2043893\",\"0.0-239.0\",\"\",\"\",\"1-4\",\"4609\",\"39\",\"1\",\"Testing\",\"Stims/Figures/84-J-0-2.bmp\",\"zasa:za\",\"Left\",\"39\",\"4\",\"19\",\"6B\",\"C2\",\"J\",\"91\"
\"\",\"\",\"approach-retreat\",\"240\",\"2053973\",\"0.0-240.0\",\"\",\"\",\"1-4\",\"8577\",\"40\",\"1\",\"Testing\",\"Stims/Figures/74-C-20-4.bmp\",\"va:fa:va\",\"Down\",\"40\",\"4\",\"20\",\"6B\",\"C1\",\"J\",\"92\"
\"\",\"\",\"approach-retreat\",\"241\",\"2063372\",\"0.0-241.0\",\"\",\"\",\"1-4\",\"7896\",\"37\",\"0\",\"Testing\",\"Stims/Figures/139-C-20-2.bmp\",\"va:fa:sha\",\"Right\",\"39\",\"4\",\"21\",\"6B\",\"C1\",\"J\",\"93\"
\"\",\"\",\"approach-retreat\",\"242\",\"2069167\",\"0.0-242.0\",\"\",\"\",\"1-4\",\"4291\",\"40\",\"1\",\"Testing\",\"Stims/Figures/118-J-0-2.bmp\",\"za:ha:ha\",\"Up\",\"40\",\"4\",\"22\",\"6B\",\"C2\",\"J\",\"94\"
\"\",\"\",\"approach-retreat\",\"243\",\"2074998\",\"0.0-243.0\",\"\",\"\",\"1-4\",\"4327\",\"40\",\"1\",\"Testing\",\"Stims/Figures/27-J-0-1.bmp\",\"sa:ha:za\",\"Up\",\"40\",\"4\",\"23\",\"6B\",\"C2\",\"J\",\"95\"
\"\",\"\",\"approach-retreat\",\"244\",\"2080653\",\"0.0-244.0\",\"\",\"\",\"1-4\",\"4152\",\"40\",\"0\",\"Testing\",\"Stims/Figures/19-C-20-4.bmp\",\"va:sha:sha\",\"Up\",\"38\",\"4\",\"24\",\"6B\",\"C1\",\"J\",\"96\"
\"21717\",\"\",\"survey-text\",\"245\",\"2102374\",\"0.0-245.0\",\"\",\"{\"\"Q0\"\":\"\"PS170078\"\"}\",\"\",\"\",\"\",\"\",\"\",\"\",\"\",\"\",\"\",\"\",\"\",\"\",\"\",\"\",\"\"
