"rt","key_press","trial_type","trial_index","time_elapsed","internal_node_id","view_history","responses","Id","Rt","ResKeyCode","ResCorr","TrialType2","Image","Label","Location","CorrectResponse","Block","BlockTrial","Condition","LabelType","Subcondition","trialNum"
"28904","32","text","0","28920","0.0-0.0-0.0","","","","","","","","","","","","","","","","",""
"66618","","instructions","1","95550","0.0-1.0","[{""page_index"":0,""viewing_time"":66617}]","","","","","","","","","","","","","","","",""
"62106","","survey-multi-choice","2","157730","0.0-2.0","","{""Q0"":""Da"",""Q1"":""Da"",""Q2"":""Da"",""Q3"":""Da"",""Q4"":""Da"",""Q5"":""Da""}","","","","","","","","","","","","","","",""
"","","bio","3","170465","0.0-3.0","","{""age"":""19"",""gender"":""f"",""specify"":""""}","","","","","","","","","","","","","","",""
"","","approach-retreat","4","195287","0.0-4.0","","","2-4","23302","38","0","Training","Stims/Figures/128-J-10-3.bmp","None","Down","40","1","1","10","N","C","1"
"","","approach-retreat","5","202716","0.0-5.0","","","2-4","5920","37","0","Training","Stims/Figures/94-J-0-2.bmp","None","Right","39","1","2","10","N","C","2"
"","","approach-retreat","6","208828","0.0-6.0","","","2-4","4601","38","0","Training","Stims/Figures/19-C-20-4.bmp","None","Up","40","1","3","10","N","C","3"
"","","approach-retreat","7","214854","0.0-7.0","","","2-4","4497","38","1","Training","Stims/Figures/102-J-10-4.bmp","None","Up","38","1","4","10","N","C","4"
"","","approach-retreat","8","221245","0.0-8.0","","","2-4","4858","39","0","Training","Stims/Figures/57-C-30-1.bmp","None","Right","37","1","5","10","N","C","5"
"","","approach-retreat","9","230694","0.0-9.0","","","2-4","7919","38","0","Training","Stims/Figures/139-C-20-2.bmp","None","Up","40","1","6","10","N","C","6"
"","","approach-retreat","10","238190","0.0-10.0","","","2-4","5966","37","0","Training","Stims/Figures/19-J-10-4.bmp","None","Right","39","1","7","10","N","C","7"
"","","approach-retreat","11","244498","0.0-11.0","","","2-4","4774","38","0","Training","Stims/Figures/94-C-20-2.bmp","None","Up","40","1","8","10","N","C","8"
"","","approach-retreat","12","251123","0.0-12.0","","","2-4","5094","39","0","Training","Stims/Figures/27-J-0-1.bmp","None","Left","37","1","9","10","N","C","9"
"","","approach-retreat","13","257039","0.0-13.0","","","2-4","4386","39","1","Training","Stims/Figures/128-C-30-3.bmp","None","Left","39","1","10","10","N","C","10"
"","","approach-retreat","14","262916","0.0-14.0","","","2-4","4368","39","1","Training","Stims/Figures/27-C-30-1.bmp","None","Left","39","1","11","10","N","C","11"
"","","approach-retreat","15","268509","0.0-15.0","","","2-4","4084","39","1","Training","Stims/Figures/57-J-0-1.bmp","None","Right","39","1","12","10","N","C","12"
"","","approach-retreat","16","275505","0.0-16.0","","","2-4","5484","38","0","Training","Stims/Figures/139-J-0-2.bmp","None","Down","40","1","13","10","N","C","13"
"","","approach-retreat","17","281825","0.0-17.0","","","2-4","4809","40","0","Training","Stims/Figures/144-C-30-3.bmp","None","Down","38","1","14","10","N","C","14"
"","","approach-retreat","18","287822","0.0-18.0","","","2-4","4483","38","0","Training","Stims/Figures/144-J-10-3.bmp","None","Down","40","1","15","10","N","C","15"
"","","approach-retreat","19","293815","0.0-19.0","","","2-4","4464","39","1","Training","Stims/Figures/102-C-20-4.bmp","None","Left","39","1","16","10","N","C","16"
"","","approach-retreat","20","299379","0.0-20.0","","","2-4","4034","39","1","Training","Stims/Figures/27-J-0-1.bmp","None","Right","39","2","1","10","N","C","17"
"","","approach-retreat","21","305358","0.0-21.0","","","2-4","4445","39","0","Training","Stims/Figures/102-C-20-4.bmp","None","Right","37","2","2","10","N","C","18"
"","","approach-retreat","22","311113","0.0-22.0","","","2-4","4223","39","0","Training","Stims/Figures/139-J-0-2.bmp","None","Left","37","2","3","10","N","C","19"
"","","approach-retreat","23","316931","0.0-23.0","","","2-4","4289","38","0","Training","Stims/Figures/144-J-10-3.bmp","None","Down","40","2","4","10","N","C","20"
"","","approach-retreat","24","322609","0.0-24.0","","","2-4","4168","38","1","Training","Stims/Figures/57-J-0-1.bmp","None","Up","38","2","5","10","N","C","21"
"","","approach-retreat","25","329426","0.0-25.0","","","2-4","5307","38","0","Training","Stims/Figures/19-C-20-4.bmp","None","Up","40","2","6","10","N","C","22"
"","","approach-retreat","26","335507","0.0-26.0","","","2-4","4552","38","1","Training","Stims/Figures/144-C-30-3.bmp","None","Down","38","2","7","10","N","C","23"
"","","approach-retreat","27","341281","0.0-27.0","","","2-4","4243","38","1","Training","Stims/Figures/102-J-10-4.bmp","None","Up","38","2","8","10","N","C","24"
"","","approach-retreat","28","347053","0.0-28.0","","","2-4","4243","38","1","Training","Stims/Figures/57-C-30-1.bmp","None","Down","38","2","9","10","N","C","25"
"","","approach-retreat","29","352692","0.0-29.0","","","2-4","4106","39","0","Training","Stims/Figures/19-J-10-4.bmp","None","Left","37","2","10","10","N","C","26"
"","","approach-retreat","30","358796","0.0-30.0","","","2-4","4573","39","0","Training","Stims/Figures/94-C-20-2.bmp","None","Right","37","2","11","10","N","C","27"
"","","approach-retreat","31","364724","0.0-31.0","","","2-4","4414","39","1","Training","Stims/Figures/27-C-30-1.bmp","None","Left","39","2","12","10","N","C","28"
"","","approach-retreat","32","370265","0.0-32.0","","","2-4","4011","39","1","Training","Stims/Figures/94-J-0-2.bmp","None","Right","39","2","13","10","N","C","29"
"","","approach-retreat","33","375941","0.0-33.0","","","2-4","4144","39","0","Training","Stims/Figures/128-J-10-3.bmp","None","Left","37","2","14","10","N","C","30"
"","","approach-retreat","34","382014","0.0-34.0","","","2-4","4564","38","1","Training","Stims/Figures/128-C-30-3.bmp","None","Down","38","2","15","10","N","C","31"
"","","approach-retreat","35","394840","0.0-35.0","","","2-4","11316","38","0","Training","Stims/Figures/139-C-20-2.bmp","None","Up","40","2","16","10","N","C","32"
"","","approach-retreat","36","400867","0.0-36.0","","","2-4","4499","39","1","Training","Stims/Figures/57-C-30-1.bmp","None","Left","39","3","1","10","N","C","33"
"","","approach-retreat","37","406593","0.0-37.0","","","2-4","4194","39","1","Training","Stims/Figures/139-J-0-2.bmp","None","Right","39","3","2","10","N","C","34"
"","","approach-retreat","38","414667","0.0-38.0","","","2-4","6538","39","0","Training","Stims/Figures/94-J-0-2.bmp","None","Left","37","3","3","10","N","C","35"
"","","approach-retreat","39","421249","0.0-39.0","","","2-4","5049","38","1","Training","Stims/Figures/102-J-10-4.bmp","None","Up","38","3","4","10","N","C","36"
"","","approach-retreat","40","453949","0.0-40.0","","","2-4","31190","38","0","Training","Stims/Figures/144-C-30-3.bmp","None","Up","40","3","5","10","N","C","37"
"","","approach-retreat","41","459687","0.0-41.0","","","2-4","4208","38","0","Training","Stims/Figures/144-J-10-3.bmp","None","Down","40","3","6","10","N","C","38"
"","","approach-retreat","42","466079","0.0-42.0","","","2-4","4860","39","0","Training","Stims/Figures/57-J-0-1.bmp","None","Left","37","3","7","10","N","C","39"
"","","approach-retreat","43","471902","0.0-43.0","","","2-4","4294","39","1","Training","Stims/Figures/27-C-30-1.bmp","None","Left","39","3","8","10","N","C","40"
"","","approach-retreat","44","479808","0.0-44.0","","","2-4","6375","38","0","Training","Stims/Figures/139-C-20-2.bmp","None","Up","40","3","9","10","N","C","41"
"","","approach-retreat","45","486327","0.0-45.0","","","2-4","4991","40","0","Training","Stims/Figures/102-C-20-4.bmp","None","Down","38","3","10","10","N","C","42"
"","","approach-retreat","46","496472","0.0-46.0","","","2-4","8616","40","0","Training","Stims/Figures/94-C-20-2.bmp","None","Down","38","3","11","10","N","C","43"
"","","approach-retreat","47","557838","0.0-47.0","","","2-4","59857","38","1","Training","Stims/Figures/128-J-10-3.bmp","None","Up","38","3","12","10","N","C","44"
"","","approach-retreat","48","578288","0.0-48.0","","","2-4","18943","39","1","Training","Stims/Figures/19-J-10-4.bmp","None","Right","39","3","13","10","N","C","45"
"","","approach-retreat","49","585204","0.0-49.0","","","2-4","5387","39","0","Training","Stims/Figures/128-C-30-3.bmp","None","Right","37","3","14","10","N","C","46"
"","","approach-retreat","50","598140","0.0-50.0","","","2-4","11404","38","0","Training","Stims/Figures/27-J-0-1.bmp","None","Down","40","3","15","10","N","C","47"
"","","approach-retreat","51","604707","0.0-51.0","","","2-4","5037","39","0","Training","Stims/Figures/19-C-20-4.bmp","None","Right","37","3","16","10","N","C","48"
"","","approach-retreat","52","611068","0.0-52.0","","","2-4","4832","38","1","Training","Stims/Figures/144-C-30-3.bmp","None","Down","38","4","1","10","N","C","49"
"","","approach-retreat","53","617474","0.0-53.0","","","2-4","4875","39","1","Training","Stims/Figures/19-C-20-4.bmp","None","Left","39","4","2","10","N","C","50"
"","","approach-retreat","54","623268","0.0-54.0","","","2-4","4285","38","0","Training","Stims/Figures/27-C-30-1.bmp","None","Up","40","4","3","10","N","C","51"
"","","approach-retreat","55","630243","0.0-55.0","","","2-4","5466","38","0","Training","Stims/Figures/94-C-20-2.bmp","None","Up","40","4","4","10","N","C","52"
"","","approach-retreat","56","656731","0.0-56.0","","","2-4","24958","37","1","Training","Stims/Figures/128-C-30-3.bmp","None","Right","37","4","5","10","N","C","53"
"","","approach-retreat","57","675198","0.0-57.0","","","2-4","16939","37","0","Training","Stims/Figures/139-C-20-2.bmp","None","Left","39","4","6","10","N","C","54"
"","","approach-retreat","58","681074","0.0-58.0","","","2-4","4367","38","1","Training","Stims/Figures/57-C-30-1.bmp","None","Down","38","4","7","10","N","C","55"
"","","approach-retreat","59","700067","0.0-59.0","","","2-4","17482","38","0","Training","Stims/Figures/144-J-10-3.bmp","None","Down","40","4","8","10","N","C","56"
"","","approach-retreat","60","719838","0.0-60.0","","","2-4","18241","38","1","Training","Stims/Figures/128-J-10-3.bmp","None","Up","38","4","9","10","N","C","57"
"","","approach-retreat","61","733426","0.0-61.0","","","2-4","12054","39","0","Training","Stims/Figures/102-J-10-4.bmp","None","Left","37","4","10","10","N","C","58"
"","","approach-retreat","62","759387","0.0-62.0","","","2-4","24452","39","1","Training","Stims/Figures/57-J-0-1.bmp","None","Right","39","4","11","10","N","C","59"
"","","approach-retreat","63","789638","0.0-63.0","","","2-4","28720","38","1","Training","Stims/Figures/102-C-20-4.bmp","None","Down","38","4","12","10","N","C","60"
"","","approach-retreat","64","814323","0.0-64.0","","","2-4","23158","39","0","Training","Stims/Figures/139-J-0-2.bmp","None","Left","37","4","13","10","N","C","61"
"","","approach-retreat","65","840369","0.0-65.0","","","2-4","24516","37","0","Training","Stims/Figures/19-J-10-4.bmp","None","Right","39","4","14","10","N","C","62"
"","","approach-retreat","66","849792","0.0-66.0","","","2-4","7894","38","1","Training","Stims/Figures/94-J-0-2.bmp","None","Up","38","4","15","10","N","C","63"
"","","approach-retreat","67","873804","0.0-67.0","","","2-4","22485","39","1","Training","Stims/Figures/27-J-0-1.bmp","None","Right","39","4","16","10","N","C","64"
"","","approach-retreat","68","883387","0.0-68.0","","","2-4","8053","40","0","Training","Stims/Figures/128-J-10-3.bmp","None","Up","38","5","1","10","N","C","65"
"","","approach-retreat","69","896934","0.0-69.0","","","2-4","12012","38","0","Training","Stims/Figures/19-J-10-4.bmp","None","Down","40","5","2","10","N","C","66"
"","","approach-retreat","70","921787","0.0-70.0","","","2-4","23344","39","0","Training","Stims/Figures/144-J-10-3.bmp","None","Left","37","5","3","10","N","C","67"
"","","approach-retreat","71","944862","0.0-71.0","","","2-4","21567","39","0","Training","Stims/Figures/139-J-0-2.bmp","None","Left","37","5","4","10","N","C","68"
"","","approach-retreat","72","959638","0.0-72.0","","","2-4","13248","40","1","Training","Stims/Figures/27-J-0-1.bmp","None","Down","40","5","5","10","N","C","69"
"","","approach-retreat","73","977473","0.0-73.0","","","2-4","16307","40","0","Training","Stims/Figures/27-C-30-1.bmp","None","Down","38","5","6","10","N","C","70"
"","","approach-retreat","74","985692","0.0-74.0","","","2-4","6708","39","0","Training","Stims/Figures/128-C-30-3.bmp","None","Right","37","5","7","10","N","C","71"
"","","approach-retreat","75","997149","0.0-75.0","","","2-4","9927","39","0","Training","Stims/Figures/94-J-0-2.bmp","None","Left","37","5","8","10","N","C","72"
"","","approach-retreat","76","1005501","0.0-76.0","","","2-4","6823","39","1","Training","Stims/Figures/139-C-20-2.bmp","None","Left","39","5","9","10","N","C","73"
"","","approach-retreat","77","1018550","0.0-77.0","","","2-4","11519","39","1","Training","Stims/Figures/57-J-0-1.bmp","None","Right","39","5","10","10","N","C","74"
"","","approach-retreat","78","1027222","0.0-78.0","","","2-4","7140","40","1","Training","Stims/Figures/94-C-20-2.bmp","None","Up","40","5","11","10","N","C","75"
"","","approach-retreat","79","1052300","0.0-79.0","","","2-4","23548","38","1","Training","Stims/Figures/102-C-20-4.bmp","None","Down","38","5","12","10","N","C","76"
"","","approach-retreat","80","1083081","0.0-80.0","","","2-4","29245","38","0","Training","Stims/Figures/144-C-30-3.bmp","None","Up","40","5","13","10","N","C","77"
"","","approach-retreat","81","1109728","0.0-81.0","","","2-4","25116","40","0","Training","Stims/Figures/102-J-10-4.bmp","None","Up","38","5","14","10","N","C","78"
"","","approach-retreat","82","1138953","0.0-82.0","","","2-4","27692","39","0","Training","Stims/Figures/57-C-30-1.bmp","None","Right","37","5","15","10","N","C","79"
"","","approach-retreat","83","1144568","0.0-83.0","","","2-4","4084","39","0","Training","Stims/Figures/19-C-20-4.bmp","None","Right","37","5","16","10","N","C","80"
"","","approach-retreat","84","1150315","0.0-84.0","","","2-4","4216","38","0","Training","Stims/Figures/27-J-0-1.bmp","None","Down","40","6","1","10","N","C","81"
"","","approach-retreat","85","1156132","0.0-85.0","","","2-4","4287","39","1","Training","Stims/Figures/128-J-10-3.bmp","None","Right","39","6","2","10","N","C","82"
"","","approach-retreat","86","1163460","0.0-86.0","","","2-4","5820","38","0","Training","Stims/Figures/144-C-30-3.bmp","None","Up","40","6","3","10","N","C","83"
"","","approach-retreat","87","1196365","0.0-87.0","","","2-4","31396","39","0","Training","Stims/Figures/57-C-30-1.bmp","None","Right","37","6","4","10","N","C","84"
"","","approach-retreat","88","1202619","0.0-88.0","","","2-4","4725","39","1","Training","Stims/Figures/19-J-10-4.bmp","None","Right","39","6","5","10","N","C","85"
"","","approach-retreat","89","1224899","0.0-89.0","","","2-4","20752","40","0","Training","Stims/Figures/128-C-30-3.bmp","None","Down","38","6","6","10","N","C","86"
"","","approach-retreat","90","1248919","0.0-90.0","","","2-4","22511","40","1","Training","Stims/Figures/102-C-20-4.bmp","None","Up","40","6","7","10","N","C","87"
"","","approach-retreat","91","1261776","0.0-91.0","","","2-4","11329","38","1","Training","Stims/Figures/94-J-0-2.bmp","None","Up","38","6","8","10","N","C","88"
"","","approach-retreat","92","1275336","0.0-92.0","","","2-4","12028","39","1","Training","Stims/Figures/94-C-20-2.bmp","None","Left","39","6","9","10","N","C","89"
"","","approach-retreat","93","1307866","0.0-93.0","","","2-4","31021","37","1","Training","Stims/Figures/102-J-10-4.bmp","None","Left","37","6","10","10","N","C","90"
"","","approach-retreat","94","1319367","0.0-94.0","","","2-4","9979","37","1","Training","Stims/Figures/57-J-0-1.bmp","None","Left","37","6","11","10","N","C","91"
"","","approach-retreat","95","1328823","0.0-95.0","","","2-4","7926","40","1","Training","Stims/Figures/139-C-20-2.bmp","None","Up","40","6","12","10","N","C","92"
"","","approach-retreat","96","1352863","0.0-96.0","","","2-4","22512","39","1","Training","Stims/Figures/144-J-10-3.bmp","None","Right","39","6","13","10","N","C","93"
"","","approach-retreat","97","1362925","0.0-97.0","","","2-4","8534","39","1","Training","Stims/Figures/27-C-30-1.bmp","None","Left","39","6","14","10","N","C","94"
"","","approach-retreat","98","1386769","0.0-98.0","","","2-4","22313","38","0","Training","Stims/Figures/139-J-0-2.bmp","None","Down","40","6","15","10","N","C","95"
"","","approach-retreat","99","1415076","0.0-99.0","","","2-4","26777","40","0","Training","Stims/Figures/19-C-20-4.bmp","None","Down","38","6","16","10","N","C","96"
"","","approach-retreat","100","1442633","0.0-100.0","","","2-4","26018","38","1","Training","Stims/Figures/139-J-0-2.bmp","None","Up","38","7","1","10","N","C","97"
"","","approach-retreat","101","1460445","0.0-101.0","","","2-4","16282","40","0","Training","Stims/Figures/19-C-20-4.bmp","None","Down","38","7","2","10","N","C","98"
"","","approach-retreat","102","1479966","0.0-102.0","","","2-4","18012","39","1","Training","Stims/Figures/94-C-20-2.bmp","None","Left","39","7","3","10","N","C","99"
"","","approach-retreat","103","1490795","0.0-103.0","","","2-4","9298","39","0","Training","Stims/Figures/57-C-30-1.bmp","None","Right","37","7","4","10","N","C","100"
"","","approach-retreat","104","1509653","0.0-104.0","","","2-4","17328","39","1","Training","Stims/Figures/139-C-20-2.bmp","None","Left","39","7","5","10","N","C","101"
"","","approach-retreat","105","1517535","0.0-105.0","","","2-4","6351","39","0","Training","Stims/Figures/27-C-30-1.bmp","None","Right","37","7","6","10","N","C","102"
"","","approach-retreat","106","1528590","0.0-106.0","","","2-4","9547","40","1","Training","Stims/Figures/144-C-30-3.bmp","None","Up","40","7","7","10","N","C","103"
"","","approach-retreat","107","1534836","0.0-107.0","","","2-4","4714","39","0","Training","Stims/Figures/128-J-10-3.bmp","None","Left","37","7","8","10","N","C","104"
"","","approach-retreat","108","1546223","0.0-108.0","","","2-4","9858","40","1","Training","Stims/Figures/27-J-0-1.bmp","None","Down","40","7","9","10","N","C","105"
"","","approach-retreat","109","1552437","0.0-109.0","","","2-4","4683","40","0","Training","Stims/Figures/19-J-10-4.bmp","None","Up","38","7","10","10","N","C","106"
"","","approach-retreat","110","1558097","0.0-110.0","","","2-4","4129","40","1","Training","Stims/Figures/102-J-10-4.bmp","None","Down","40","7","11","10","N","C","107"
"","","approach-retreat","111","1564316","0.0-111.0","","","2-4","4700","39","0","Training","Stims/Figures/144-J-10-3.bmp","None","Left","37","7","12","10","N","C","108"
"","","approach-retreat","112","1571345","0.0-112.0","","","2-4","5498","39","1","Training","Stims/Figures/57-J-0-1.bmp","None","Right","39","7","13","10","N","C","109"
"","","approach-retreat","113","1577567","0.0-113.0","","","2-4","4698","40","0","Training","Stims/Figures/102-C-20-4.bmp","None","Down","38","7","14","10","N","C","110"
"","","approach-retreat","114","1583122","0.0-114.0","","","2-4","4045","39","1","Training","Stims/Figures/94-J-0-2.bmp","None","Right","39","7","15","10","N","C","111"
"","","approach-retreat","115","1589289","0.0-115.0","","","2-4","4656","38","0","Training","Stims/Figures/128-C-30-3.bmp","None","Up","40","7","16","10","N","C","112"
"","","approach-retreat","116","1595343","0.0-116.0","","","2-4","4523","39","1","Training","Stims/Figures/144-J-10-3.bmp","None","Right","39","8","1","10","N","C","113"
"","","approach-retreat","117","1602360","0.0-117.0","","","2-4","5488","40","1","Training","Stims/Figures/102-J-10-4.bmp","None","Down","40","8","2","10","N","C","114"
"","","approach-retreat","118","1651304","0.0-118.0","","","2-4","47414","38","1","Training","Stims/Figures/94-J-0-2.bmp","None","Up","38","8","3","10","N","C","115"
"","","approach-retreat","119","1692754","0.0-119.0","","","2-4","39923","39","0","Training","Stims/Figures/128-C-30-3.bmp","None","Right","37","8","4","10","N","C","116"
"","","approach-retreat","120","1699084","0.0-120.0","","","2-4","4824","38","1","Training","Stims/Figures/94-C-20-2.bmp","None","Down","38","8","5","10","N","C","117"
"","","approach-retreat","121","1705034","0.0-121.0","","","2-4","4439","39","0","Training","Stims/Figures/19-C-20-4.bmp","None","Right","37","8","6","10","N","C","118"
"","","approach-retreat","122","1710954","0.0-122.0","","","2-4","4410","39","0","Training","Stims/Figures/139-J-0-2.bmp","None","Left","37","8","7","10","N","C","119"
"","","approach-retreat","123","1717413","0.0-123.0","","","2-4","4927","38","0","Training","Stims/Figures/139-C-20-2.bmp","None","Up","40","8","8","10","N","C","120"
"","","approach-retreat","124","1732081","0.0-124.0","","","2-4","13137","38","1","Training","Stims/Figures/27-J-0-1.bmp","None","Up","38","8","9","10","N","C","121"
"","","approach-retreat","125","1741303","0.0-125.0","","","2-4","7690","38","0","Training","Stims/Figures/27-C-30-1.bmp","None","Up","40","8","10","10","N","C","122"
"","","approach-retreat","126","1747715","0.0-126.0","","","2-4","4883","39","0","Training","Stims/Figures/57-J-0-1.bmp","None","Left","37","8","11","10","N","C","123"
"","","approach-retreat","127","1753484","0.0-127.0","","","2-4","4240","39","0","Training","Stims/Figures/128-J-10-3.bmp","None","Left","37","8","12","10","N","C","124"
"","","approach-retreat","128","1759423","0.0-128.0","","","2-4","4429","38","0","Training","Stims/Figures/19-J-10-4.bmp","None","Down","40","8","13","10","N","C","125"
"","","approach-retreat","129","1765473","0.0-129.0","","","2-4","4538","39","0","Training","Stims/Figures/57-C-30-1.bmp","None","Right","37","8","14","10","N","C","126"
"","","approach-retreat","130","1771139","0.0-130.0","","","2-4","4158","39","1","Training","Stims/Figures/144-C-30-3.bmp","None","Left","39","8","15","10","N","C","127"
"","","approach-retreat","131","1778327","0.0-131.0","","","2-4","5658","38","1","Training","Stims/Figures/102-C-20-4.bmp","None","Down","38","8","16","10","N","C","128"
"","","approach-retreat","132","1783961","0.0-132.0","","","2-4","4103","39","1","Training","Stims/Figures/19-C-20-4.bmp","None","Left","39","9","1","10","N","C","129"
"","","approach-retreat","133","1791026","0.0-133.0","","","2-4","5538","38","0","Training","Stims/Figures/57-J-0-1.bmp","None","Down","40","9","2","10","N","C","130"
"","","approach-retreat","134","1796893","0.0-134.0","","","2-4","4339","38","0","Training","Stims/Figures/94-J-0-2.bmp","None","Down","40","9","3","10","N","C","131"
"","","approach-retreat","135","1802591","0.0-135.0","","","2-4","4184","39","1","Training","Stims/Figures/128-C-30-3.bmp","None","Left","39","9","4","10","N","C","132"
"","","approach-retreat","136","1811258","0.0-136.0","","","2-4","7136","38","1","Training","Stims/Figures/27-J-0-1.bmp","None","Up","38","9","5","10","N","C","133"
"","","approach-retreat","137","1833874","0.0-137.0","","","2-4","21086","39","1","Training","Stims/Figures/128-J-10-3.bmp","None","Right","39","9","6","10","N","C","134"
"","","approach-retreat","138","1839587","0.0-138.0","","","2-4","4179","39","0","Training","Stims/Figures/27-C-30-1.bmp","None","Right","37","9","7","10","N","C","135"
"","","approach-retreat","139","1845156","0.0-139.0","","","2-4","4035","38","0","Training","Stims/Figures/139-C-20-2.bmp","None","Up","40","9","8","10","N","C","136"
"","","approach-retreat","140","1851544","0.0-140.0","","","2-4","4858","39","1","Training","Stims/Figures/102-C-20-4.bmp","None","Left","39","9","9","10","N","C","137"
"","","approach-retreat","141","1862958","0.0-141.0","","","2-4","9885","38","0","Training","Stims/Figures/139-J-0-2.bmp","None","Down","40","9","10","10","N","C","138"
"","","approach-retreat","142","1870507","0.0-142.0","","","2-4","6021","38","0","Training","Stims/Figures/19-J-10-4.bmp","None","Down","40","9","11","10","N","C","139"
"","","approach-retreat","143","1876089","0.0-143.0","","","2-4","4051","38","0","Training","Stims/Figures/144-C-30-3.bmp","None","Up","40","9","12","10","N","C","140"
"","","approach-retreat","144","1881803","0.0-144.0","","","2-4","4206","39","1","Training","Stims/Figures/57-C-30-1.bmp","None","Left","39","9","13","10","N","C","141"
"","","approach-retreat","145","1887739","0.0-145.0","","","2-4","4426","39","0","Training","Stims/Figures/94-C-20-2.bmp","None","Right","37","9","14","10","N","C","142"
"","","approach-retreat","146","1895948","0.0-146.0","","","2-4","6680","39","1","Training","Stims/Figures/144-J-10-3.bmp","None","Right","39","9","15","10","N","C","143"
"","","approach-retreat","147","1901598","0.0-147.0","","","2-4","4141","38","1","Training","Stims/Figures/102-J-10-4.bmp","None","Up","38","9","16","10","N","C","144"
"70764","","instructions","148","1972362","0.0-148.0","[{""page_index"":0,""viewing_time"":70762}]","","","","","","","","","","","","","","","",""
"","","approach-retreat","149","2012660","0.0-149.0","","","2-4","38768","38","0","Testing","Stims/Figures/57-C-30-1.bmp","None","Up","40","1","1","10","N","C","1"
"","","approach-retreat","150","2018380","0.0-150.0","","","2-4","4190","39","0","Testing","Stims/Figures/100-J-10-3.bmp","None","Left","37","1","2","10","N","C","2"
"","","approach-retreat","151","2023944","0.0-151.0","","","2-4","4033","39","0","Testing","Stims/Figures/19-C-20-4.bmp","None","Right","37","1","3","10","N","C","3"
"","","approach-retreat","152","2029784","0.0-152.0","","","2-4","4319","38","0","Testing","Stims/Figures/19-J-10-4.bmp","None","Down","40","1","4","10","N","C","4"
"","","approach-retreat","153","2035726","0.0-153.0","","","2-4","4401","38","1","Testing","Stims/Figures/27-C-30-1.bmp","None","Down","38","1","5","10","N","C","5"
"","","approach-retreat","154","2043335","0.0-154.0","","","2-4","6083","38","0","Testing","Stims/Figures/7-C-20-4.bmp","None","Up","40","1","6","10","N","C","6"
"","","approach-retreat","155","2049447","0.0-155.0","","","2-4","4582","39","0","Testing","Stims/Figures/139-C-20-2.bmp","None","Right","37","1","7","10","N","C","7"
"","","approach-retreat","156","2056244","0.0-156.0","","","2-4","5267","40","0","Testing","Stims/Figures/128-J-10-3.bmp","None","Up","38","1","8","10","N","C","8"
"","","approach-retreat","157","2063601","0.0-157.0","","","2-4","5849","40","0","Testing","Stims/Figures/94-C-20-2.bmp","None","Down","38","1","9","10","N","C","9"
"","","approach-retreat","158","2070176","0.0-158.0","","","2-4","5065","38","0","Testing","Stims/Figures/84-C-20-2.bmp","None","Up","40","1","10","10","N","C","10"
"","","approach-retreat","159","2077263","0.0-159.0","","","2-4","5559","39","1","Testing","Stims/Figures/128-C-30-3.bmp","None","Left","39","1","11","10","N","C","11"
"","","approach-retreat","160","2083284","0.0-160.0","","","2-4","4491","40","0","Testing","Stims/Figures/71-C-30-1.bmp","None","Down","38","1","12","10","N","C","12"
"","","approach-retreat","161","2089639","0.0-161.0","","","2-4","4825","39","0","Testing","Stims/Figures/144-J-10-3.bmp","None","Left","37","1","13","10","N","C","13"
"","","approach-retreat","162","2095374","0.0-162.0","","","2-4","4205","38","0","Testing","Stims/Figures/27-J-0-1.bmp","None","Down","40","1","14","10","N","C","14"
"","","approach-retreat","163","2101198","0.0-163.0","","","2-4","4294","39","0","Testing","Stims/Figures/144-C-30-3.bmp","None","Right","37","1","15","10","N","C","15"
"","","approach-retreat","164","2111465","0.0-164.0","","","2-4","8739","40","1","Testing","Stims/Figures/71-J-0-1.bmp","None","Down","40","1","16","10","N","C","16"
"","","approach-retreat","165","2120997","0.0-165.0","","","2-4","8014","39","0","Testing","Stims/Figures/100-C-30-3.bmp","None","Right","37","1","17","10","N","C","17"
"","","approach-retreat","166","2136483","0.0-166.0","","","2-4","13977","40","1","Testing","Stims/Figures/102-C-20-4.bmp","None","Up","40","1","18","10","N","C","18"
"","","approach-retreat","167","2144509","0.0-167.0","","","2-4","6496","39","0","Testing","Stims/Figures/139-J-0-2.bmp","None","Left","37","1","19","10","N","C","19"
"","","approach-retreat","168","2153863","0.0-168.0","","","2-4","7825","39","0","Testing","Stims/Figures/57-J-0-1.bmp","None","Left","37","1","20","10","N","C","20"
"","","approach-retreat","169","2159715","0.0-169.0","","","2-4","4324","39","1","Testing","Stims/Figures/94-J-0-2.bmp","None","Right","39","1","21","10","N","C","21"
"","","approach-retreat","170","2165167","0.0-170.0","","","2-4","3922","39","1","Testing","Stims/Figures/84-J-0-2.bmp","None","Right","39","1","22","10","N","C","22"
"","","approach-retreat","171","2170779","0.0-171.0","","","2-4","4084","39","0","Testing","Stims/Figures/7-J-10-4.bmp","None","Left","37","1","23","10","N","C","23"
"","","approach-retreat","172","2177554","0.0-172.0","","","2-4","5246","38","1","Testing","Stims/Figures/102-J-10-4.bmp","None","Up","38","1","24","10","N","C","24"
"","","approach-retreat","173","2183023","0.0-173.0","","","2-4","3960","39","1","Testing","Stims/Figures/27-J-0-1.bmp","None","Right","39","2","1","10","N","C","25"
"","","approach-retreat","174","2189454","0.0-174.0","","","2-4","4921","39","1","Testing","Stims/Figures/71-J-0-1.bmp","None","Right","39","2","2","10","N","C","26"
"","","approach-retreat","175","2195077","0.0-175.0","","","2-4","4113","38","0","Testing","Stims/Figures/100-C-30-3.bmp","None","Up","40","2","3","10","N","C","27"
"","","approach-retreat","176","2200941","0.0-176.0","","","2-4","4337","38","1","Testing","Stims/Figures/102-J-10-4.bmp","None","Up","38","2","4","10","N","C","28"
"","","approach-retreat","177","2206667","0.0-177.0","","","2-4","4197","38","0","Testing","Stims/Figures/144-J-10-3.bmp","None","Down","40","2","5","10","N","C","29"
"","","approach-retreat","178","2212342","0.0-178.0","","","2-4","4147","38","0","Testing","Stims/Figures/84-J-0-2.bmp","None","Down","40","2","6","10","N","C","30"
"","","approach-retreat","179","2217884","0.0-179.0","","","2-4","4011","39","0","Testing","Stims/Figures/84-C-20-2.bmp","None","Right","37","2","7","10","N","C","31"
"","","approach-retreat","180","2223364","0.0-180.0","","","2-4","3949","38","1","Testing","Stims/Figures/19-J-10-4.bmp","None","Up","38","2","8","10","N","C","32"
"","","approach-retreat","181","2228901","0.0-181.0","","","2-4","4009","38","0","Testing","Stims/Figures/57-C-30-1.bmp","None","Up","40","2","9","10","N","C","33"
"","","approach-retreat","182","2234472","0.0-182.0","","","2-4","4042","39","0","Testing","Stims/Figures/94-C-20-2.bmp","None","Right","37","2","10","10","N","C","34"
"","","approach-retreat","183","2240051","0.0-183.0","","","2-4","4070","38","0","Testing","Stims/Figures/100-J-10-3.bmp","None","Down","40","2","11","10","N","C","35"
"","","approach-retreat","184","2245627","0.0-184.0","","","2-4","4066","39","1","Testing","Stims/Figures/7-C-20-4.bmp","None","Left","39","2","12","10","N","C","36"
"","","approach-retreat","185","2251232","0.0-185.0","","","2-4","4078","39","1","Testing","Stims/Figures/144-C-30-3.bmp","None","Left","39","2","13","10","N","C","37"
"","","approach-retreat","186","2256923","0.0-186.0","","","2-4","4159","38","0","Testing","Stims/Figures/94-J-0-2.bmp","None","Down","40","2","14","10","N","C","38"
"","","approach-retreat","187","2263370","0.0-187.0","","","2-4","4933","39","1","Testing","Stims/Figures/139-J-0-2.bmp","None","Right","39","2","15","10","N","C","39"
"","","approach-retreat","188","2269423","0.0-188.0","","","2-4","4518","39","1","Testing","Stims/Figures/128-C-30-3.bmp","None","Left","39","2","16","10","N","C","40"
"","","approach-retreat","189","2275452","0.0-189.0","","","2-4","4500","39","1","Testing","Stims/Figures/57-J-0-1.bmp","None","Right","39","2","17","10","N","C","41"
"","","approach-retreat","190","2290195","0.0-190.0","","","2-4","13213","39","1","Testing","Stims/Figures/71-C-30-1.bmp","None","Left","39","2","18","10","N","C","42"
"","","approach-retreat","191","2297476","0.0-191.0","","","2-4","5770","38","0","Testing","Stims/Figures/102-C-20-4.bmp","None","Up","40","2","19","10","N","C","43"
"","","approach-retreat","192","2313150","0.0-192.0","","","2-4","14162","39","0","Testing","Stims/Figures/7-J-10-4.bmp","None","Left","37","2","20","10","N","C","44"
"","","approach-retreat","193","2320409","0.0-193.0","","","2-4","5728","38","1","Testing","Stims/Figures/19-C-20-4.bmp","None","Down","38","2","21","10","N","C","45"
"","","approach-retreat","194","2375131","0.0-194.0","","","2-4","53194","38","1","Testing","Stims/Figures/128-J-10-3.bmp","None","Up","38","2","22","10","N","C","46"
"","","approach-retreat","195","2388748","0.0-195.0","","","2-4","12089","38","1","Testing","Stims/Figures/139-C-20-2.bmp","None","Down","38","2","23","10","N","C","47"
"","","approach-retreat","196","2397263","0.0-196.0","","","2-4","6986","39","1","Testing","Stims/Figures/27-C-30-1.bmp","None","Left","39","2","24","10","N","C","48"
"","","approach-retreat","197","2418521","0.0-197.0","","","2-4","19729","39","0","Testing","Stims/Figures/7-C-20-4.bmp","None","Right","37","3","1","10","N","C","49"
"","","approach-retreat","198","2426110","0.0-198.0","","","2-4","6078","39","1","Testing","Stims/Figures/27-C-30-1.bmp","None","Left","39","3","2","10","N","C","50"
"","","approach-retreat","199","2433157","0.0-199.0","","","2-4","5517","38","1","Testing","Stims/Figures/144-J-10-3.bmp","None","Up","38","3","3","10","N","C","51"
"","","approach-retreat","200","2441646","0.0-200.0","","","2-4","6959","39","0","Testing","Stims/Figures/100-C-30-3.bmp","None","Right","37","3","4","10","N","C","52"
"","","approach-retreat","201","2451595","0.0-201.0","","","2-4","8419","39","0","Testing","Stims/Figures/128-J-10-3.bmp","None","Left","37","3","5","10","N","C","53"
"","","approach-retreat","202","2457831","0.0-202.0","","","2-4","4707","39","0","Testing","Stims/Figures/57-J-0-1.bmp","None","Left","37","3","6","10","N","C","54"
"","","approach-retreat","203","2464073","0.0-203.0","","","2-4","4713","38","1","Testing","Stims/Figures/102-C-20-4.bmp","None","Down","38","3","7","10","N","C","55"
"","","approach-retreat","204","2471317","0.0-204.0","","","2-4","5715","39","1","Testing","Stims/Figures/71-J-0-1.bmp","None","Right","39","3","8","10","N","C","56"
"","","approach-retreat","205","2478760","0.0-205.0","","","2-4","5912","38","0","Testing","Stims/Figures/94-C-20-2.bmp","None","Up","40","3","9","10","N","C","57"
"","","approach-retreat","206","2495170","0.0-206.0","","","2-4","14899","39","1","Testing","Stims/Figures/139-J-0-2.bmp","None","Right","39","3","10","10","N","C","58"
"","","approach-retreat","207","2502095","0.0-207.0","","","2-4","5397","38","0","Testing","Stims/Figures/94-J-0-2.bmp","None","Down","40","3","11","10","N","C","59"
"","","approach-retreat","208","2521339","0.0-208.0","","","2-4","17733","39","1","Testing","Stims/Figures/57-C-30-1.bmp","None","Left","39","3","12","10","N","C","60"
"","","approach-retreat","209","2527200","0.0-209.0","","","2-4","4330","38","0","Testing","Stims/Figures/19-C-20-4.bmp","None","Up","40","3","13","10","N","C","61"
"","","approach-retreat","210","2535574","0.0-210.0","","","2-4","6845","38","0","Testing","Stims/Figures/19-J-10-4.bmp","None","Down","40","3","14","10","N","C","62"
"","","approach-retreat","211","2545902","0.0-211.0","","","2-4","8818","39","0","Testing","Stims/Figures/84-J-0-2.bmp","None","Left","37","3","15","10","N","C","63"
"","","approach-retreat","212","2552857","0.0-212.0","","","2-4","5447","38","0","Testing","Stims/Figures/84-C-20-2.bmp","None","Up","40","3","16","10","N","C","64"
"","","approach-retreat","213","2559010","0.0-213.0","","","2-4","4624","38","1","Testing","Stims/Figures/27-J-0-1.bmp","None","Up","38","3","17","10","N","C","65"
"","","approach-retreat","214","2565125","0.0-214.0","","","2-4","4585","38","0","Testing","Stims/Figures/102-J-10-4.bmp","None","Down","40","3","18","10","N","C","66"
"","","approach-retreat","215","2575123","0.0-215.0","","","2-4","8479","38","0","Testing","Stims/Figures/139-C-20-2.bmp","None","Up","40","3","19","10","N","C","67"
"","","approach-retreat","216","2582885","0.0-216.0","","","2-4","6233","38","1","Testing","Stims/Figures/128-C-30-3.bmp","None","Down","38","3","20","10","N","C","68"
"","","approach-retreat","217","2589991","0.0-217.0","","","2-4","5581","39","1","Testing","Stims/Figures/71-C-30-1.bmp","None","Left","39","3","21","10","N","C","69"
"","","approach-retreat","218","2596533","0.0-218.0","","","2-4","5012","39","0","Testing","Stims/Figures/144-C-30-3.bmp","None","Right","37","3","22","10","N","C","70"
"","","approach-retreat","219","2613585","0.0-219.0","","","2-4","15542","39","1","Testing","Stims/Figures/100-J-10-3.bmp","None","Right","39","3","23","10","N","C","71"
"","","approach-retreat","220","2621356","0.0-220.0","","","2-4","6243","38","0","Testing","Stims/Figures/7-J-10-4.bmp","None","Down","40","3","24","10","N","C","72"
"","","approach-retreat","221","2628859","0.0-221.0","","","2-4","5973","39","0","Testing","Stims/Figures/7-C-20-4.bmp","None","Right","37","4","1","10","N","C","73"
"","","approach-retreat","222","2635500","0.0-222.0","","","2-4","5111","39","1","Testing","Stims/Figures/27-C-30-1.bmp","None","Left","39","4","2","10","N","C","74"
"","","approach-retreat","223","2641080","0.0-223.0","","","2-4","4050","39","1","Testing","Stims/Figures/94-C-20-2.bmp","None","Left","39","4","3","10","N","C","75"
"","","approach-retreat","224","2647491","0.0-224.0","","","2-4","4879","38","0","Testing","Stims/Figures/19-J-10-4.bmp","None","Down","40","4","4","10","N","C","76"
"","","approach-retreat","225","2661478","0.0-225.0","","","2-4","12455","39","0","Testing","Stims/Figures/57-C-30-1.bmp","None","Right","37","4","5","10","N","C","77"
"","","approach-retreat","226","2674658","0.0-226.0","","","2-4","11670","38","0","Testing","Stims/Figures/57-J-0-1.bmp","None","Down","40","4","6","10","N","C","78"
"","","approach-retreat","227","2686200","0.0-227.0","","","2-4","10012","39","1","Testing","Stims/Figures/7-J-10-4.bmp","None","Right","39","4","7","10","N","C","79"
"","","approach-retreat","228","2704818","0.0-228.0","","","2-4","17092","39","1","Testing","Stims/Figures/84-C-20-2.bmp","None","Left","39","4","8","10","N","C","80"
"","","approach-retreat","229","2711289","0.0-229.0","","","2-4","4943","38","0","Testing","Stims/Figures/102-J-10-4.bmp","None","Down","40","4","9","10","N","C","81"
"","","approach-retreat","230","2741299","0.0-230.0","","","2-4","28497","38","1","Testing","Stims/Figures/71-J-0-1.bmp","None","Up","38","4","10","10","N","C","82"
"","","approach-retreat","231","2795559","0.0-231.0","","","2-4","52732","38","0","Testing","Stims/Figures/100-C-30-3.bmp","None","Up","40","4","11","10","N","C","83"
"","","approach-retreat","232","2803287","0.0-232.0","","","2-4","6201","39","0","Testing","Stims/Figures/94-J-0-2.bmp","None","Left","37","4","12","10","N","C","84"
"","","approach-retreat","233","2809769","0.0-233.0","","","2-4","4955","38","1","Testing","Stims/Figures/100-J-10-3.bmp","None","Up","38","4","13","10","N","C","85"
"","","approach-retreat","234","2819559","0.0-234.0","","","2-4","8260","39","0","Testing","Stims/Figures/128-C-30-3.bmp","None","Right","37","4","14","10","N","C","86"
"","","approach-retreat","235","2828964","0.0-235.0","","","2-4","7879","38","1","Testing","Stims/Figures/84-J-0-2.bmp","None","Up","38","4","15","10","N","C","87"
"","","approach-retreat","236","2835781","0.0-236.0","","","2-4","5289","38","1","Testing","Stims/Figures/27-J-0-1.bmp","None","Up","38","4","16","10","N","C","88"
"","","approach-retreat","237","2845289","0.0-237.0","","","2-4","7999","38","1","Testing","Stims/Figures/71-C-30-1.bmp","None","Down","38","4","17","10","N","C","89"
"","","approach-retreat","238","2851731","0.0-238.0","","","2-4","4932","39","0","Testing","Stims/Figures/139-J-0-2.bmp","None","Left","37","4","18","10","N","C","90"
"","","approach-retreat","239","2857821","0.0-239.0","","","2-4","4557","39","1","Testing","Stims/Figures/128-J-10-3.bmp","None","Right","39","4","19","10","N","C","91"
"","","approach-retreat","240","2864024","0.0-240.0","","","2-4","4685","38","1","Testing","Stims/Figures/19-C-20-4.bmp","None","Down","38","4","20","10","N","C","92"
"","","approach-retreat","241","2870389","0.0-241.0","","","2-4","4836","38","1","Testing","Stims/Figures/144-J-10-3.bmp","None","Up","38","4","21","10","N","C","93"
"","","approach-retreat","242","2880629","0.0-242.0","","","2-4","8709","39","0","Testing","Stims/Figures/102-C-20-4.bmp","None","Right","37","4","22","10","N","C","94"
"","","approach-retreat","243","2886676","0.0-243.0","","","2-4","4518","39","1","Testing","Stims/Figures/144-C-30-3.bmp","None","Left","39","4","23","10","N","C","95"
"","","approach-retreat","244","2892922","0.0-244.0","","","2-4","4715","40","0","Testing","Stims/Figures/139-C-20-2.bmp","None","Down","38","4","24","10","N","C","96"
"52350","","survey-text","245","2945281","0.0-245.0","","{""Q0"":""0087/2018""}","","","","","","","","","","","","","","",""
