\"rt\",\"key_press\",\"trial_type\",\"trial_index\",\"time_elapsed\",\"internal_node_id\",\"view_history\",\"responses\",\"Id\",\"Rt\",\"ResKeyCode\",\"ResCorr\",\"TrialType2\",\"Image\",\"Label\",\"Location\",\"CorrectResponse\",\"Block\",\"BlockTrial\",\"Condition\",\"LabelType\",\"Subcondition\",\"trialNum\"
\"72162\",\"32\",\"text\",\"0\",\"72166\",\"0.0-0.0-0.0\",\"\",\"\",\"\",\"\",\"\",\"\",\"\",\"\",\"\",\"\",\"\",\"\",\"\",\"\",\"\",\"\",\"\"
\"117443\",\"\",\"instructions\",\"1\",\"189609\",\"0.0-1.0\",\"[{\"\"page_index\"\":0,\"\"viewing_time\"\":117442}]\",\"\",\"\",\"\",\"\",\"\",\"\",\"\",\"\",\"\",\"\",\"\",\"\",\"\",\"\",\"\",\"\"
\"37893\",\"\",\"survey-multi-choice\",\"2\",\"227527\",\"0.0-2.0\",\"\",\"{\"\"Q0\"\":\"\"Da\"\",\"\"Q1\"\":\"\"Da\"\",\"\"Q2\"\":\"\"Da\"\",\"\"Q3\"\":\"\"Da\"\",\"\"Q4\"\":\"\"Da\"\",\"\"Q5\"\":\"\"Da\"\"}\",\"\",\"\",\"\",\"\",\"\",\"\",\"\",\"\",\"\",\"\",\"\",\"\",\"\",\"\",\"\"
\"\",\"\",\"bio\",\"3\",\"238562\",\"0.0-3.0\",\"\",\"{\"\"age\"\":\"\"20\"\",\"\"gender\"\":\"\"m\"\",\"\"specify\"\":\"\"\"\"}\",\"\",\"\",\"\",\"\",\"\",\"\",\"\",\"\",\"\",\"\",\"\",\"\",\"\",\"\",\"\"
\"\",\"\",\"approach-retreat\",\"4\",\"249007\",\"0.0-4.0\",\"\",\"\",\"2-2\",\"8935\",\"37\",\"1\",\"Training\",\"Stims/Figures/44-J-10-3.bmp\",\"tapa:ta\",\"Left\",\"37\",\"1\",\"1\",\"4\",\"P\",\"C\",\"1\"
\"\",\"\",\"approach-retreat\",\"5\",\"257711\",\"0.0-5.0\",\"\",\"\",\"2-2\",\"7199\",\"38\",\"0\",\"Training\",\"Stims/Figures/118-C-20-2.bmp\",\"ma:la:la\",\"Up\",\"40\",\"1\",\"2\",\"4\",\"S\",\"C\",\"2\"
\"\",\"\",\"approach-retreat\",\"6\",\"263816\",\"0.0-6.0\",\"\",\"\",\"2-2\",\"4599\",\"39\",\"0\",\"Training\",\"Stims/Figures/87-C-20-4.bmp\",\"na:mala\",\"Right\",\"37\",\"1\",\"3\",\"4\",\"S\",\"C\",\"3\"
\"\",\"\",\"approach-retreat\",\"7\",\"270807\",\"0.0-7.0\",\"\",\"\",\"2-2\",\"5485\",\"38\",\"0\",\"Training\",\"Stims/Figures/85-C-20-2.bmp\",\"na:lala\",\"Up\",\"40\",\"1\",\"4\",\"4\",\"S\",\"C\",\"4\"
\"\",\"\",\"approach-retreat\",\"8\",\"277692\",\"0.0-8.0\",\"\",\"\",\"2-2\",\"5380\",\"38\",\"0\",\"Training\",\"Stims/Figures/44-C-30-3.bmp\",\"mamana\",\"Up\",\"40\",\"1\",\"5\",\"4\",\"S\",\"C\",\"5\"
\"\",\"\",\"approach-retreat\",\"9\",\"284612\",\"0.0-9.0\",\"\",\"\",\"2-2\",\"5415\",\"39\",\"0\",\"Training\",\"Stims/Figures/86-J-0-1.bmp\",\"taka:ta\",\"Left\",\"37\",\"1\",\"6\",\"4\",\"P\",\"C\",\"6\"
\"\",\"\",\"approach-retreat\",\"10\",\"290550\",\"0.0-10.0\",\"\",\"\",\"2-2\",\"4431\",\"40\",\"1\",\"Training\",\"Stims/Figures/27-C-30-1.bmp\",\"nalana\",\"Up\",\"40\",\"1\",\"7\",\"4\",\"S\",\"C\",\"7\"
\"\",\"\",\"approach-retreat\",\"11\",\"296701\",\"0.0-11.0\",\"\",\"\",\"2-2\",\"4646\",\"38\",\"0\",\"Training\",\"Stims/Figures/128-J-10-3.bmp\",\"papata\",\"Down\",\"40\",\"1\",\"8\",\"4\",\"P\",\"C\",\"8\"
\"\",\"\",\"approach-retreat\",\"12\",\"303315\",\"0.0-12.0\",\"\",\"\",\"2-2\",\"5109\",\"37\",\"1\",\"Training\",\"Stims/Figures/102-J-10-4.bmp\",\"paka:ka\",\"Left\",\"37\",\"1\",\"9\",\"4\",\"P\",\"C\",\"9\"
\"\",\"\",\"approach-retreat\",\"13\",\"309999\",\"0.0-13.0\",\"\",\"\",\"2-2\",\"5177\",\"38\",\"1\",\"Training\",\"Stims/Figures/102-C-20-4.bmp\",\"ma:mala\",\"Down\",\"38\",\"1\",\"10\",\"4\",\"S\",\"C\",\"10\"
\"\",\"\",\"approach-retreat\",\"14\",\"315995\",\"0.0-14.0\",\"\",\"\",\"2-2\",\"4491\",\"38\",\"1\",\"Training\",\"Stims/Figures/128-C-30-3.bmp\",\"namala\",\"Down\",\"38\",\"1\",\"11\",\"4\",\"S\",\"C\",\"11\"
\"\",\"\",\"approach-retreat\",\"15\",\"321611\",\"0.0-15.0\",\"\",\"\",\"2-2\",\"4111\",\"39\",\"1\",\"Training\",\"Stims/Figures/87-J-10-4.bmp\",\"papa:ka\",\"Right\",\"39\",\"1\",\"12\",\"4\",\"P\",\"C\",\"12\"
\"\",\"\",\"approach-retreat\",\"16\",\"327600\",\"0.0-16.0\",\"\",\"\",\"2-2\",\"4483\",\"40\",\"1\",\"Training\",\"Stims/Figures/27-J-0-1.bmp\",\"tapaka\",\"Down\",\"40\",\"1\",\"13\",\"4\",\"P\",\"C\",\"13\"
\"\",\"\",\"approach-retreat\",\"17\",\"333341\",\"0.0-17.0\",\"\",\"\",\"2-2\",\"4236\",\"37\",\"0\",\"Training\",\"Stims/Figures/118-J-0-2.bmp\",\"ta:pa:ta\",\"Right\",\"39\",\"1\",\"14\",\"4\",\"P\",\"C\",\"14\"
\"\",\"\",\"approach-retreat\",\"18\",\"339034\",\"0.0-18.0\",\"\",\"\",\"2-2\",\"4188\",\"39\",\"0\",\"Training\",\"Stims/Figures/86-C-30-1.bmp\",\"ma:ma:la\",\"Right\",\"37\",\"1\",\"15\",\"4\",\"S\",\"C\",\"15\"
\"\",\"\",\"approach-retreat\",\"19\",\"345147\",\"0.0-19.0\",\"\",\"\",\"2-2\",\"4606\",\"37\",\"1\",\"Training\",\"Stims/Figures/85-J-0-2.bmp\",\"ta:ka:ka\",\"Left\",\"37\",\"1\",\"16\",\"4\",\"P\",\"C\",\"16\"
\"\",\"\",\"approach-retreat\",\"20\",\"350680\",\"0.0-20.0\",\"\",\"\",\"2-2\",\"4028\",\"39\",\"1\",\"Training\",\"Stims/Figures/44-J-10-3.bmp\",\"tapa:ta\",\"Right\",\"39\",\"2\",\"1\",\"4\",\"P\",\"C\",\"17\"
\"\",\"\",\"approach-retreat\",\"21\",\"356481\",\"0.0-21.0\",\"\",\"\",\"2-2\",\"4296\",\"40\",\"1\",\"Training\",\"Stims/Figures/27-J-0-1.bmp\",\"tapaka\",\"Down\",\"40\",\"2\",\"2\",\"4\",\"P\",\"C\",\"18\"
\"\",\"\",\"approach-retreat\",\"22\",\"362874\",\"0.0-22.0\",\"\",\"\",\"2-2\",\"4887\",\"37\",\"0\",\"Training\",\"Stims/Figures/128-C-30-3.bmp\",\"namala\",\"Left\",\"39\",\"2\",\"3\",\"4\",\"S\",\"C\",\"19\"
\"\",\"\",\"approach-retreat\",\"23\",\"369118\",\"0.0-23.0\",\"\",\"\",\"2-2\",\"4737\",\"38\",\"0\",\"Training\",\"Stims/Figures/44-C-30-3.bmp\",\"mamana\",\"Up\",\"40\",\"2\",\"4\",\"4\",\"S\",\"C\",\"20\"
\"\",\"\",\"approach-retreat\",\"24\",\"375407\",\"0.0-24.0\",\"\",\"\",\"2-2\",\"4783\",\"39\",\"1\",\"Training\",\"Stims/Figures/87-J-10-4.bmp\",\"papa:ka\",\"Right\",\"39\",\"2\",\"5\",\"4\",\"P\",\"C\",\"21\"
\"\",\"\",\"approach-retreat\",\"25\",\"382728\",\"0.0-25.0\",\"\",\"\",\"2-2\",\"5816\",\"40\",\"1\",\"Training\",\"Stims/Figures/27-C-30-1.bmp\",\"nalana\",\"Up\",\"40\",\"2\",\"6\",\"4\",\"S\",\"C\",\"22\"
\"\",\"\",\"approach-retreat\",\"26\",\"388345\",\"0.0-26.0\",\"\",\"\",\"2-2\",\"4110\",\"37\",\"1\",\"Training\",\"Stims/Figures/102-J-10-4.bmp\",\"paka:ka\",\"Left\",\"37\",\"2\",\"7\",\"4\",\"P\",\"C\",\"23\"
\"\",\"\",\"approach-retreat\",\"27\",\"394414\",\"0.0-27.0\",\"\",\"\",\"2-2\",\"4564\",\"40\",\"0\",\"Training\",\"Stims/Figures/87-C-20-4.bmp\",\"na:mala\",\"Down\",\"38\",\"2\",\"8\",\"4\",\"S\",\"C\",\"24\"
\"\",\"\",\"approach-retreat\",\"28\",\"399995\",\"0.0-28.0\",\"\",\"\",\"2-2\",\"4075\",\"40\",\"1\",\"Training\",\"Stims/Figures/128-J-10-3.bmp\",\"papata\",\"Down\",\"40\",\"2\",\"9\",\"4\",\"P\",\"C\",\"25\"
\"\",\"\",\"approach-retreat\",\"29\",\"406184\",\"0.0-29.0\",\"\",\"\",\"2-2\",\"4683\",\"38\",\"0\",\"Training\",\"Stims/Figures/86-C-30-1.bmp\",\"ma:ma:la\",\"Up\",\"40\",\"2\",\"10\",\"4\",\"S\",\"C\",\"26\"
\"\",\"\",\"approach-retreat\",\"30\",\"412971\",\"0.0-30.0\",\"\",\"\",\"2-2\",\"5282\",\"40\",\"1\",\"Training\",\"Stims/Figures/118-J-0-2.bmp\",\"ta:pa:ta\",\"Down\",\"40\",\"2\",\"11\",\"4\",\"P\",\"C\",\"27\"
\"\",\"\",\"approach-retreat\",\"31\",\"419502\",\"0.0-31.0\",\"\",\"\",\"2-2\",\"5026\",\"38\",\"0\",\"Training\",\"Stims/Figures/85-C-20-2.bmp\",\"na:lala\",\"Up\",\"40\",\"2\",\"12\",\"4\",\"S\",\"C\",\"28\"
\"\",\"\",\"approach-retreat\",\"32\",\"425224\",\"0.0-32.0\",\"\",\"\",\"2-2\",\"4215\",\"37\",\"1\",\"Training\",\"Stims/Figures/85-J-0-2.bmp\",\"ta:ka:ka\",\"Left\",\"37\",\"2\",\"13\",\"4\",\"P\",\"C\",\"29\"
\"\",\"\",\"approach-retreat\",\"33\",\"431961\",\"0.0-33.0\",\"\",\"\",\"2-2\",\"5232\",\"39\",\"0\",\"Training\",\"Stims/Figures/118-C-20-2.bmp\",\"ma:la:la\",\"Right\",\"37\",\"2\",\"14\",\"4\",\"S\",\"C\",\"30\"
\"\",\"\",\"approach-retreat\",\"34\",\"437590\",\"0.0-34.0\",\"\",\"\",\"2-2\",\"4123\",\"37\",\"1\",\"Training\",\"Stims/Figures/102-C-20-4.bmp\",\"ma:mala\",\"Right\",\"37\",\"2\",\"15\",\"4\",\"S\",\"C\",\"31\"
\"\",\"\",\"approach-retreat\",\"35\",\"443132\",\"0.0-35.0\",\"\",\"\",\"2-2\",\"4034\",\"37\",\"1\",\"Training\",\"Stims/Figures/86-J-0-1.bmp\",\"taka:ta\",\"Left\",\"37\",\"2\",\"16\",\"4\",\"P\",\"C\",\"32\"
\"\",\"\",\"approach-retreat\",\"36\",\"449326\",\"0.0-36.0\",\"\",\"\",\"2-2\",\"4690\",\"37\",\"0\",\"Training\",\"Stims/Figures/85-C-20-2.bmp\",\"na:lala\",\"Left\",\"39\",\"3\",\"1\",\"4\",\"S\",\"C\",\"33\"
\"\",\"\",\"approach-retreat\",\"37\",\"456489\",\"0.0-37.0\",\"\",\"\",\"2-2\",\"5658\",\"40\",\"0\",\"Training\",\"Stims/Figures/86-C-30-1.bmp\",\"ma:ma:la\",\"Down\",\"38\",\"3\",\"2\",\"4\",\"S\",\"C\",\"34\"
\"\",\"\",\"approach-retreat\",\"38\",\"462881\",\"0.0-38.0\",\"\",\"\",\"2-2\",\"4885\",\"38\",\"0\",\"Training\",\"Stims/Figures/27-C-30-1.bmp\",\"nalana\",\"Up\",\"40\",\"3\",\"3\",\"4\",\"S\",\"C\",\"35\"
\"\",\"\",\"approach-retreat\",\"39\",\"469602\",\"0.0-39.0\",\"\",\"\",\"2-2\",\"5216\",\"37\",\"1\",\"Training\",\"Stims/Figures/87-C-20-4.bmp\",\"na:mala\",\"Right\",\"37\",\"3\",\"4\",\"4\",\"S\",\"C\",\"36\"
\"\",\"\",\"approach-retreat\",\"40\",\"476463\",\"0.0-40.0\",\"\",\"\",\"2-2\",\"5355\",\"39\",\"1\",\"Training\",\"Stims/Figures/128-C-30-3.bmp\",\"namala\",\"Left\",\"39\",\"3\",\"5\",\"4\",\"S\",\"C\",\"37\"
\"\",\"\",\"approach-retreat\",\"41\",\"482548\",\"0.0-41.0\",\"\",\"\",\"2-2\",\"4580\",\"40\",\"1\",\"Training\",\"Stims/Figures/118-C-20-2.bmp\",\"ma:la:la\",\"Up\",\"40\",\"3\",\"6\",\"4\",\"S\",\"C\",\"38\"
\"\",\"\",\"approach-retreat\",\"42\",\"488814\",\"0.0-42.0\",\"\",\"\",\"2-2\",\"4760\",\"40\",\"1\",\"Training\",\"Stims/Figures/86-J-0-1.bmp\",\"taka:ta\",\"Down\",\"40\",\"3\",\"7\",\"4\",\"P\",\"C\",\"39\"
\"\",\"\",\"approach-retreat\",\"43\",\"497261\",\"0.0-43.0\",\"\",\"\",\"2-2\",\"6942\",\"38\",\"0\",\"Training\",\"Stims/Figures/44-C-30-3.bmp\",\"mamana\",\"Up\",\"40\",\"3\",\"8\",\"4\",\"S\",\"C\",\"40\"
\"\",\"\",\"approach-retreat\",\"44\",\"503120\",\"0.0-44.0\",\"\",\"\",\"2-2\",\"4353\",\"40\",\"0\",\"Training\",\"Stims/Figures/85-J-0-2.bmp\",\"ta:ka:ka\",\"Up\",\"38\",\"3\",\"9\",\"4\",\"P\",\"C\",\"41\"
\"\",\"\",\"approach-retreat\",\"45\",\"510200\",\"0.0-45.0\",\"\",\"\",\"2-2\",\"5575\",\"39\",\"1\",\"Training\",\"Stims/Figures/87-J-10-4.bmp\",\"papa:ka\",\"Right\",\"39\",\"3\",\"10\",\"4\",\"P\",\"C\",\"42\"
\"\",\"\",\"approach-retreat\",\"46\",\"516516\",\"0.0-46.0\",\"\",\"\",\"2-2\",\"4810\",\"39\",\"0\",\"Training\",\"Stims/Figures/128-J-10-3.bmp\",\"papata\",\"Left\",\"37\",\"3\",\"11\",\"4\",\"P\",\"C\",\"43\"
\"\",\"\",\"approach-retreat\",\"47\",\"523686\",\"0.0-47.0\",\"\",\"\",\"2-2\",\"5665\",\"37\",\"0\",\"Training\",\"Stims/Figures/118-J-0-2.bmp\",\"ta:pa:ta\",\"Right\",\"39\",\"3\",\"12\",\"4\",\"P\",\"C\",\"44\"
\"\",\"\",\"approach-retreat\",\"48\",\"531863\",\"0.0-48.0\",\"\",\"\",\"2-2\",\"6671\",\"40\",\"1\",\"Training\",\"Stims/Figures/44-J-10-3.bmp\",\"tapa:ta\",\"Down\",\"40\",\"3\",\"13\",\"4\",\"P\",\"C\",\"45\"
\"\",\"\",\"approach-retreat\",\"49\",\"540980\",\"0.0-49.0\",\"\",\"\",\"2-2\",\"7613\",\"37\",\"0\",\"Training\",\"Stims/Figures/102-C-20-4.bmp\",\"ma:mala\",\"Left\",\"39\",\"3\",\"14\",\"4\",\"S\",\"C\",\"46\"
\"\",\"\",\"approach-retreat\",\"50\",\"546561\",\"0.0-50.0\",\"\",\"\",\"2-2\",\"4075\",\"39\",\"1\",\"Training\",\"Stims/Figures/102-J-10-4.bmp\",\"paka:ka\",\"Right\",\"39\",\"3\",\"15\",\"4\",\"P\",\"C\",\"47\"
\"\",\"\",\"approach-retreat\",\"51\",\"552427\",\"0.0-51.0\",\"\",\"\",\"2-2\",\"4360\",\"40\",\"1\",\"Training\",\"Stims/Figures/27-J-0-1.bmp\",\"tapaka\",\"Down\",\"40\",\"3\",\"16\",\"4\",\"P\",\"C\",\"48\"
\"\",\"\",\"approach-retreat\",\"52\",\"559717\",\"0.0-52.0\",\"\",\"\",\"2-2\",\"5785\",\"39\",\"0\",\"Training\",\"Stims/Figures/118-J-0-2.bmp\",\"ta:pa:ta\",\"Left\",\"37\",\"4\",\"1\",\"4\",\"P\",\"C\",\"49\"
\"\",\"\",\"approach-retreat\",\"53\",\"565877\",\"0.0-53.0\",\"\",\"\",\"2-2\",\"4655\",\"40\",\"0\",\"Training\",\"Stims/Figures/44-J-10-3.bmp\",\"tapa:ta\",\"Up\",\"38\",\"4\",\"2\",\"4\",\"P\",\"C\",\"50\"
\"\",\"\",\"approach-retreat\",\"54\",\"572882\",\"0.0-54.0\",\"\",\"\",\"2-2\",\"5500\",\"37\",\"0\",\"Training\",\"Stims/Figures/87-J-10-4.bmp\",\"papa:ka\",\"Right\",\"39\",\"4\",\"3\",\"4\",\"P\",\"C\",\"51\"
\"\",\"\",\"approach-retreat\",\"55\",\"580468\",\"0.0-55.0\",\"\",\"\",\"2-2\",\"6082\",\"38\",\"0\",\"Training\",\"Stims/Figures/44-C-30-3.bmp\",\"mamana\",\"Up\",\"40\",\"4\",\"4\",\"4\",\"S\",\"C\",\"52\"
\"\",\"\",\"approach-retreat\",\"56\",\"588157\",\"0.0-56.0\",\"\",\"\",\"2-2\",\"6184\",\"39\",\"1\",\"Training\",\"Stims/Figures/86-J-0-1.bmp\",\"taka:ta\",\"Right\",\"39\",\"4\",\"5\",\"4\",\"P\",\"C\",\"53\"
\"\",\"\",\"approach-retreat\",\"57\",\"595620\",\"0.0-57.0\",\"\",\"\",\"2-2\",\"5956\",\"37\",\"0\",\"Training\",\"Stims/Figures/27-C-30-1.bmp\",\"nalana\",\"Left\",\"39\",\"4\",\"6\",\"4\",\"S\",\"C\",\"54\"
\"\",\"\",\"approach-retreat\",\"58\",\"604368\",\"0.0-58.0\",\"\",\"\",\"2-2\",\"7242\",\"37\",\"1\",\"Training\",\"Stims/Figures/85-C-20-2.bmp\",\"na:lala\",\"Right\",\"37\",\"4\",\"7\",\"4\",\"S\",\"C\",\"55\"
\"\",\"\",\"approach-retreat\",\"59\",\"613313\",\"0.0-59.0\",\"\",\"\",\"2-2\",\"7438\",\"38\",\"0\",\"Training\",\"Stims/Figures/85-J-0-2.bmp\",\"ta:ka:ka\",\"Down\",\"40\",\"4\",\"8\",\"4\",\"P\",\"C\",\"56\"
\"\",\"\",\"approach-retreat\",\"60\",\"619017\",\"0.0-60.0\",\"\",\"\",\"2-2\",\"4199\",\"38\",\"1\",\"Training\",\"Stims/Figures/27-J-0-1.bmp\",\"tapaka\",\"Up\",\"38\",\"4\",\"9\",\"4\",\"P\",\"C\",\"57\"
\"\",\"\",\"approach-retreat\",\"61\",\"625674\",\"0.0-61.0\",\"\",\"\",\"2-2\",\"5151\",\"39\",\"1\",\"Training\",\"Stims/Figures/128-C-30-3.bmp\",\"namala\",\"Left\",\"39\",\"4\",\"10\",\"4\",\"S\",\"C\",\"58\"
\"\",\"\",\"approach-retreat\",\"62\",\"632210\",\"0.0-62.0\",\"\",\"\",\"2-2\",\"5030\",\"37\",\"0\",\"Training\",\"Stims/Figures/118-C-20-2.bmp\",\"ma:la:la\",\"Left\",\"39\",\"4\",\"11\",\"4\",\"S\",\"C\",\"59\"
\"\",\"\",\"approach-retreat\",\"63\",\"640019\",\"0.0-63.0\",\"\",\"\",\"2-2\",\"6305\",\"40\",\"1\",\"Training\",\"Stims/Figures/128-J-10-3.bmp\",\"papata\",\"Down\",\"40\",\"4\",\"12\",\"4\",\"P\",\"C\",\"60\"
\"\",\"\",\"approach-retreat\",\"64\",\"649286\",\"0.0-64.0\",\"\",\"\",\"2-2\",\"7760\",\"38\",\"1\",\"Training\",\"Stims/Figures/86-C-30-1.bmp\",\"ma:ma:la\",\"Down\",\"38\",\"4\",\"13\",\"4\",\"S\",\"C\",\"61\"
\"\",\"\",\"approach-retreat\",\"65\",\"655408\",\"0.0-65.0\",\"\",\"\",\"2-2\",\"4615\",\"37\",\"1\",\"Training\",\"Stims/Figures/87-C-20-4.bmp\",\"na:mala\",\"Right\",\"37\",\"4\",\"14\",\"4\",\"S\",\"C\",\"62\"
\"\",\"\",\"approach-retreat\",\"66\",\"662855\",\"0.0-66.0\",\"\",\"\",\"2-2\",\"5942\",\"40\",\"1\",\"Training\",\"Stims/Figures/102-C-20-4.bmp\",\"ma:mala\",\"Up\",\"40\",\"4\",\"15\",\"4\",\"S\",\"C\",\"63\"
\"\",\"\",\"approach-retreat\",\"67\",\"668710\",\"0.0-67.0\",\"\",\"\",\"2-2\",\"4349\",\"40\",\"1\",\"Training\",\"Stims/Figures/102-J-10-4.bmp\",\"paka:ka\",\"Down\",\"40\",\"4\",\"16\",\"4\",\"P\",\"C\",\"64\"
\"\",\"\",\"approach-retreat\",\"68\",\"674496\",\"0.0-68.0\",\"\",\"\",\"2-2\",\"4282\",\"40\",\"1\",\"Training\",\"Stims/Figures/44-J-10-3.bmp\",\"tapa:ta\",\"Down\",\"40\",\"5\",\"1\",\"4\",\"P\",\"C\",\"65\"
\"\",\"\",\"approach-retreat\",\"69\",\"680376\",\"0.0-69.0\",\"\",\"\",\"2-2\",\"4376\",\"37\",\"1\",\"Training\",\"Stims/Figures/86-J-0-1.bmp\",\"taka:ta\",\"Left\",\"37\",\"5\",\"2\",\"4\",\"P\",\"C\",\"66\"
\"\",\"\",\"approach-retreat\",\"70\",\"686026\",\"0.0-70.0\",\"\",\"\",\"2-2\",\"4145\",\"37\",\"1\",\"Training\",\"Stims/Figures/128-J-10-3.bmp\",\"papata\",\"Left\",\"37\",\"5\",\"3\",\"4\",\"P\",\"C\",\"67\"
\"\",\"\",\"approach-retreat\",\"71\",\"691916\",\"0.0-71.0\",\"\",\"\",\"2-2\",\"4385\",\"39\",\"0\",\"Training\",\"Stims/Figures/85-J-0-2.bmp\",\"ta:ka:ka\",\"Left\",\"37\",\"5\",\"4\",\"4\",\"P\",\"C\",\"68\"
\"\",\"\",\"approach-retreat\",\"72\",\"699043\",\"0.0-72.0\",\"\",\"\",\"2-2\",\"5621\",\"40\",\"0\",\"Training\",\"Stims/Figures/27-J-0-1.bmp\",\"tapaka\",\"Up\",\"38\",\"5\",\"5\",\"4\",\"P\",\"C\",\"69\"
\"\",\"\",\"approach-retreat\",\"73\",\"704987\",\"0.0-73.0\",\"\",\"\",\"2-2\",\"4439\",\"38\",\"1\",\"Training\",\"Stims/Figures/102-J-10-4.bmp\",\"paka:ka\",\"Up\",\"38\",\"5\",\"6\",\"4\",\"P\",\"C\",\"70\"
\"\",\"\",\"approach-retreat\",\"74\",\"710751\",\"0.0-74.0\",\"\",\"\",\"2-2\",\"4258\",\"37\",\"1\",\"Training\",\"Stims/Figures/102-C-20-4.bmp\",\"ma:mala\",\"Right\",\"37\",\"5\",\"7\",\"4\",\"S\",\"C\",\"71\"
\"\",\"\",\"approach-retreat\",\"75\",\"716376\",\"0.0-75.0\",\"\",\"\",\"2-2\",\"4119\",\"39\",\"0\",\"Training\",\"Stims/Figures/85-C-20-2.bmp\",\"na:lala\",\"Right\",\"37\",\"5\",\"8\",\"4\",\"S\",\"C\",\"72\"
\"\",\"\",\"approach-retreat\",\"76\",\"725057\",\"0.0-76.0\",\"\",\"\",\"2-2\",\"7174\",\"37\",\"1\",\"Training\",\"Stims/Figures/27-C-30-1.bmp\",\"nalana\",\"Right\",\"37\",\"5\",\"9\",\"4\",\"S\",\"C\",\"73\"
\"\",\"\",\"approach-retreat\",\"77\",\"732159\",\"0.0-77.0\",\"\",\"\",\"2-2\",\"5597\",\"40\",\"1\",\"Training\",\"Stims/Figures/118-J-0-2.bmp\",\"ta:pa:ta\",\"Down\",\"40\",\"5\",\"10\",\"4\",\"P\",\"C\",\"74\"
\"\",\"\",\"approach-retreat\",\"78\",\"738989\",\"0.0-78.0\",\"\",\"\",\"2-2\",\"5323\",\"39\",\"1\",\"Training\",\"Stims/Figures/118-C-20-2.bmp\",\"ma:la:la\",\"Left\",\"39\",\"5\",\"11\",\"4\",\"S\",\"C\",\"75\"
\"\",\"\",\"approach-retreat\",\"79\",\"744761\",\"0.0-79.0\",\"\",\"\",\"2-2\",\"4267\",\"40\",\"1\",\"Training\",\"Stims/Figures/87-C-20-4.bmp\",\"na:mala\",\"Up\",\"40\",\"5\",\"12\",\"4\",\"S\",\"C\",\"76\"
\"\",\"\",\"approach-retreat\",\"80\",\"751296\",\"0.0-80.0\",\"\",\"\",\"2-2\",\"5029\",\"40\",\"1\",\"Training\",\"Stims/Figures/86-C-30-1.bmp\",\"ma:ma:la\",\"Up\",\"40\",\"5\",\"13\",\"4\",\"S\",\"C\",\"77\"
\"\",\"\",\"approach-retreat\",\"81\",\"757886\",\"0.0-81.0\",\"\",\"\",\"2-2\",\"5086\",\"40\",\"0\",\"Training\",\"Stims/Figures/44-C-30-3.bmp\",\"mamana\",\"Down\",\"38\",\"5\",\"14\",\"4\",\"S\",\"C\",\"78\"
\"\",\"\",\"approach-retreat\",\"82\",\"763721\",\"0.0-82.0\",\"\",\"\",\"2-2\",\"4329\",\"37\",\"1\",\"Training\",\"Stims/Figures/128-C-30-3.bmp\",\"namala\",\"Right\",\"37\",\"5\",\"15\",\"4\",\"S\",\"C\",\"79\"
\"\",\"\",\"approach-retreat\",\"83\",\"769635\",\"0.0-83.0\",\"\",\"\",\"2-2\",\"4408\",\"40\",\"1\",\"Training\",\"Stims/Figures/87-J-10-4.bmp\",\"papa:ka\",\"Down\",\"40\",\"5\",\"16\",\"4\",\"P\",\"C\",\"80\"
\"\",\"\",\"approach-retreat\",\"84\",\"776082\",\"0.0-84.0\",\"\",\"\",\"2-2\",\"4941\",\"38\",\"1\",\"Training\",\"Stims/Figures/85-C-20-2.bmp\",\"na:lala\",\"Down\",\"38\",\"6\",\"1\",\"4\",\"S\",\"C\",\"81\"
\"\",\"\",\"approach-retreat\",\"85\",\"781769\",\"0.0-85.0\",\"\",\"\",\"2-2\",\"4182\",\"37\",\"1\",\"Training\",\"Stims/Figures/87-J-10-4.bmp\",\"papa:ka\",\"Left\",\"37\",\"6\",\"2\",\"4\",\"P\",\"C\",\"82\"
\"\",\"\",\"approach-retreat\",\"86\",\"787669\",\"0.0-86.0\",\"\",\"\",\"2-2\",\"4395\",\"40\",\"0\",\"Training\",\"Stims/Figures/86-J-0-1.bmp\",\"taka:ta\",\"Up\",\"38\",\"6\",\"3\",\"4\",\"P\",\"C\",\"83\"
\"\",\"\",\"approach-retreat\",\"87\",\"794113\",\"0.0-87.0\",\"\",\"\",\"2-2\",\"4936\",\"37\",\"1\",\"Training\",\"Stims/Figures/118-C-20-2.bmp\",\"ma:la:la\",\"Right\",\"37\",\"6\",\"4\",\"4\",\"S\",\"C\",\"84\"
\"\",\"\",\"approach-retreat\",\"88\",\"800110\",\"0.0-88.0\",\"\",\"\",\"2-2\",\"4491\",\"40\",\"1\",\"Training\",\"Stims/Figures/44-J-10-3.bmp\",\"tapa:ta\",\"Down\",\"40\",\"6\",\"5\",\"4\",\"P\",\"C\",\"85\"
\"\",\"\",\"approach-retreat\",\"89\",\"807918\",\"0.0-89.0\",\"\",\"\",\"2-2\",\"6302\",\"40\",\"0\",\"Training\",\"Stims/Figures/85-J-0-2.bmp\",\"ta:ka:ka\",\"Up\",\"38\",\"6\",\"6\",\"4\",\"P\",\"C\",\"86\"
\"\",\"\",\"approach-retreat\",\"90\",\"814713\",\"0.0-90.0\",\"\",\"\",\"2-2\",\"5289\",\"40\",\"0\",\"Training\",\"Stims/Figures/102-C-20-4.bmp\",\"ma:mala\",\"Down\",\"38\",\"6\",\"7\",\"4\",\"S\",\"C\",\"87\"
\"\",\"\",\"approach-retreat\",\"91\",\"821420\",\"0.0-91.0\",\"\",\"\",\"2-2\",\"5202\",\"37\",\"1\",\"Training\",\"Stims/Figures/87-C-20-4.bmp\",\"na:mala\",\"Right\",\"37\",\"6\",\"8\",\"4\",\"S\",\"C\",\"88\"
\"\",\"\",\"approach-retreat\",\"92\",\"827277\",\"0.0-92.0\",\"\",\"\",\"2-2\",\"4350\",\"40\",\"0\",\"Training\",\"Stims/Figures/44-C-30-3.bmp\",\"mamana\",\"Down\",\"38\",\"6\",\"9\",\"4\",\"S\",\"C\",\"89\"
\"\",\"\",\"approach-retreat\",\"93\",\"833178\",\"0.0-93.0\",\"\",\"\",\"2-2\",\"4395\",\"40\",\"0\",\"Training\",\"Stims/Figures/27-J-0-1.bmp\",\"tapaka\",\"Up\",\"38\",\"6\",\"10\",\"4\",\"P\",\"C\",\"90\"
\"\",\"\",\"approach-retreat\",\"94\",\"838700\",\"0.0-94.0\",\"\",\"\",\"2-2\",\"4016\",\"37\",\"1\",\"Training\",\"Stims/Figures/128-J-10-3.bmp\",\"papata\",\"Left\",\"37\",\"6\",\"11\",\"4\",\"P\",\"C\",\"91\"
\"\",\"\",\"approach-retreat\",\"95\",\"845478\",\"0.0-95.0\",\"\",\"\",\"2-2\",\"5273\",\"39\",\"1\",\"Training\",\"Stims/Figures/27-C-30-1.bmp\",\"nalana\",\"Left\",\"39\",\"6\",\"12\",\"4\",\"S\",\"C\",\"92\"
\"\",\"\",\"approach-retreat\",\"96\",\"852113\",\"0.0-96.0\",\"\",\"\",\"2-2\",\"5128\",\"37\",\"1\",\"Training\",\"Stims/Figures/128-C-30-3.bmp\",\"namala\",\"Right\",\"37\",\"6\",\"13\",\"4\",\"S\",\"C\",\"93\"
\"\",\"\",\"approach-retreat\",\"97\",\"860974\",\"0.0-97.0\",\"\",\"\",\"2-2\",\"7355\",\"39\",\"0\",\"Training\",\"Stims/Figures/102-J-10-4.bmp\",\"paka:ka\",\"Left\",\"37\",\"6\",\"14\",\"4\",\"P\",\"C\",\"94\"
\"\",\"\",\"approach-retreat\",\"98\",\"867025\",\"0.0-98.0\",\"\",\"\",\"2-2\",\"4545\",\"40\",\"1\",\"Training\",\"Stims/Figures/86-C-30-1.bmp\",\"ma:ma:la\",\"Up\",\"40\",\"6\",\"15\",\"4\",\"S\",\"C\",\"95\"
\"\",\"\",\"approach-retreat\",\"99\",\"876908\",\"0.0-99.0\",\"\",\"\",\"2-2\",\"8376\",\"39\",\"1\",\"Training\",\"Stims/Figures/118-J-0-2.bmp\",\"ta:pa:ta\",\"Right\",\"39\",\"6\",\"16\",\"4\",\"P\",\"C\",\"96\"
\"\",\"\",\"approach-retreat\",\"100\",\"884465\",\"0.0-100.0\",\"\",\"\",\"2-2\",\"6052\",\"40\",\"1\",\"Training\",\"Stims/Figures/102-C-20-4.bmp\",\"ma:mala\",\"Up\",\"40\",\"7\",\"1\",\"4\",\"S\",\"C\",\"97\"
\"\",\"\",\"approach-retreat\",\"101\",\"891779\",\"0.0-101.0\",\"\",\"\",\"2-2\",\"5808\",\"39\",\"1\",\"Training\",\"Stims/Figures/87-C-20-4.bmp\",\"na:mala\",\"Left\",\"39\",\"7\",\"2\",\"4\",\"S\",\"C\",\"98\"
\"\",\"\",\"approach-retreat\",\"102\",\"897750\",\"0.0-102.0\",\"\",\"\",\"2-2\",\"4465\",\"39\",\"1\",\"Training\",\"Stims/Figures/87-J-10-4.bmp\",\"papa:ka\",\"Right\",\"39\",\"7\",\"3\",\"4\",\"P\",\"C\",\"99\"
\"\",\"\",\"approach-retreat\",\"103\",\"904785\",\"0.0-103.0\",\"\",\"\",\"2-2\",\"5530\",\"40\",\"0\",\"Training\",\"Stims/Figures/118-C-20-2.bmp\",\"ma:la:la\",\"Down\",\"38\",\"7\",\"4\",\"4\",\"S\",\"C\",\"100\"
\"\",\"\",\"approach-retreat\",\"104\",\"912036\",\"0.0-104.0\",\"\",\"\",\"2-2\",\"5744\",\"40\",\"0\",\"Training\",\"Stims/Figures/86-J-0-1.bmp\",\"taka:ta\",\"Up\",\"38\",\"7\",\"5\",\"4\",\"P\",\"C\",\"101\"
\"\",\"\",\"approach-retreat\",\"105\",\"919148\",\"0.0-105.0\",\"\",\"\",\"2-2\",\"5607\",\"38\",\"0\",\"Training\",\"Stims/Figures/85-J-0-2.bmp\",\"ta:ka:ka\",\"Down\",\"40\",\"7\",\"6\",\"4\",\"P\",\"C\",\"102\"
\"\",\"\",\"approach-retreat\",\"106\",\"926528\",\"0.0-106.0\",\"\",\"\",\"2-2\",\"5876\",\"39\",\"0\",\"Training\",\"Stims/Figures/44-C-30-3.bmp\",\"mamana\",\"Right\",\"37\",\"7\",\"7\",\"4\",\"S\",\"C\",\"103\"
\"\",\"\",\"approach-retreat\",\"107\",\"934788\",\"0.0-107.0\",\"\",\"\",\"2-2\",\"6754\",\"37\",\"0\",\"Training\",\"Stims/Figures/85-C-20-2.bmp\",\"na:lala\",\"Left\",\"39\",\"7\",\"8\",\"4\",\"S\",\"C\",\"104\"
\"\",\"\",\"approach-retreat\",\"108\",\"943947\",\"0.0-108.0\",\"\",\"\",\"2-2\",\"7652\",\"37\",\"0\",\"Training\",\"Stims/Figures/128-C-30-3.bmp\",\"namala\",\"Left\",\"39\",\"7\",\"9\",\"4\",\"S\",\"C\",\"105\"
\"\",\"\",\"approach-retreat\",\"109\",\"951595\",\"0.0-109.0\",\"\",\"\",\"2-2\",\"6142\",\"37\",\"0\",\"Training\",\"Stims/Figures/86-C-30-1.bmp\",\"ma:ma:la\",\"Left\",\"39\",\"7\",\"10\",\"4\",\"S\",\"C\",\"106\"
\"\",\"\",\"approach-retreat\",\"110\",\"957710\",\"0.0-110.0\",\"\",\"\",\"2-2\",\"4610\",\"40\",\"1\",\"Training\",\"Stims/Figures/27-C-30-1.bmp\",\"nalana\",\"Up\",\"40\",\"7\",\"11\",\"4\",\"S\",\"C\",\"107\"
\"\",\"\",\"approach-retreat\",\"111\",\"964154\",\"0.0-111.0\",\"\",\"\",\"2-2\",\"4938\",\"38\",\"0\",\"Training\",\"Stims/Figures/27-J-0-1.bmp\",\"tapaka\",\"Down\",\"40\",\"7\",\"12\",\"4\",\"P\",\"C\",\"108\"
\"\",\"\",\"approach-retreat\",\"112\",\"969730\",\"0.0-112.0\",\"\",\"\",\"2-2\",\"4071\",\"39\",\"1\",\"Training\",\"Stims/Figures/44-J-10-3.bmp\",\"tapa:ta\",\"Right\",\"39\",\"7\",\"13\",\"4\",\"P\",\"C\",\"109\"
\"\",\"\",\"approach-retreat\",\"113\",\"975447\",\"0.0-113.0\",\"\",\"\",\"2-2\",\"4208\",\"37\",\"0\",\"Training\",\"Stims/Figures/102-J-10-4.bmp\",\"paka:ka\",\"Right\",\"39\",\"7\",\"14\",\"4\",\"P\",\"C\",\"110\"
\"\",\"\",\"approach-retreat\",\"114\",\"983363\",\"0.0-114.0\",\"\",\"\",\"2-2\",\"6410\",\"40\",\"0\",\"Training\",\"Stims/Figures/128-J-10-3.bmp\",\"papata\",\"Up\",\"38\",\"7\",\"15\",\"4\",\"P\",\"C\",\"111\"
\"\",\"\",\"approach-retreat\",\"115\",\"996629\",\"0.0-115.0\",\"\",\"\",\"2-2\",\"11761\",\"40\",\"1\",\"Training\",\"Stims/Figures/118-J-0-2.bmp\",\"ta:pa:ta\",\"Down\",\"40\",\"7\",\"16\",\"4\",\"P\",\"C\",\"112\"
\"\",\"\",\"approach-retreat\",\"116\",\"1004813\",\"0.0-116.0\",\"\",\"\",\"2-2\",\"6677\",\"37\",\"1\",\"Training\",\"Stims/Figures/85-C-20-2.bmp\",\"na:lala\",\"Right\",\"37\",\"8\",\"1\",\"4\",\"S\",\"C\",\"113\"
\"\",\"\",\"approach-retreat\",\"117\",\"1013205\",\"0.0-117.0\",\"\",\"\",\"2-2\",\"6888\",\"40\",\"0\",\"Training\",\"Stims/Figures/118-J-0-2.bmp\",\"ta:pa:ta\",\"Up\",\"38\",\"8\",\"2\",\"4\",\"P\",\"C\",\"114\"
\"\",\"\",\"approach-retreat\",\"118\",\"1022698\",\"0.0-118.0\",\"\",\"\",\"2-2\",\"7988\",\"40\",\"0\",\"Training\",\"Stims/Figures/27-J-0-1.bmp\",\"tapaka\",\"Up\",\"38\",\"8\",\"3\",\"4\",\"P\",\"C\",\"115\"
\"\",\"\",\"approach-retreat\",\"119\",\"1031144\",\"0.0-119.0\",\"\",\"\",\"2-2\",\"6941\",\"37\",\"0\",\"Training\",\"Stims/Figures/102-C-20-4.bmp\",\"ma:mala\",\"Left\",\"39\",\"8\",\"4\",\"4\",\"S\",\"C\",\"116\"
\"\",\"\",\"approach-retreat\",\"120\",\"1038442\",\"0.0-120.0\",\"\",\"\",\"2-2\",\"5792\",\"39\",\"1\",\"Training\",\"Stims/Figures/128-J-10-3.bmp\",\"papata\",\"Right\",\"39\",\"8\",\"5\",\"4\",\"P\",\"C\",\"117\"
\"\",\"\",\"approach-retreat\",\"121\",\"1044113\",\"0.0-121.0\",\"\",\"\",\"2-2\",\"4167\",\"40\",\"1\",\"Training\",\"Stims/Figures/86-J-0-1.bmp\",\"taka:ta\",\"Down\",\"40\",\"8\",\"6\",\"4\",\"P\",\"C\",\"118\"
\"\",\"\",\"approach-retreat\",\"122\",\"1050482\",\"0.0-122.0\",\"\",\"\",\"2-2\",\"4862\",\"40\",\"1\",\"Training\",\"Stims/Figures/27-C-30-1.bmp\",\"nalana\",\"Up\",\"40\",\"8\",\"7\",\"4\",\"S\",\"C\",\"119\"
\"\",\"\",\"approach-retreat\",\"123\",\"1056620\",\"0.0-123.0\",\"\",\"\",\"2-2\",\"4632\",\"37\",\"1\",\"Training\",\"Stims/Figures/86-C-30-1.bmp\",\"ma:ma:la\",\"Right\",\"37\",\"8\",\"8\",\"4\",\"S\",\"C\",\"120\"
\"\",\"\",\"approach-retreat\",\"124\",\"1062712\",\"0.0-124.0\",\"\",\"\",\"2-2\",\"4587\",\"38\",\"1\",\"Training\",\"Stims/Figures/44-C-30-3.bmp\",\"mamana\",\"Down\",\"38\",\"8\",\"9\",\"4\",\"S\",\"C\",\"121\"
\"\",\"\",\"approach-retreat\",\"125\",\"1068947\",\"0.0-125.0\",\"\",\"\",\"2-2\",\"4729\",\"37\",\"0\",\"Training\",\"Stims/Figures/118-C-20-2.bmp\",\"ma:la:la\",\"Left\",\"39\",\"8\",\"10\",\"4\",\"S\",\"C\",\"122\"
\"\",\"\",\"approach-retreat\",\"126\",\"1075291\",\"0.0-126.0\",\"\",\"\",\"2-2\",\"4838\",\"38\",\"1\",\"Training\",\"Stims/Figures/87-J-10-4.bmp\",\"papa:ka\",\"Up\",\"38\",\"8\",\"11\",\"4\",\"P\",\"C\",\"123\"
\"\",\"\",\"approach-retreat\",\"127\",\"1084011\",\"0.0-127.0\",\"\",\"\",\"2-2\",\"7214\",\"38\",\"0\",\"Training\",\"Stims/Figures/102-J-10-4.bmp\",\"paka:ka\",\"Down\",\"40\",\"8\",\"12\",\"4\",\"P\",\"C\",\"124\"
\"\",\"\",\"approach-retreat\",\"128\",\"1092888\",\"0.0-128.0\",\"\",\"\",\"2-2\",\"7372\",\"37\",\"1\",\"Training\",\"Stims/Figures/128-C-30-3.bmp\",\"namala\",\"Right\",\"37\",\"8\",\"13\",\"4\",\"S\",\"C\",\"125\"
\"\",\"\",\"approach-retreat\",\"129\",\"1100554\",\"0.0-129.0\",\"\",\"\",\"2-2\",\"6160\",\"37\",\"1\",\"Training\",\"Stims/Figures/44-J-10-3.bmp\",\"tapa:ta\",\"Left\",\"37\",\"8\",\"14\",\"4\",\"P\",\"C\",\"126\"
\"\",\"\",\"approach-retreat\",\"130\",\"1109850\",\"0.0-130.0\",\"\",\"\",\"2-2\",\"7790\",\"38\",\"0\",\"Training\",\"Stims/Figures/85-J-0-2.bmp\",\"ta:ka:ka\",\"Down\",\"40\",\"8\",\"15\",\"4\",\"P\",\"C\",\"127\"
\"\",\"\",\"approach-retreat\",\"131\",\"1115993\",\"0.0-131.0\",\"\",\"\",\"2-2\",\"4639\",\"39\",\"1\",\"Training\",\"Stims/Figures/87-C-20-4.bmp\",\"na:mala\",\"Left\",\"39\",\"8\",\"16\",\"4\",\"S\",\"C\",\"128\"
\"\",\"\",\"approach-retreat\",\"132\",\"1121721\",\"0.0-132.0\",\"\",\"\",\"2-2\",\"4223\",\"37\",\"1\",\"Training\",\"Stims/Figures/118-C-20-2.bmp\",\"ma:la:la\",\"Right\",\"37\",\"9\",\"1\",\"4\",\"S\",\"C\",\"129\"
\"\",\"\",\"approach-retreat\",\"133\",\"1130145\",\"0.0-133.0\",\"\",\"\",\"2-2\",\"6918\",\"40\",\"1\",\"Training\",\"Stims/Figures/27-J-0-1.bmp\",\"tapaka\",\"Down\",\"40\",\"9\",\"2\",\"4\",\"P\",\"C\",\"130\"
\"\",\"\",\"approach-retreat\",\"134\",\"1141378\",\"0.0-134.0\",\"\",\"\",\"2-2\",\"9728\",\"37\",\"0\",\"Training\",\"Stims/Figures/87-J-10-4.bmp\",\"papa:ka\",\"Right\",\"39\",\"9\",\"3\",\"4\",\"P\",\"C\",\"131\"
\"\",\"\",\"approach-retreat\",\"135\",\"1149729\",\"0.0-135.0\",\"\",\"\",\"2-2\",\"6845\",\"40\",\"0\",\"Training\",\"Stims/Figures/87-C-20-4.bmp\",\"na:mala\",\"Down\",\"38\",\"9\",\"4\",\"4\",\"S\",\"C\",\"132\"
\"\",\"\",\"approach-retreat\",\"136\",\"1158074\",\"0.0-136.0\",\"\",\"\",\"2-2\",\"6839\",\"37\",\"1\",\"Training\",\"Stims/Figures/102-J-10-4.bmp\",\"paka:ka\",\"Left\",\"37\",\"9\",\"5\",\"4\",\"P\",\"C\",\"133\"
\"\",\"\",\"approach-retreat\",\"137\",\"1167190\",\"0.0-137.0\",\"\",\"\",\"2-2\",\"7610\",\"39\",\"1\",\"Training\",\"Stims/Figures/86-C-30-1.bmp\",\"ma:ma:la\",\"Left\",\"39\",\"9\",\"6\",\"4\",\"S\",\"C\",\"134\"
\"\",\"\",\"approach-retreat\",\"138\",\"1175080\",\"0.0-138.0\",\"\",\"\",\"2-2\",\"6384\",\"40\",\"1\",\"Training\",\"Stims/Figures/128-C-30-3.bmp\",\"namala\",\"Up\",\"40\",\"9\",\"7\",\"4\",\"S\",\"C\",\"135\"
\"\",\"\",\"approach-retreat\",\"139\",\"1181245\",\"0.0-139.0\",\"\",\"\",\"2-2\",\"4658\",\"38\",\"1\",\"Training\",\"Stims/Figures/44-C-30-3.bmp\",\"mamana\",\"Down\",\"38\",\"9\",\"8\",\"4\",\"S\",\"C\",\"136\"
\"\",\"\",\"approach-retreat\",\"140\",\"1187509\",\"0.0-140.0\",\"\",\"\",\"2-2\",\"4758\",\"38\",\"1\",\"Training\",\"Stims/Figures/86-J-0-1.bmp\",\"taka:ta\",\"Up\",\"38\",\"9\",\"9\",\"4\",\"P\",\"C\",\"137\"
\"\",\"\",\"approach-retreat\",\"141\",\"1193415\",\"0.0-141.0\",\"\",\"\",\"2-2\",\"4400\",\"37\",\"1\",\"Training\",\"Stims/Figures/27-C-30-1.bmp\",\"nalana\",\"Right\",\"37\",\"9\",\"10\",\"4\",\"S\",\"C\",\"138\"
\"\",\"\",\"approach-retreat\",\"142\",\"1200735\",\"0.0-142.0\",\"\",\"\",\"2-2\",\"5815\",\"37\",\"1\",\"Training\",\"Stims/Figures/85-C-20-2.bmp\",\"na:lala\",\"Right\",\"37\",\"9\",\"11\",\"4\",\"S\",\"C\",\"139\"
\"\",\"\",\"approach-retreat\",\"143\",\"1208748\",\"0.0-143.0\",\"\",\"\",\"2-2\",\"6506\",\"38\",\"0\",\"Training\",\"Stims/Figures/44-J-10-3.bmp\",\"tapa:ta\",\"Down\",\"40\",\"9\",\"12\",\"4\",\"P\",\"C\",\"140\"
\"\",\"\",\"approach-retreat\",\"144\",\"1216686\",\"0.0-144.0\",\"\",\"\",\"2-2\",\"6433\",\"39\",\"1\",\"Training\",\"Stims/Figures/102-C-20-4.bmp\",\"ma:mala\",\"Left\",\"39\",\"9\",\"13\",\"4\",\"S\",\"C\",\"141\"
\"\",\"\",\"approach-retreat\",\"145\",\"1223872\",\"0.0-145.0\",\"\",\"\",\"2-2\",\"5682\",\"37\",\"1\",\"Training\",\"Stims/Figures/85-J-0-2.bmp\",\"ta:ka:ka\",\"Left\",\"37\",\"9\",\"14\",\"4\",\"P\",\"C\",\"142\"
\"\",\"\",\"approach-retreat\",\"146\",\"1232056\",\"0.0-146.0\",\"\",\"\",\"2-2\",\"6678\",\"40\",\"0\",\"Training\",\"Stims/Figures/128-J-10-3.bmp\",\"papata\",\"Up\",\"38\",\"9\",\"15\",\"4\",\"P\",\"C\",\"143\"
\"\",\"\",\"approach-retreat\",\"147\",\"1240407\",\"0.0-147.0\",\"\",\"\",\"2-2\",\"6845\",\"38\",\"1\",\"Training\",\"Stims/Figures/118-J-0-2.bmp\",\"ta:pa:ta\",\"Up\",\"38\",\"9\",\"16\",\"4\",\"P\",\"C\",\"144\"
\"14589\",\"\",\"instructions\",\"148\",\"1254996\",\"0.0-148.0\",\"[{\"\"page_index\"\":0,\"\"viewing_time\"\":14589}]\",\"\",\"\",\"\",\"\",\"\",\"\",\"\",\"\",\"\",\"\",\"\",\"\",\"\",\"\",\"\",\"\"
\"\",\"\",\"approach-retreat\",\"149\",\"1264221\",\"0.0-149.0\",\"\",\"\",\"2-2\",\"7719\",\"40\",\"0\",\"Testing\",\"Stims/Figures/86-C-30-1.bmp\",\"ma:ma:la\",\"Down\",\"38\",\"1\",\"1\",\"4\",\"S\",\"C\",\"1\"
\"\",\"\",\"approach-retreat\",\"150\",\"1270261\",\"0.0-150.0\",\"\",\"\",\"2-2\",\"4534\",\"38\",\"0\",\"Testing\",\"Stims/Figures/44-C-30-3.bmp\",\"mamana\",\"Up\",\"40\",\"1\",\"2\",\"4\",\"S\",\"C\",\"2\"
\"\",\"\",\"approach-retreat\",\"151\",\"1278242\",\"0.0-151.0\",\"\",\"\",\"2-2\",\"6476\",\"39\",\"0\",\"Testing\",\"Stims/Figures/94-C-20-2.bmp\",\"ma:ma:na\",\"Right\",\"37\",\"1\",\"3\",\"4\",\"S\",\"C\",\"3\"
\"\",\"\",\"approach-retreat\",\"152\",\"1284866\",\"0.0-152.0\",\"\",\"\",\"2-2\",\"5119\",\"39\",\"0\",\"Testing\",\"Stims/Figures/7-J-10-4.bmp\",\"ta:paka\",\"Left\",\"37\",\"1\",\"4\",\"4\",\"P\",\"C\",\"4\"
\"\",\"\",\"approach-retreat\",\"153\",\"1295023\",\"0.0-153.0\",\"\",\"\",\"2-2\",\"8652\",\"40\",\"0\",\"Testing\",\"Stims/Figures/102-J-10-4.bmp\",\"paka:ka\",\"Up\",\"38\",\"1\",\"5\",\"4\",\"P\",\"C\",\"5\"
\"\",\"\",\"approach-retreat\",\"154\",\"1301823\",\"0.0-154.0\",\"\",\"\",\"2-2\",\"5294\",\"37\",\"1\",\"Testing\",\"Stims/Figures/87-J-10-4.bmp\",\"papa:ka\",\"Left\",\"37\",\"1\",\"6\",\"4\",\"P\",\"C\",\"6\"
\"\",\"\",\"approach-retreat\",\"155\",\"1309334\",\"0.0-155.0\",\"\",\"\",\"2-2\",\"6006\",\"40\",\"0\",\"Testing\",\"Stims/Figures/102-C-20-4.bmp\",\"ma:mala\",\"Down\",\"38\",\"1\",\"7\",\"4\",\"S\",\"C\",\"7\"
\"\",\"\",\"approach-retreat\",\"156\",\"1316051\",\"0.0-156.0\",\"\",\"\",\"2-2\",\"5213\",\"38\",\"0\",\"Testing\",\"Stims/Figures/71-C-30-1.bmp\",\"mama:na\",\"Up\",\"40\",\"1\",\"8\",\"4\",\"S\",\"C\",\"8\"
\"\",\"\",\"approach-retreat\",\"157\",\"1324657\",\"0.0-157.0\",\"\",\"\",\"2-2\",\"7102\",\"37\",\"0\",\"Testing\",\"Stims/Figures/85-J-0-2.bmp\",\"ta:ka:ka\",\"Right\",\"39\",\"1\",\"9\",\"4\",\"P\",\"C\",\"9\"
\"\",\"\",\"approach-retreat\",\"158\",\"1330541\",\"0.0-158.0\",\"\",\"\",\"2-2\",\"4379\",\"37\",\"1\",\"Testing\",\"Stims/Figures/86-J-0-1.bmp\",\"taka:ta\",\"Left\",\"37\",\"1\",\"10\",\"4\",\"P\",\"C\",\"10\"
\"\",\"\",\"approach-retreat\",\"159\",\"1338927\",\"0.0-159.0\",\"\",\"\",\"2-2\",\"6881\",\"39\",\"0\",\"Testing\",\"Stims/Figures/27-C-30-1.bmp\",\"nalana\",\"Right\",\"37\",\"1\",\"11\",\"4\",\"S\",\"C\",\"11\"
\"\",\"\",\"approach-retreat\",\"160\",\"1345131\",\"0.0-160.0\",\"\",\"\",\"2-2\",\"4699\",\"39\",\"1\",\"Testing\",\"Stims/Figures/44-J-10-3.bmp\",\"tapa:ta\",\"Right\",\"39\",\"1\",\"12\",\"4\",\"P\",\"C\",\"12\"
\"\",\"\",\"approach-retreat\",\"161\",\"1351130\",\"0.0-161.0\",\"\",\"\",\"2-2\",\"4495\",\"38\",\"0\",\"Testing\",\"Stims/Figures/27-J-0-1.bmp\",\"tapaka\",\"Down\",\"40\",\"1\",\"13\",\"4\",\"P\",\"C\",\"13\"
\"\",\"\",\"approach-retreat\",\"162\",\"1357207\",\"0.0-162.0\",\"\",\"\",\"2-2\",\"4572\",\"38\",\"0\",\"Testing\",\"Stims/Figures/144-C-30-3.bmp\",\"nama:la\",\"Up\",\"40\",\"1\",\"14\",\"4\",\"S\",\"C\",\"14\"
\"\",\"\",\"approach-retreat\",\"163\",\"1362954\",\"0.0-163.0\",\"\",\"\",\"2-2\",\"4242\",\"37\",\"0\",\"Testing\",\"Stims/Figures/144-J-10-3.bmp\",\"takaka\",\"Right\",\"39\",\"1\",\"15\",\"4\",\"P\",\"C\",\"15\"
\"\",\"\",\"approach-retreat\",\"164\",\"1370881\",\"0.0-164.0\",\"\",\"\",\"2-2\",\"6423\",\"39\",\"0\",\"Testing\",\"Stims/Figures/128-J-10-3.bmp\",\"papata\",\"Left\",\"37\",\"1\",\"16\",\"4\",\"P\",\"C\",\"16\"
\"\",\"\",\"approach-retreat\",\"165\",\"1379560\",\"0.0-165.0\",\"\",\"\",\"2-2\",\"7174\",\"40\",\"1\",\"Testing\",\"Stims/Figures/118-C-20-2.bmp\",\"ma:la:la\",\"Up\",\"40\",\"1\",\"17\",\"4\",\"S\",\"C\",\"17\"
\"\",\"\",\"approach-retreat\",\"166\",\"1388126\",\"0.0-166.0\",\"\",\"\",\"2-2\",\"7061\",\"38\",\"0\",\"Testing\",\"Stims/Figures/85-C-20-2.bmp\",\"na:lala\",\"Up\",\"40\",\"1\",\"18\",\"4\",\"S\",\"C\",\"18\"
\"\",\"\",\"approach-retreat\",\"167\",\"1395587\",\"0.0-167.0\",\"\",\"\",\"2-2\",\"5953\",\"39\",\"1\",\"Testing\",\"Stims/Figures/118-J-0-2.bmp\",\"ta:pa:ta\",\"Right\",\"39\",\"1\",\"19\",\"4\",\"P\",\"C\",\"19\"
\"\",\"\",\"approach-retreat\",\"168\",\"1401384\",\"0.0-168.0\",\"\",\"\",\"2-2\",\"4292\",\"39\",\"0\",\"Testing\",\"Stims/Figures/94-J-0-2.bmp\",\"pa:pata\",\"Left\",\"37\",\"1\",\"20\",\"4\",\"P\",\"C\",\"20\"
\"\",\"\",\"approach-retreat\",\"169\",\"1407428\",\"0.0-169.0\",\"\",\"\",\"2-2\",\"4538\",\"38\",\"1\",\"Testing\",\"Stims/Figures/7-C-20-4.bmp\",\"mama:la\",\"Down\",\"38\",\"1\",\"21\",\"4\",\"S\",\"C\",\"21\"
\"\",\"\",\"approach-retreat\",\"170\",\"1414192\",\"0.0-170.0\",\"\",\"\",\"2-2\",\"5259\",\"38\",\"0\",\"Testing\",\"Stims/Figures/71-J-0-1.bmp\",\"tapa:ka\",\"Down\",\"40\",\"1\",\"22\",\"4\",\"P\",\"C\",\"22\"
\"\",\"\",\"approach-retreat\",\"171\",\"1419857\",\"0.0-171.0\",\"\",\"\",\"2-2\",\"4162\",\"37\",\"0\",\"Testing\",\"Stims/Figures/87-C-20-4.bmp\",\"na:mala\",\"Left\",\"39\",\"1\",\"23\",\"4\",\"S\",\"C\",\"23\"
\"\",\"\",\"approach-retreat\",\"172\",\"1427182\",\"0.0-172.0\",\"\",\"\",\"2-2\",\"5820\",\"40\",\"0\",\"Testing\",\"Stims/Figures/128-C-30-3.bmp\",\"namala\",\"Down\",\"38\",\"1\",\"24\",\"4\",\"S\",\"C\",\"24\"
\"\",\"\",\"approach-retreat\",\"173\",\"1433440\",\"0.0-173.0\",\"\",\"\",\"2-2\",\"4754\",\"38\",\"1\",\"Testing\",\"Stims/Figures/27-J-0-1.bmp\",\"tapaka\",\"Up\",\"38\",\"2\",\"1\",\"4\",\"P\",\"C\",\"25\"
\"\",\"\",\"approach-retreat\",\"174\",\"1439642\",\"0.0-174.0\",\"\",\"\",\"2-2\",\"4698\",\"38\",\"1\",\"Testing\",\"Stims/Figures/118-C-20-2.bmp\",\"ma:la:la\",\"Down\",\"38\",\"2\",\"2\",\"4\",\"S\",\"C\",\"26\"
\"\",\"\",\"approach-retreat\",\"175\",\"1445299\",\"0.0-175.0\",\"\",\"\",\"2-2\",\"4151\",\"37\",\"0\",\"Testing\",\"Stims/Figures/144-C-30-3.bmp\",\"nama:la\",\"Left\",\"39\",\"2\",\"3\",\"4\",\"S\",\"C\",\"27\"
\"\",\"\",\"approach-retreat\",\"176\",\"1452744\",\"0.0-176.0\",\"\",\"\",\"2-2\",\"5941\",\"38\",\"1\",\"Testing\",\"Stims/Figures/118-J-0-2.bmp\",\"ta:pa:ta\",\"Up\",\"38\",\"2\",\"4\",\"4\",\"P\",\"C\",\"28\"
\"\",\"\",\"approach-retreat\",\"177\",\"1458654\",\"0.0-177.0\",\"\",\"\",\"2-2\",\"4404\",\"39\",\"0\",\"Testing\",\"Stims/Figures/87-C-20-4.bmp\",\"na:mala\",\"Right\",\"37\",\"2\",\"5\",\"4\",\"S\",\"C\",\"29\"
\"\",\"\",\"approach-retreat\",\"178\",\"1465688\",\"0.0-178.0\",\"\",\"\",\"2-2\",\"5529\",\"39\",\"1\",\"Testing\",\"Stims/Figures/86-C-30-1.bmp\",\"ma:ma:la\",\"Left\",\"39\",\"2\",\"6\",\"4\",\"S\",\"C\",\"30\"
\"\",\"\",\"approach-retreat\",\"179\",\"1471908\",\"0.0-179.0\",\"\",\"\",\"2-2\",\"4717\",\"38\",\"0\",\"Testing\",\"Stims/Figures/94-J-0-2.bmp\",\"pa:pata\",\"Down\",\"40\",\"2\",\"7\",\"4\",\"P\",\"C\",\"31\"
\"\",\"\",\"approach-retreat\",\"180\",\"1477945\",\"0.0-180.0\",\"\",\"\",\"2-2\",\"4532\",\"37\",\"1\",\"Testing\",\"Stims/Figures/7-C-20-4.bmp\",\"mama:la\",\"Right\",\"37\",\"2\",\"8\",\"4\",\"S\",\"C\",\"32\"
\"\",\"\",\"approach-retreat\",\"181\",\"1483521\",\"0.0-181.0\",\"\",\"\",\"2-2\",\"4072\",\"37\",\"1\",\"Testing\",\"Stims/Figures/71-C-30-1.bmp\",\"mama:na\",\"Right\",\"37\",\"2\",\"9\",\"4\",\"S\",\"C\",\"33\"
\"\",\"\",\"approach-retreat\",\"182\",\"1489393\",\"0.0-182.0\",\"\",\"\",\"2-2\",\"4368\",\"40\",\"0\",\"Testing\",\"Stims/Figures/102-J-10-4.bmp\",\"paka:ka\",\"Up\",\"38\",\"2\",\"10\",\"4\",\"P\",\"C\",\"34\"
\"\",\"\",\"approach-retreat\",\"183\",\"1494924\",\"0.0-183.0\",\"\",\"\",\"2-2\",\"4027\",\"37\",\"0\",\"Testing\",\"Stims/Figures/7-J-10-4.bmp\",\"ta:paka\",\"Right\",\"39\",\"2\",\"11\",\"4\",\"P\",\"C\",\"35\"
\"\",\"\",\"approach-retreat\",\"184\",\"1501749\",\"0.0-184.0\",\"\",\"\",\"2-2\",\"5321\",\"38\",\"0\",\"Testing\",\"Stims/Figures/86-J-0-1.bmp\",\"taka:ta\",\"Down\",\"40\",\"2\",\"12\",\"4\",\"P\",\"C\",\"36\"
\"\",\"\",\"approach-retreat\",\"185\",\"1507399\",\"0.0-185.0\",\"\",\"\",\"2-2\",\"4145\",\"40\",\"1\",\"Testing\",\"Stims/Figures/144-J-10-3.bmp\",\"takaka\",\"Down\",\"40\",\"2\",\"13\",\"4\",\"P\",\"C\",\"37\"
\"\",\"\",\"approach-retreat\",\"186\",\"1513100\",\"0.0-186.0\",\"\",\"\",\"2-2\",\"4195\",\"40\",\"1\",\"Testing\",\"Stims/Figures/128-J-10-3.bmp\",\"papata\",\"Down\",\"40\",\"2\",\"14\",\"4\",\"P\",\"C\",\"38\"
\"\",\"\",\"approach-retreat\",\"187\",\"1522023\",\"0.0-187.0\",\"\",\"\",\"2-2\",\"7419\",\"39\",\"0\",\"Testing\",\"Stims/Figures/85-J-0-2.bmp\",\"ta:ka:ka\",\"Left\",\"37\",\"2\",\"15\",\"4\",\"P\",\"C\",\"39\"
\"\",\"\",\"approach-retreat\",\"188\",\"1531393\",\"0.0-188.0\",\"\",\"\",\"2-2\",\"7865\",\"38\",\"0\",\"Testing\",\"Stims/Figures/85-C-20-2.bmp\",\"na:lala\",\"Up\",\"40\",\"2\",\"16\",\"4\",\"S\",\"C\",\"40\"
\"\",\"\",\"approach-retreat\",\"189\",\"1539551\",\"0.0-189.0\",\"\",\"\",\"2-2\",\"6654\",\"39\",\"0\",\"Testing\",\"Stims/Figures/102-C-20-4.bmp\",\"ma:mala\",\"Right\",\"37\",\"2\",\"17\",\"4\",\"S\",\"C\",\"41\"
\"\",\"\",\"approach-retreat\",\"190\",\"1546654\",\"0.0-190.0\",\"\",\"\",\"2-2\",\"5598\",\"37\",\"1\",\"Testing\",\"Stims/Figures/71-J-0-1.bmp\",\"tapa:ka\",\"Left\",\"37\",\"2\",\"18\",\"4\",\"P\",\"C\",\"42\"
\"\",\"\",\"approach-retreat\",\"191\",\"1553069\",\"0.0-191.0\",\"\",\"\",\"2-2\",\"4910\",\"38\",\"0\",\"Testing\",\"Stims/Figures/44-C-30-3.bmp\",\"mamana\",\"Up\",\"40\",\"2\",\"19\",\"4\",\"S\",\"C\",\"43\"
\"\",\"\",\"approach-retreat\",\"192\",\"1559982\",\"0.0-192.0\",\"\",\"\",\"2-2\",\"5410\",\"39\",\"1\",\"Testing\",\"Stims/Figures/128-C-30-3.bmp\",\"namala\",\"Left\",\"39\",\"2\",\"20\",\"4\",\"S\",\"C\",\"44\"
\"\",\"\",\"approach-retreat\",\"193\",\"1565617\",\"0.0-193.0\",\"\",\"\",\"2-2\",\"4131\",\"38\",\"1\",\"Testing\",\"Stims/Figures/44-J-10-3.bmp\",\"tapa:ta\",\"Up\",\"38\",\"2\",\"21\",\"4\",\"P\",\"C\",\"45\"
\"\",\"\",\"approach-retreat\",\"194\",\"1571375\",\"0.0-194.0\",\"\",\"\",\"2-2\",\"4252\",\"39\",\"1\",\"Testing\",\"Stims/Figures/87-J-10-4.bmp\",\"papa:ka\",\"Right\",\"39\",\"2\",\"22\",\"4\",\"P\",\"C\",\"46\"
\"\",\"\",\"approach-retreat\",\"195\",\"1577727\",\"0.0-195.0\",\"\",\"\",\"2-2\",\"4848\",\"38\",\"1\",\"Testing\",\"Stims/Figures/94-C-20-2.bmp\",\"ma:ma:na\",\"Down\",\"38\",\"2\",\"23\",\"4\",\"S\",\"C\",\"47\"
\"\",\"\",\"approach-retreat\",\"196\",\"1583693\",\"0.0-196.0\",\"\",\"\",\"2-2\",\"4460\",\"39\",\"1\",\"Testing\",\"Stims/Figures/27-C-30-1.bmp\",\"nalana\",\"Left\",\"39\",\"2\",\"24\",\"4\",\"S\",\"C\",\"48\"
\"\",\"\",\"approach-retreat\",\"197\",\"1590889\",\"0.0-197.0\",\"\",\"\",\"2-2\",\"5693\",\"38\",\"0\",\"Testing\",\"Stims/Figures/144-J-10-3.bmp\",\"takaka\",\"Down\",\"40\",\"3\",\"1\",\"4\",\"P\",\"C\",\"49\"
\"\",\"\",\"approach-retreat\",\"198\",\"1597457\",\"0.0-198.0\",\"\",\"\",\"2-2\",\"5064\",\"37\",\"1\",\"Testing\",\"Stims/Figures/27-C-30-1.bmp\",\"nalana\",\"Right\",\"37\",\"3\",\"2\",\"4\",\"S\",\"C\",\"50\"
\"\",\"\",\"approach-retreat\",\"199\",\"1603118\",\"0.0-199.0\",\"\",\"\",\"2-2\",\"4157\",\"38\",\"0\",\"Testing\",\"Stims/Figures/102-C-20-4.bmp\",\"ma:mala\",\"Up\",\"40\",\"3\",\"3\",\"4\",\"S\",\"C\",\"51\"
\"\",\"\",\"approach-retreat\",\"200\",\"1608906\",\"0.0-200.0\",\"\",\"\",\"2-2\",\"4281\",\"37\",\"0\",\"Testing\",\"Stims/Figures/94-J-0-2.bmp\",\"pa:pata\",\"Right\",\"39\",\"3\",\"4\",\"4\",\"P\",\"C\",\"52\"
\"\",\"\",\"approach-retreat\",\"201\",\"1616964\",\"0.0-201.0\",\"\",\"\",\"2-2\",\"6555\",\"40\",\"1\",\"Testing\",\"Stims/Figures/144-C-30-3.bmp\",\"nama:la\",\"Up\",\"40\",\"3\",\"5\",\"4\",\"S\",\"C\",\"53\"
\"\",\"\",\"approach-retreat\",\"202\",\"1622753\",\"0.0-202.0\",\"\",\"\",\"2-2\",\"4284\",\"38\",\"1\",\"Testing\",\"Stims/Figures/71-C-30-1.bmp\",\"mama:na\",\"Down\",\"38\",\"3\",\"6\",\"4\",\"S\",\"C\",\"54\"
\"\",\"\",\"approach-retreat\",\"203\",\"1628575\",\"0.0-203.0\",\"\",\"\",\"2-2\",\"4317\",\"37\",\"1\",\"Testing\",\"Stims/Figures/44-C-30-3.bmp\",\"mamana\",\"Right\",\"37\",\"3\",\"7\",\"4\",\"S\",\"C\",\"55\"
\"\",\"\",\"approach-retreat\",\"204\",\"1634593\",\"0.0-204.0\",\"\",\"\",\"2-2\",\"4514\",\"37\",\"1\",\"Testing\",\"Stims/Figures/102-J-10-4.bmp\",\"paka:ka\",\"Left\",\"37\",\"3\",\"8\",\"4\",\"P\",\"C\",\"56\"
\"\",\"\",\"approach-retreat\",\"205\",\"1640576\",\"0.0-205.0\",\"\",\"\",\"2-2\",\"4477\",\"38\",\"0\",\"Testing\",\"Stims/Figures/7-J-10-4.bmp\",\"ta:paka\",\"Down\",\"40\",\"3\",\"9\",\"4\",\"P\",\"C\",\"57\"
\"\",\"\",\"approach-retreat\",\"206\",\"1646183\",\"0.0-206.0\",\"\",\"\",\"2-2\",\"4104\",\"38\",\"0\",\"Testing\",\"Stims/Figures/85-J-0-2.bmp\",\"ta:ka:ka\",\"Down\",\"40\",\"3\",\"10\",\"4\",\"P\",\"C\",\"58\"
\"\",\"\",\"approach-retreat\",\"207\",\"1652382\",\"0.0-207.0\",\"\",\"\",\"2-2\",\"4694\",\"39\",\"0\",\"Testing\",\"Stims/Figures/86-J-0-1.bmp\",\"taka:ta\",\"Left\",\"37\",\"3\",\"11\",\"4\",\"P\",\"C\",\"59\"
\"\",\"\",\"approach-retreat\",\"208\",\"1659574\",\"0.0-208.0\",\"\",\"\",\"2-2\",\"5688\",\"39\",\"1\",\"Testing\",\"Stims/Figures/128-C-30-3.bmp\",\"namala\",\"Left\",\"39\",\"3\",\"12\",\"4\",\"S\",\"C\",\"60\"
\"\",\"\",\"approach-retreat\",\"209\",\"1666070\",\"0.0-209.0\",\"\",\"\",\"2-2\",\"4991\",\"39\",\"1\",\"Testing\",\"Stims/Figures/7-C-20-4.bmp\",\"mama:la\",\"Left\",\"39\",\"3\",\"13\",\"4\",\"S\",\"C\",\"61\"
\"\",\"\",\"approach-retreat\",\"210\",\"1671704\",\"0.0-210.0\",\"\",\"\",\"2-2\",\"4129\",\"40\",\"0\",\"Testing\",\"Stims/Figures/44-J-10-3.bmp\",\"tapa:ta\",\"Up\",\"38\",\"3\",\"14\",\"4\",\"P\",\"C\",\"62\"
\"\",\"\",\"approach-retreat\",\"211\",\"1684805\",\"0.0-211.0\",\"\",\"\",\"2-2\",\"11598\",\"40\",\"0\",\"Testing\",\"Stims/Figures/118-C-20-2.bmp\",\"ma:la:la\",\"Down\",\"38\",\"3\",\"15\",\"4\",\"S\",\"C\",\"63\"
\"\",\"\",\"approach-retreat\",\"212\",\"1694913\",\"0.0-212.0\",\"\",\"\",\"2-2\",\"8604\",\"39\",\"1\",\"Testing\",\"Stims/Figures/86-C-30-1.bmp\",\"ma:ma:la\",\"Left\",\"39\",\"3\",\"16\",\"4\",\"S\",\"C\",\"64\"
\"\",\"\",\"approach-retreat\",\"213\",\"1701286\",\"0.0-213.0\",\"\",\"\",\"2-2\",\"4867\",\"39\",\"1\",\"Testing\",\"Stims/Figures/94-C-20-2.bmp\",\"ma:ma:na\",\"Left\",\"39\",\"3\",\"17\",\"4\",\"S\",\"C\",\"65\"
\"\",\"\",\"approach-retreat\",\"214\",\"1707924\",\"0.0-214.0\",\"\",\"\",\"2-2\",\"5131\",\"38\",\"0\",\"Testing\",\"Stims/Figures/87-C-20-4.bmp\",\"na:mala\",\"Up\",\"40\",\"3\",\"18\",\"4\",\"S\",\"C\",\"66\"
\"\",\"\",\"approach-retreat\",\"215\",\"1714116\",\"0.0-215.0\",\"\",\"\",\"2-2\",\"4688\",\"37\",\"0\",\"Testing\",\"Stims/Figures/118-J-0-2.bmp\",\"ta:pa:ta\",\"Right\",\"39\",\"3\",\"19\",\"4\",\"P\",\"C\",\"67\"
\"\",\"\",\"approach-retreat\",\"216\",\"1719861\",\"0.0-216.0\",\"\",\"\",\"2-2\",\"4241\",\"39\",\"1\",\"Testing\",\"Stims/Figures/27-J-0-1.bmp\",\"tapaka\",\"Right\",\"39\",\"3\",\"20\",\"4\",\"P\",\"C\",\"68\"
\"\",\"\",\"approach-retreat\",\"217\",\"1727541\",\"0.0-217.0\",\"\",\"\",\"2-2\",\"6176\",\"40\",\"0\",\"Testing\",\"Stims/Figures/71-J-0-1.bmp\",\"tapa:ka\",\"Up\",\"38\",\"3\",\"21\",\"4\",\"P\",\"C\",\"69\"
\"\",\"\",\"approach-retreat\",\"218\",\"1736444\",\"0.0-218.0\",\"\",\"\",\"2-2\",\"7397\",\"37\",\"0\",\"Testing\",\"Stims/Figures/128-J-10-3.bmp\",\"papata\",\"Right\",\"39\",\"3\",\"22\",\"4\",\"P\",\"C\",\"70\"
\"\",\"\",\"approach-retreat\",\"219\",\"1747516\",\"0.0-219.0\",\"\",\"\",\"2-2\",\"9567\",\"40\",\"0\",\"Testing\",\"Stims/Figures/85-C-20-2.bmp\",\"na:lala\",\"Down\",\"38\",\"3\",\"23\",\"4\",\"S\",\"C\",\"71\"
\"\",\"\",\"approach-retreat\",\"220\",\"1762823\",\"0.0-220.0\",\"\",\"\",\"2-2\",\"13803\",\"38\",\"1\",\"Testing\",\"Stims/Figures/87-J-10-4.bmp\",\"papa:ka\",\"Up\",\"38\",\"3\",\"24\",\"4\",\"P\",\"C\",\"72\"
\"\",\"\",\"approach-retreat\",\"221\",\"1770207\",\"0.0-221.0\",\"\",\"\",\"2-2\",\"5880\",\"40\",\"1\",\"Testing\",\"Stims/Figures/102-J-10-4.bmp\",\"paka:ka\",\"Down\",\"40\",\"4\",\"1\",\"4\",\"P\",\"C\",\"73\"
\"\",\"\",\"approach-retreat\",\"222\",\"1775829\",\"0.0-222.0\",\"\",\"\",\"2-2\",\"4117\",\"37\",\"0\",\"Testing\",\"Stims/Figures/144-J-10-3.bmp\",\"takaka\",\"Right\",\"39\",\"4\",\"2\",\"4\",\"P\",\"C\",\"74\"
\"\",\"\",\"approach-retreat\",\"223\",\"1781475\",\"0.0-223.0\",\"\",\"\",\"2-2\",\"4143\",\"40\",\"1\",\"Testing\",\"Stims/Figures/94-C-20-2.bmp\",\"ma:ma:na\",\"Up\",\"40\",\"4\",\"3\",\"4\",\"S\",\"C\",\"75\"
\"\",\"\",\"approach-retreat\",\"224\",\"1787458\",\"0.0-224.0\",\"\",\"\",\"2-2\",\"4479\",\"40\",\"0\",\"Testing\",\"Stims/Figures/44-C-30-3.bmp\",\"mamana\",\"Down\",\"38\",\"4\",\"4\",\"4\",\"S\",\"C\",\"76\"
\"\",\"\",\"approach-retreat\",\"225\",\"1799091\",\"0.0-225.0\",\"\",\"\",\"2-2\",\"10128\",\"39\",\"0\",\"Testing\",\"Stims/Figures/27-J-0-1.bmp\",\"tapaka\",\"Left\",\"37\",\"4\",\"5\",\"4\",\"P\",\"C\",\"77\"
\"\",\"\",\"approach-retreat\",\"226\",\"1806996\",\"0.0-226.0\",\"\",\"\",\"2-2\",\"6400\",\"40\",\"0\",\"Testing\",\"Stims/Figures/7-J-10-4.bmp\",\"ta:paka\",\"Up\",\"38\",\"4\",\"6\",\"4\",\"P\",\"C\",\"78\"
\"\",\"\",\"approach-retreat\",\"227\",\"1814582\",\"0.0-227.0\",\"\",\"\",\"2-2\",\"6082\",\"40\",\"0\",\"Testing\",\"Stims/Figures/128-J-10-3.bmp\",\"papata\",\"Up\",\"38\",\"4\",\"7\",\"4\",\"P\",\"C\",\"79\"
\"\",\"\",\"approach-retreat\",\"228\",\"1821846\",\"0.0-228.0\",\"\",\"\",\"2-2\",\"5760\",\"39\",\"1\",\"Testing\",\"Stims/Figures/144-C-30-3.bmp\",\"nama:la\",\"Left\",\"39\",\"4\",\"8\",\"4\",\"S\",\"C\",\"80\"
\"\",\"\",\"approach-retreat\",\"229\",\"1827438\",\"0.0-229.0\",\"\",\"\",\"2-2\",\"4086\",\"40\",\"0\",\"Testing\",\"Stims/Figures/85-J-0-2.bmp\",\"ta:ka:ka\",\"Up\",\"38\",\"4\",\"9\",\"4\",\"P\",\"C\",\"81\"
\"\",\"\",\"approach-retreat\",\"230\",\"1833344\",\"0.0-230.0\",\"\",\"\",\"2-2\",\"4400\",\"39\",\"0\",\"Testing\",\"Stims/Figures/87-C-20-4.bmp\",\"na:mala\",\"Right\",\"37\",\"4\",\"10\",\"4\",\"S\",\"C\",\"82\"
\"\",\"\",\"approach-retreat\",\"231\",\"1838965\",\"0.0-231.0\",\"\",\"\",\"2-2\",\"4116\",\"38\",\"1\",\"Testing\",\"Stims/Figures/44-J-10-3.bmp\",\"tapa:ta\",\"Up\",\"38\",\"4\",\"11\",\"4\",\"P\",\"C\",\"83\"
\"\",\"\",\"approach-retreat\",\"232\",\"1846593\",\"0.0-232.0\",\"\",\"\",\"2-2\",\"6125\",\"39\",\"1\",\"Testing\",\"Stims/Figures/71-C-30-1.bmp\",\"mama:na\",\"Left\",\"39\",\"4\",\"12\",\"4\",\"S\",\"C\",\"84\"
\"\",\"\",\"approach-retreat\",\"233\",\"1853917\",\"0.0-233.0\",\"\",\"\",\"2-2\",\"5819\",\"39\",\"0\",\"Testing\",\"Stims/Figures/118-J-0-2.bmp\",\"ta:pa:ta\",\"Left\",\"37\",\"4\",\"13\",\"4\",\"P\",\"C\",\"85\"
\"\",\"\",\"approach-retreat\",\"234\",\"1862434\",\"0.0-234.0\",\"\",\"\",\"2-2\",\"7012\",\"40\",\"0\",\"Testing\",\"Stims/Figures/102-C-20-4.bmp\",\"ma:mala\",\"Down\",\"38\",\"4\",\"14\",\"4\",\"S\",\"C\",\"86\"
\"\",\"\",\"approach-retreat\",\"235\",\"1869013\",\"0.0-235.0\",\"\",\"\",\"2-2\",\"5075\",\"39\",\"0\",\"Testing\",\"Stims/Figures/94-J-0-2.bmp\",\"pa:pata\",\"Left\",\"37\",\"4\",\"15\",\"4\",\"P\",\"C\",\"87\"
\"\",\"\",\"approach-retreat\",\"236\",\"1874668\",\"0.0-236.0\",\"\",\"\",\"2-2\",\"4150\",\"38\",\"0\",\"Testing\",\"Stims/Figures/86-J-0-1.bmp\",\"taka:ta\",\"Down\",\"40\",\"4\",\"16\",\"4\",\"P\",\"C\",\"88\"
\"\",\"\",\"approach-retreat\",\"237\",\"1879980\",\"0.0-237.0\",\"\",\"\",\"2-2\",\"3808\",\"39\",\"0\",\"Testing\",\"Stims/Figures/128-C-30-3.bmp\",\"namala\",\"Right\",\"37\",\"4\",\"17\",\"4\",\"S\",\"C\",\"89\"
\"\",\"\",\"approach-retreat\",\"238\",\"1886053\",\"0.0-238.0\",\"\",\"\",\"2-2\",\"4567\",\"38\",\"1\",\"Testing\",\"Stims/Figures/86-C-30-1.bmp\",\"ma:ma:la\",\"Down\",\"38\",\"4\",\"18\",\"4\",\"S\",\"C\",\"90\"
\"\",\"\",\"approach-retreat\",\"239\",\"1892125\",\"0.0-239.0\",\"\",\"\",\"2-2\",\"4567\",\"38\",\"1\",\"Testing\",\"Stims/Figures/7-C-20-4.bmp\",\"mama:la\",\"Down\",\"38\",\"4\",\"19\",\"4\",\"S\",\"C\",\"91\"
\"\",\"\",\"approach-retreat\",\"240\",\"1899587\",\"0.0-240.0\",\"\",\"\",\"2-2\",\"5958\",\"40\",\"1\",\"Testing\",\"Stims/Figures/118-C-20-2.bmp\",\"ma:la:la\",\"Up\",\"40\",\"4\",\"20\",\"4\",\"S\",\"C\",\"92\"
\"\",\"\",\"approach-retreat\",\"241\",\"1905424\",\"0.0-241.0\",\"\",\"\",\"2-2\",\"4333\",\"39\",\"1\",\"Testing\",\"Stims/Figures/87-J-10-4.bmp\",\"papa:ka\",\"Right\",\"39\",\"4\",\"21\",\"4\",\"P\",\"C\",\"93\"
\"\",\"\",\"approach-retreat\",\"242\",\"1913718\",\"0.0-242.0\",\"\",\"\",\"2-2\",\"6791\",\"37\",\"0\",\"Testing\",\"Stims/Figures/71-J-0-1.bmp\",\"tapa:ka\",\"Right\",\"39\",\"4\",\"22\",\"4\",\"P\",\"C\",\"94\"
\"\",\"\",\"approach-retreat\",\"243\",\"1920809\",\"0.0-243.0\",\"\",\"\",\"2-2\",\"5587\",\"39\",\"0\",\"Testing\",\"Stims/Figures/27-C-30-1.bmp\",\"nalana\",\"Right\",\"37\",\"4\",\"23\",\"4\",\"S\",\"C\",\"95\"
\"\",\"\",\"approach-retreat\",\"244\",\"1926773\",\"0.0-244.0\",\"\",\"\",\"2-2\",\"4459\",\"37\",\"0\",\"Testing\",\"Stims/Figures/85-C-20-2.bmp\",\"na:lala\",\"Left\",\"39\",\"4\",\"24\",\"4\",\"S\",\"C\",\"96\"
\"57975\",\"\",\"survey-text\",\"245\",\"1984752\",\"0.0-245.0\",\"\",\"{\"\"Q0\"\":\"\"1238/2017\"\"}\",\"\",\"\",\"\",\"\",\"\",\"\",\"\",\"\",\"\",\"\",\"\",\"\",\"\",\"\",\"\"
