\"rt\",\"key_press\",\"trial_type\",\"trial_index\",\"time_elapsed\",\"internal_node_id\",\"view_history\",\"responses\",\"Id\",\"Rt\",\"ResKeyCode\",\"ResCorr\",\"TrialType2\",\"Image\",\"Label\",\"Location\",\"CorrectResponse\",\"Block\",\"BlockTrial\",\"Condition\",\"LabelType\",\"Subcondition\",\"trialNum\"
\"191902\",\"32\",\"text\",\"0\",\"191914\",\"0.0-0.0-0.0\",\"\",\"\",\"\",\"\",\"\",\"\",\"\",\"\",\"\",\"\",\"\",\"\",\"\",\"\",\"\",\"\",\"\"
\"4375\",\"\",\"instructions\",\"1\",\"196292\",\"0.0-1.0\",\"[{\"\"page_index\"\":0,\"\"viewing_time\"\":4373}]\",\"\",\"\",\"\",\"\",\"\",\"\",\"\",\"\",\"\",\"\",\"\",\"\",\"\",\"\",\"\",\"\"
\"74994\",\"\",\"survey-multi-choice\",\"2\",\"271334\",\"0.0-2.0\",\"\",\"{\"\"Q0\"\":\"\"Da\"\",\"\"Q1\"\":\"\"Da\"\",\"\"Q2\"\":\"\"Da\"\",\"\"Q3\"\":\"\"Da\"\",\"\"Q4\"\":\"\"Da\"\",\"\"Q5\"\":\"\"Da\"\"}\",\"\",\"\",\"\",\"\",\"\",\"\",\"\",\"\",\"\",\"\",\"\",\"\",\"\",\"\",\"\"
\"\",\"\",\"bio\",\"3\",\"286885\",\"0.0-3.0\",\"\",\"{\"\"age\"\":\"\"19\"\",\"\"gender\"\":\"\"f\"\",\"\"specify\"\":\"\"\"\"}\",\"\",\"\",\"\",\"\",\"\",\"\",\"\",\"\",\"\",\"\",\"\",\"\",\"\",\"\",\"\"
\"\",\"\",\"approach-retreat\",\"4\",\"362863\",\"0.0-4.0\",\"\",\"\",\"2-5\",\"74464\",\"39\",\"1\",\"Training\",\"Stims/Figures/100-C-30-3.bmp\",\"fa:fasha\",\"Right\",\"39\",\"1\",\"1\",\"3B\",\"C1\",\"J\",\"1\"
\"\",\"\",\"approach-retreat\",\"5\",\"374585\",\"0.0-5.0\",\"\",\"\",\"2-5\",\"10208\",\"38\",\"1\",\"Training\",\"Stims/Figures/93-C-30-1.bmp\",\"fa:fasha\",\"Up\",\"38\",\"1\",\"2\",\"3B\",\"C1\",\"J\",\"2\"
\"\",\"\",\"approach-retreat\",\"6\",\"382353\",\"0.0-6.0\",\"\",\"\",\"2-5\",\"6256\",\"40\",\"0\",\"Training\",\"Stims/Figures/128-J-10-3.bmp\",\"sasaza\",\"Down\",\"38\",\"1\",\"3\",\"3B\",\"C2\",\"J\",\"3\"
\"\",\"\",\"approach-retreat\",\"7\",\"392875\",\"0.0-7.0\",\"\",\"\",\"2-5\",\"9011\",\"38\",\"1\",\"Training\",\"Stims/Figures/93-J-0-1.bmp\",\"sasaza\",\"Down\",\"38\",\"1\",\"4\",\"3B\",\"C2\",\"J\",\"4\"
\"\",\"\",\"approach-retreat\",\"8\",\"399383\",\"0.0-8.0\",\"\",\"\",\"2-5\",\"4997\",\"39\",\"1\",\"Training\",\"Stims/Figures/7-J-10-4.bmp\",\"sasaza\",\"Left\",\"39\",\"1\",\"5\",\"3B\",\"C2\",\"J\",\"5\"
\"\",\"\",\"approach-retreat\",\"9\",\"406469\",\"0.0-9.0\",\"\",\"\",\"2-5\",\"5577\",\"37\",\"0\",\"Training\",\"Stims/Figures/19-C-20-4.bmp\",\"fa:fasha\",\"Right\",\"39\",\"1\",\"6\",\"3B\",\"C1\",\"J\",\"6\"
\"\",\"\",\"approach-retreat\",\"10\",\"414075\",\"0.0-10.0\",\"\",\"\",\"2-5\",\"6096\",\"37\",\"1\",\"Training\",\"Stims/Figures/118-J-0-2.bmp\",\"sasaza\",\"Right\",\"37\",\"1\",\"7\",\"3B\",\"C2\",\"J\",\"7\"
\"\",\"\",\"approach-retreat\",\"11\",\"422120\",\"0.0-11.0\",\"\",\"\",\"2-5\",\"6534\",\"40\",\"1\",\"Training\",\"Stims/Figures/84-J-0-2.bmp\",\"sasaza\",\"Up\",\"40\",\"1\",\"8\",\"3B\",\"C2\",\"J\",\"8\"
\"\",\"\",\"approach-retreat\",\"12\",\"428621\",\"0.0-12.0\",\"\",\"\",\"2-5\",\"4988\",\"38\",\"0\",\"Training\",\"Stims/Figures/57-C-30-1.bmp\",\"fa:fasha\",\"Down\",\"40\",\"1\",\"9\",\"3B\",\"C1\",\"J\",\"9\"
\"\",\"\",\"approach-retreat\",\"13\",\"436168\",\"0.0-13.0\",\"\",\"\",\"2-5\",\"6039\",\"39\",\"1\",\"Training\",\"Stims/Figures/19-J-10-4.bmp\",\"sasaza\",\"Left\",\"39\",\"1\",\"10\",\"3B\",\"C2\",\"J\",\"10\"
\"\",\"\",\"approach-retreat\",\"14\",\"443995\",\"0.0-14.0\",\"\",\"\",\"2-5\",\"6317\",\"37\",\"1\",\"Training\",\"Stims/Figures/84-C-20-2.bmp\",\"fa:fasha\",\"Left\",\"37\",\"1\",\"11\",\"3B\",\"C1\",\"J\",\"11\"
\"\",\"\",\"approach-retreat\",\"15\",\"449938\",\"0.0-15.0\",\"\",\"\",\"2-5\",\"4432\",\"38\",\"1\",\"Training\",\"Stims/Figures/118-C-20-2.bmp\",\"fa:fasha\",\"Up\",\"38\",\"1\",\"12\",\"3B\",\"C1\",\"J\",\"12\"
\"\",\"\",\"approach-retreat\",\"16\",\"457543\",\"0.0-16.0\",\"\",\"\",\"2-5\",\"6093\",\"40\",\"1\",\"Training\",\"Stims/Figures/128-C-30-3.bmp\",\"fa:fasha\",\"Down\",\"40\",\"1\",\"13\",\"3B\",\"C1\",\"J\",\"13\"
\"\",\"\",\"approach-retreat\",\"17\",\"466103\",\"0.0-17.0\",\"\",\"\",\"2-5\",\"7056\",\"37\",\"1\",\"Training\",\"Stims/Figures/7-C-20-4.bmp\",\"fa:fasha\",\"Left\",\"37\",\"1\",\"14\",\"3B\",\"C1\",\"J\",\"14\"
\"\",\"\",\"approach-retreat\",\"18\",\"474027\",\"0.0-18.0\",\"\",\"\",\"2-5\",\"6416\",\"40\",\"1\",\"Training\",\"Stims/Figures/57-J-0-1.bmp\",\"sasaza\",\"Up\",\"40\",\"1\",\"15\",\"3B\",\"C2\",\"J\",\"15\"
\"\",\"\",\"approach-retreat\",\"19\",\"482207\",\"0.0-19.0\",\"\",\"\",\"2-5\",\"6671\",\"37\",\"1\",\"Training\",\"Stims/Figures/100-J-10-3.bmp\",\"sasaza\",\"Right\",\"37\",\"1\",\"16\",\"3B\",\"C2\",\"J\",\"16\"
\"\",\"\",\"approach-retreat\",\"20\",\"491527\",\"0.0-20.0\",\"\",\"\",\"2-5\",\"7812\",\"37\",\"1\",\"Training\",\"Stims/Figures/128-C-30-3.bmp\",\"fa:fasha\",\"Left\",\"37\",\"2\",\"1\",\"3B\",\"C1\",\"J\",\"17\"
\"\",\"\",\"approach-retreat\",\"21\",\"497885\",\"0.0-21.0\",\"\",\"\",\"2-5\",\"4848\",\"40\",\"1\",\"Training\",\"Stims/Figures/57-J-0-1.bmp\",\"sasaza\",\"Up\",\"40\",\"2\",\"2\",\"3B\",\"C2\",\"J\",\"18\"
\"\",\"\",\"approach-retreat\",\"22\",\"504979\",\"0.0-22.0\",\"\",\"\",\"2-5\",\"5585\",\"39\",\"1\",\"Training\",\"Stims/Figures/118-C-20-2.bmp\",\"fa:fasha\",\"Right\",\"39\",\"2\",\"3\",\"3B\",\"C1\",\"J\",\"19\"
\"\",\"\",\"approach-retreat\",\"23\",\"512778\",\"0.0-23.0\",\"\",\"\",\"2-5\",\"6287\",\"37\",\"1\",\"Training\",\"Stims/Figures/100-J-10-3.bmp\",\"sasaza\",\"Right\",\"37\",\"2\",\"4\",\"3B\",\"C2\",\"J\",\"20\"
\"\",\"\",\"approach-retreat\",\"24\",\"518756\",\"0.0-24.0\",\"\",\"\",\"2-5\",\"4469\",\"38\",\"1\",\"Training\",\"Stims/Figures/100-C-30-3.bmp\",\"fa:fasha\",\"Up\",\"38\",\"2\",\"5\",\"3B\",\"C1\",\"J\",\"21\"
\"\",\"\",\"approach-retreat\",\"25\",\"526822\",\"0.0-25.0\",\"\",\"\",\"2-5\",\"6557\",\"40\",\"1\",\"Training\",\"Stims/Figures/19-C-20-4.bmp\",\"fa:fasha\",\"Down\",\"40\",\"2\",\"6\",\"3B\",\"C1\",\"J\",\"22\"
\"\",\"\",\"approach-retreat\",\"26\",\"535228\",\"0.0-26.0\",\"\",\"\",\"2-5\",\"6895\",\"39\",\"1\",\"Training\",\"Stims/Figures/19-J-10-4.bmp\",\"sasaza\",\"Left\",\"39\",\"2\",\"7\",\"3B\",\"C2\",\"J\",\"23\"
\"\",\"\",\"approach-retreat\",\"27\",\"543963\",\"0.0-27.0\",\"\",\"\",\"2-5\",\"7225\",\"38\",\"1\",\"Training\",\"Stims/Figures/128-J-10-3.bmp\",\"sasaza\",\"Down\",\"38\",\"2\",\"8\",\"3B\",\"C2\",\"J\",\"24\"
\"\",\"\",\"approach-retreat\",\"28\",\"550447\",\"0.0-28.0\",\"\",\"\",\"2-5\",\"4975\",\"39\",\"1\",\"Training\",\"Stims/Figures/7-C-20-4.bmp\",\"fa:fasha\",\"Right\",\"39\",\"2\",\"9\",\"3B\",\"C1\",\"J\",\"25\"
\"\",\"\",\"approach-retreat\",\"29\",\"557031\",\"0.0-29.0\",\"\",\"\",\"2-5\",\"5073\",\"40\",\"1\",\"Training\",\"Stims/Figures/84-J-0-2.bmp\",\"sasaza\",\"Up\",\"40\",\"2\",\"10\",\"3B\",\"C2\",\"J\",\"26\"
\"\",\"\",\"approach-retreat\",\"30\",\"564060\",\"0.0-30.0\",\"\",\"\",\"2-5\",\"5520\",\"40\",\"1\",\"Training\",\"Stims/Figures/84-C-20-2.bmp\",\"fa:fasha\",\"Down\",\"40\",\"2\",\"11\",\"3B\",\"C1\",\"J\",\"27\"
\"\",\"\",\"approach-retreat\",\"31\",\"570204\",\"0.0-31.0\",\"\",\"\",\"2-5\",\"4637\",\"37\",\"1\",\"Training\",\"Stims/Figures/7-J-10-4.bmp\",\"sasaza\",\"Right\",\"37\",\"2\",\"12\",\"3B\",\"C2\",\"J\",\"28\"
\"\",\"\",\"approach-retreat\",\"32\",\"576844\",\"0.0-32.0\",\"\",\"\",\"2-5\",\"5130\",\"39\",\"1\",\"Training\",\"Stims/Figures/93-J-0-1.bmp\",\"sasaza\",\"Left\",\"39\",\"2\",\"13\",\"3B\",\"C2\",\"J\",\"29\"
\"\",\"\",\"approach-retreat\",\"33\",\"582514\",\"0.0-33.0\",\"\",\"\",\"2-5\",\"4158\",\"37\",\"1\",\"Training\",\"Stims/Figures/57-C-30-1.bmp\",\"fa:fasha\",\"Left\",\"37\",\"2\",\"14\",\"3B\",\"C1\",\"J\",\"30\"
\"\",\"\",\"approach-retreat\",\"34\",\"589135\",\"0.0-34.0\",\"\",\"\",\"2-5\",\"5109\",\"38\",\"1\",\"Training\",\"Stims/Figures/118-J-0-2.bmp\",\"sasaza\",\"Down\",\"38\",\"2\",\"15\",\"3B\",\"C2\",\"J\",\"31\"
\"\",\"\",\"approach-retreat\",\"35\",\"595700\",\"0.0-35.0\",\"\",\"\",\"2-5\",\"5061\",\"38\",\"1\",\"Training\",\"Stims/Figures/93-C-30-1.bmp\",\"fa:fasha\",\"Up\",\"38\",\"2\",\"16\",\"3B\",\"C1\",\"J\",\"32\"
\"\",\"\",\"approach-retreat\",\"36\",\"601691\",\"0.0-36.0\",\"\",\"\",\"2-5\",\"4486\",\"39\",\"1\",\"Training\",\"Stims/Figures/128-J-10-3.bmp\",\"sasaza\",\"Left\",\"39\",\"3\",\"1\",\"3B\",\"C2\",\"J\",\"33\"
\"\",\"\",\"approach-retreat\",\"37\",\"607740\",\"0.0-37.0\",\"\",\"\",\"2-5\",\"4542\",\"37\",\"1\",\"Training\",\"Stims/Figures/93-J-0-1.bmp\",\"sasaza\",\"Right\",\"37\",\"3\",\"2\",\"3B\",\"C2\",\"J\",\"34\"
\"\",\"\",\"approach-retreat\",\"38\",\"614067\",\"0.0-38.0\",\"\",\"\",\"2-5\",\"4822\",\"40\",\"1\",\"Training\",\"Stims/Figures/7-J-10-4.bmp\",\"sasaza\",\"Up\",\"40\",\"3\",\"3\",\"3B\",\"C2\",\"J\",\"35\"
\"\",\"\",\"approach-retreat\",\"39\",\"620839\",\"0.0-39.0\",\"\",\"\",\"2-5\",\"5268\",\"40\",\"1\",\"Training\",\"Stims/Figures/57-C-30-1.bmp\",\"fa:fasha\",\"Down\",\"40\",\"3\",\"4\",\"3B\",\"C1\",\"J\",\"36\"
\"\",\"\",\"approach-retreat\",\"40\",\"626529\",\"0.0-40.0\",\"\",\"\",\"2-5\",\"4185\",\"40\",\"1\",\"Training\",\"Stims/Figures/118-C-20-2.bmp\",\"fa:fasha\",\"Down\",\"40\",\"3\",\"5\",\"3B\",\"C1\",\"J\",\"37\"
\"\",\"\",\"approach-retreat\",\"41\",\"633141\",\"0.0-41.0\",\"\",\"\",\"2-5\",\"5108\",\"39\",\"1\",\"Training\",\"Stims/Figures/100-C-30-3.bmp\",\"fa:fasha\",\"Right\",\"39\",\"3\",\"6\",\"3B\",\"C1\",\"J\",\"38\"
\"\",\"\",\"approach-retreat\",\"42\",\"640203\",\"0.0-42.0\",\"\",\"\",\"2-5\",\"5558\",\"39\",\"1\",\"Training\",\"Stims/Figures/100-J-10-3.bmp\",\"sasaza\",\"Left\",\"39\",\"3\",\"7\",\"3B\",\"C2\",\"J\",\"39\"
\"\",\"\",\"approach-retreat\",\"43\",\"646440\",\"0.0-43.0\",\"\",\"\",\"2-5\",\"4730\",\"37\",\"0\",\"Training\",\"Stims/Figures/84-C-20-2.bmp\",\"fa:fasha\",\"Right\",\"39\",\"3\",\"8\",\"3B\",\"C1\",\"J\",\"40\"
\"\",\"\",\"approach-retreat\",\"44\",\"652172\",\"0.0-44.0\",\"\",\"\",\"2-5\",\"4226\",\"38\",\"1\",\"Training\",\"Stims/Figures/93-C-30-1.bmp\",\"fa:fasha\",\"Up\",\"38\",\"3\",\"9\",\"3B\",\"C1\",\"J\",\"41\"
\"\",\"\",\"approach-retreat\",\"45\",\"658434\",\"0.0-45.0\",\"\",\"\",\"2-5\",\"4755\",\"39\",\"1\",\"Training\",\"Stims/Figures/19-J-10-4.bmp\",\"sasaza\",\"Left\",\"39\",\"3\",\"10\",\"3B\",\"C2\",\"J\",\"42\"
\"\",\"\",\"approach-retreat\",\"46\",\"664390\",\"0.0-46.0\",\"\",\"\",\"2-5\",\"4451\",\"40\",\"1\",\"Training\",\"Stims/Figures/7-C-20-4.bmp\",\"fa:fasha\",\"Down\",\"40\",\"3\",\"11\",\"3B\",\"C1\",\"J\",\"43\"
\"\",\"\",\"approach-retreat\",\"47\",\"670231\",\"0.0-47.0\",\"\",\"\",\"2-5\",\"4332\",\"37\",\"1\",\"Training\",\"Stims/Figures/19-C-20-4.bmp\",\"fa:fasha\",\"Left\",\"37\",\"3\",\"12\",\"3B\",\"C1\",\"J\",\"44\"
\"\",\"\",\"approach-retreat\",\"48\",\"675817\",\"0.0-48.0\",\"\",\"\",\"2-5\",\"4074\",\"37\",\"1\",\"Training\",\"Stims/Figures/118-J-0-2.bmp\",\"sasaza\",\"Right\",\"37\",\"3\",\"13\",\"3B\",\"C2\",\"J\",\"45\"
\"\",\"\",\"approach-retreat\",\"49\",\"681518\",\"0.0-49.0\",\"\",\"\",\"2-5\",\"4188\",\"40\",\"1\",\"Training\",\"Stims/Figures/84-J-0-2.bmp\",\"sasaza\",\"Up\",\"40\",\"3\",\"14\",\"3B\",\"C2\",\"J\",\"46\"
\"\",\"\",\"approach-retreat\",\"50\",\"687080\",\"0.0-50.0\",\"\",\"\",\"2-5\",\"4057\",\"38\",\"1\",\"Training\",\"Stims/Figures/57-J-0-1.bmp\",\"sasaza\",\"Down\",\"38\",\"3\",\"15\",\"3B\",\"C2\",\"J\",\"47\"
\"\",\"\",\"approach-retreat\",\"51\",\"692637\",\"0.0-51.0\",\"\",\"\",\"2-5\",\"4043\",\"38\",\"1\",\"Training\",\"Stims/Figures/128-C-30-3.bmp\",\"fa:fasha\",\"Up\",\"38\",\"3\",\"16\",\"3B\",\"C1\",\"J\",\"48\"
\"\",\"\",\"approach-retreat\",\"52\",\"698151\",\"0.0-52.0\",\"\",\"\",\"2-5\",\"4003\",\"39\",\"1\",\"Training\",\"Stims/Figures/7-C-20-4.bmp\",\"fa:fasha\",\"Right\",\"39\",\"4\",\"1\",\"3B\",\"C1\",\"J\",\"49\"
\"\",\"\",\"approach-retreat\",\"53\",\"703860\",\"0.0-53.0\",\"\",\"\",\"2-5\",\"4199\",\"39\",\"1\",\"Training\",\"Stims/Figures/118-C-20-2.bmp\",\"fa:fasha\",\"Right\",\"39\",\"4\",\"2\",\"3B\",\"C1\",\"J\",\"50\"
\"\",\"\",\"approach-retreat\",\"54\",\"709400\",\"0.0-54.0\",\"\",\"\",\"2-5\",\"4027\",\"38\",\"0\",\"Training\",\"Stims/Figures/100-C-30-3.bmp\",\"fa:fasha\",\"Down\",\"40\",\"4\",\"3\",\"3B\",\"C1\",\"J\",\"51\"
\"\",\"\",\"approach-retreat\",\"55\",\"714973\",\"0.0-55.0\",\"\",\"\",\"2-5\",\"4064\",\"39\",\"1\",\"Training\",\"Stims/Figures/128-J-10-3.bmp\",\"sasaza\",\"Left\",\"39\",\"4\",\"4\",\"3B\",\"C2\",\"J\",\"52\"
\"\",\"\",\"approach-retreat\",\"56\",\"720533\",\"0.0-56.0\",\"\",\"\",\"2-5\",\"4053\",\"40\",\"1\",\"Training\",\"Stims/Figures/7-J-10-4.bmp\",\"sasaza\",\"Up\",\"40\",\"4\",\"5\",\"3B\",\"C2\",\"J\",\"53\"
\"\",\"\",\"approach-retreat\",\"57\",\"726084\",\"0.0-57.0\",\"\",\"\",\"2-5\",\"4044\",\"37\",\"0\",\"Training\",\"Stims/Figures/57-C-30-1.bmp\",\"fa:fasha\",\"Right\",\"39\",\"4\",\"6\",\"3B\",\"C1\",\"J\",\"54\"
\"\",\"\",\"approach-retreat\",\"58\",\"732888\",\"0.0-58.0\",\"\",\"\",\"2-5\",\"5298\",\"39\",\"1\",\"Training\",\"Stims/Figures/84-C-20-2.bmp\",\"fa:fasha\",\"Right\",\"39\",\"4\",\"7\",\"3B\",\"C1\",\"J\",\"55\"
\"\",\"\",\"approach-retreat\",\"59\",\"739068\",\"0.0-59.0\",\"\",\"\",\"2-5\",\"4673\",\"37\",\"1\",\"Training\",\"Stims/Figures/93-C-30-1.bmp\",\"fa:fasha\",\"Left\",\"37\",\"4\",\"8\",\"3B\",\"C1\",\"J\",\"56\"
\"\",\"\",\"approach-retreat\",\"60\",\"745423\",\"0.0-60.0\",\"\",\"\",\"2-5\",\"4844\",\"39\",\"1\",\"Training\",\"Stims/Figures/118-J-0-2.bmp\",\"sasaza\",\"Left\",\"39\",\"4\",\"9\",\"3B\",\"C2\",\"J\",\"57\"
\"\",\"\",\"approach-retreat\",\"61\",\"751042\",\"0.0-61.0\",\"\",\"\",\"2-5\",\"4108\",\"38\",\"1\",\"Training\",\"Stims/Figures/19-J-10-4.bmp\",\"sasaza\",\"Down\",\"38\",\"4\",\"10\",\"3B\",\"C2\",\"J\",\"58\"
\"\",\"\",\"approach-retreat\",\"62\",\"756612\",\"0.0-62.0\",\"\",\"\",\"2-5\",\"4063\",\"40\",\"0\",\"Training\",\"Stims/Figures/19-C-20-4.bmp\",\"fa:fasha\",\"Up\",\"38\",\"4\",\"11\",\"3B\",\"C1\",\"J\",\"59\"
\"\",\"\",\"approach-retreat\",\"63\",\"763169\",\"0.0-63.0\",\"\",\"\",\"2-5\",\"5045\",\"38\",\"1\",\"Training\",\"Stims/Figures/84-J-0-2.bmp\",\"sasaza\",\"Down\",\"38\",\"4\",\"12\",\"3B\",\"C2\",\"J\",\"60\"
\"\",\"\",\"approach-retreat\",\"64\",\"768750\",\"0.0-64.0\",\"\",\"\",\"2-5\",\"4070\",\"37\",\"1\",\"Training\",\"Stims/Figures/128-C-30-3.bmp\",\"fa:fasha\",\"Left\",\"37\",\"4\",\"13\",\"3B\",\"C1\",\"J\",\"61\"
\"\",\"\",\"approach-retreat\",\"65\",\"774829\",\"0.0-65.0\",\"\",\"\",\"2-5\",\"4568\",\"38\",\"1\",\"Training\",\"Stims/Figures/93-J-0-1.bmp\",\"sasaza\",\"Down\",\"38\",\"4\",\"14\",\"3B\",\"C2\",\"J\",\"62\"
\"\",\"\",\"approach-retreat\",\"66\",\"780968\",\"0.0-66.0\",\"\",\"\",\"2-5\",\"4635\",\"40\",\"1\",\"Training\",\"Stims/Figures/100-J-10-3.bmp\",\"sasaza\",\"Up\",\"40\",\"4\",\"15\",\"3B\",\"C2\",\"J\",\"63\"
\"\",\"\",\"approach-retreat\",\"67\",\"786679\",\"0.0-67.0\",\"\",\"\",\"2-5\",\"4207\",\"40\",\"1\",\"Training\",\"Stims/Figures/57-J-0-1.bmp\",\"sasaza\",\"Up\",\"40\",\"4\",\"16\",\"3B\",\"C2\",\"J\",\"64\"
\"\",\"\",\"approach-retreat\",\"68\",\"793165\",\"0.0-68.0\",\"\",\"\",\"2-5\",\"4975\",\"38\",\"1\",\"Training\",\"Stims/Figures/19-C-20-4.bmp\",\"fa:fasha\",\"Up\",\"38\",\"5\",\"1\",\"3B\",\"C1\",\"J\",\"65\"
\"\",\"\",\"approach-retreat\",\"69\",\"798736\",\"0.0-69.0\",\"\",\"\",\"2-5\",\"4066\",\"37\",\"1\",\"Training\",\"Stims/Figures/84-J-0-2.bmp\",\"sasaza\",\"Right\",\"37\",\"5\",\"2\",\"3B\",\"C2\",\"J\",\"66\"
\"\",\"\",\"approach-retreat\",\"70\",\"805231\",\"0.0-70.0\",\"\",\"\",\"2-5\",\"4983\",\"39\",\"1\",\"Training\",\"Stims/Figures/118-J-0-2.bmp\",\"sasaza\",\"Left\",\"39\",\"5\",\"3\",\"3B\",\"C2\",\"J\",\"67\"
\"\",\"\",\"approach-retreat\",\"71\",\"811583\",\"0.0-71.0\",\"\",\"\",\"2-5\",\"4842\",\"38\",\"1\",\"Training\",\"Stims/Figures/128-J-10-3.bmp\",\"sasaza\",\"Down\",\"38\",\"5\",\"4\",\"3B\",\"C2\",\"J\",\"68\"
\"\",\"\",\"approach-retreat\",\"72\",\"817726\",\"0.0-72.0\",\"\",\"\",\"2-5\",\"4638\",\"39\",\"1\",\"Training\",\"Stims/Figures/7-C-20-4.bmp\",\"fa:fasha\",\"Right\",\"39\",\"5\",\"5\",\"3B\",\"C1\",\"J\",\"69\"
\"\",\"\",\"approach-retreat\",\"73\",\"823604\",\"0.0-73.0\",\"\",\"\",\"2-5\",\"4365\",\"37\",\"1\",\"Training\",\"Stims/Figures/7-J-10-4.bmp\",\"sasaza\",\"Right\",\"37\",\"5\",\"6\",\"3B\",\"C2\",\"J\",\"70\"
\"\",\"\",\"approach-retreat\",\"74\",\"830005\",\"0.0-74.0\",\"\",\"\",\"2-5\",\"4896\",\"37\",\"1\",\"Training\",\"Stims/Figures/93-C-30-1.bmp\",\"fa:fasha\",\"Left\",\"37\",\"5\",\"7\",\"3B\",\"C1\",\"J\",\"71\"
\"\",\"\",\"approach-retreat\",\"75\",\"836376\",\"0.0-75.0\",\"\",\"\",\"2-5\",\"4860\",\"40\",\"1\",\"Training\",\"Stims/Figures/57-J-0-1.bmp\",\"sasaza\",\"Up\",\"40\",\"5\",\"8\",\"3B\",\"C2\",\"J\",\"72\"
\"\",\"\",\"approach-retreat\",\"76\",\"841732\",\"0.0-76.0\",\"\",\"\",\"2-5\",\"3851\",\"37\",\"1\",\"Training\",\"Stims/Figures/128-C-30-3.bmp\",\"fa:fasha\",\"Left\",\"37\",\"5\",\"9\",\"3B\",\"C1\",\"J\",\"73\"
\"\",\"\",\"approach-retreat\",\"77\",\"847144\",\"0.0-77.0\",\"\",\"\",\"2-5\",\"3901\",\"39\",\"1\",\"Training\",\"Stims/Figures/118-C-20-2.bmp\",\"fa:fasha\",\"Right\",\"39\",\"5\",\"10\",\"3B\",\"C1\",\"J\",\"74\"
\"\",\"\",\"approach-retreat\",\"78\",\"852668\",\"0.0-78.0\",\"\",\"\",\"2-5\",\"4020\",\"38\",\"1\",\"Training\",\"Stims/Figures/100-C-30-3.bmp\",\"fa:fasha\",\"Up\",\"38\",\"5\",\"11\",\"3B\",\"C1\",\"J\",\"75\"
\"\",\"\",\"approach-retreat\",\"79\",\"858315\",\"0.0-79.0\",\"\",\"\",\"2-5\",\"4141\",\"38\",\"1\",\"Training\",\"Stims/Figures/93-J-0-1.bmp\",\"sasaza\",\"Down\",\"38\",\"5\",\"12\",\"3B\",\"C2\",\"J\",\"76\"
\"\",\"\",\"approach-retreat\",\"80\",\"864523\",\"0.0-80.0\",\"\",\"\",\"2-5\",\"4703\",\"40\",\"1\",\"Training\",\"Stims/Figures/57-C-30-1.bmp\",\"fa:fasha\",\"Down\",\"40\",\"5\",\"13\",\"3B\",\"C1\",\"J\",\"77\"
\"\",\"\",\"approach-retreat\",\"81\",\"870141\",\"0.0-81.0\",\"\",\"\",\"2-5\",\"4111\",\"40\",\"1\",\"Training\",\"Stims/Figures/84-C-20-2.bmp\",\"fa:fasha\",\"Down\",\"40\",\"5\",\"14\",\"3B\",\"C1\",\"J\",\"78\"
\"\",\"\",\"approach-retreat\",\"82\",\"876273\",\"0.0-82.0\",\"\",\"\",\"2-5\",\"4620\",\"40\",\"1\",\"Training\",\"Stims/Figures/100-J-10-3.bmp\",\"sasaza\",\"Up\",\"40\",\"5\",\"15\",\"3B\",\"C2\",\"J\",\"79\"
\"\",\"\",\"approach-retreat\",\"83\",\"882276\",\"0.0-83.0\",\"\",\"\",\"2-5\",\"4498\",\"39\",\"1\",\"Training\",\"Stims/Figures/19-J-10-4.bmp\",\"sasaza\",\"Left\",\"39\",\"5\",\"16\",\"3B\",\"C2\",\"J\",\"80\"
\"\",\"\",\"approach-retreat\",\"84\",\"887767\",\"0.0-84.0\",\"\",\"\",\"2-5\",\"3984\",\"40\",\"1\",\"Training\",\"Stims/Figures/57-C-30-1.bmp\",\"fa:fasha\",\"Down\",\"40\",\"6\",\"1\",\"3B\",\"C1\",\"J\",\"81\"
\"\",\"\",\"approach-retreat\",\"85\",\"893592\",\"0.0-85.0\",\"\",\"\",\"2-5\",\"4317\",\"40\",\"0\",\"Training\",\"Stims/Figures/57-J-0-1.bmp\",\"sasaza\",\"Down\",\"38\",\"6\",\"2\",\"3B\",\"C2\",\"J\",\"82\"
\"\",\"\",\"approach-retreat\",\"86\",\"899095\",\"0.0-86.0\",\"\",\"\",\"2-5\",\"4000\",\"37\",\"1\",\"Training\",\"Stims/Figures/128-J-10-3.bmp\",\"sasaza\",\"Right\",\"37\",\"6\",\"3\",\"3B\",\"C2\",\"J\",\"83\"
\"\",\"\",\"approach-retreat\",\"87\",\"904812\",\"0.0-87.0\",\"\",\"\",\"2-5\",\"4212\",\"39\",\"1\",\"Training\",\"Stims/Figures/19-J-10-4.bmp\",\"sasaza\",\"Left\",\"39\",\"6\",\"4\",\"3B\",\"C2\",\"J\",\"84\"
\"\",\"\",\"approach-retreat\",\"88\",\"910702\",\"0.0-88.0\",\"\",\"\",\"2-5\",\"4386\",\"37\",\"1\",\"Training\",\"Stims/Figures/84-J-0-2.bmp\",\"sasaza\",\"Right\",\"37\",\"6\",\"5\",\"3B\",\"C2\",\"J\",\"85\"
\"\",\"\",\"approach-retreat\",\"89\",\"916179\",\"0.0-89.0\",\"\",\"\",\"2-5\",\"3967\",\"38\",\"1\",\"Training\",\"Stims/Figures/100-C-30-3.bmp\",\"fa:fasha\",\"Up\",\"38\",\"6\",\"6\",\"3B\",\"C1\",\"J\",\"86\"
\"\",\"\",\"approach-retreat\",\"90\",\"922622\",\"0.0-90.0\",\"\",\"\",\"2-5\",\"4938\",\"38\",\"1\",\"Training\",\"Stims/Figures/7-C-20-4.bmp\",\"fa:fasha\",\"Up\",\"38\",\"6\",\"7\",\"3B\",\"C1\",\"J\",\"87\"
\"\",\"\",\"approach-retreat\",\"91\",\"929332\",\"0.0-91.0\",\"\",\"\",\"2-5\",\"5205\",\"40\",\"1\",\"Training\",\"Stims/Figures/19-C-20-4.bmp\",\"fa:fasha\",\"Down\",\"40\",\"6\",\"8\",\"3B\",\"C1\",\"J\",\"88\"
\"\",\"\",\"approach-retreat\",\"92\",\"935436\",\"0.0-92.0\",\"\",\"\",\"2-5\",\"4591\",\"37\",\"1\",\"Training\",\"Stims/Figures/128-C-30-3.bmp\",\"fa:fasha\",\"Left\",\"37\",\"6\",\"9\",\"3B\",\"C1\",\"J\",\"89\"
\"\",\"\",\"approach-retreat\",\"93\",\"941664\",\"0.0-93.0\",\"\",\"\",\"2-5\",\"4715\",\"37\",\"1\",\"Training\",\"Stims/Figures/84-C-20-2.bmp\",\"fa:fasha\",\"Left\",\"37\",\"6\",\"10\",\"3B\",\"C1\",\"J\",\"90\"
\"\",\"\",\"approach-retreat\",\"94\",\"947630\",\"0.0-94.0\",\"\",\"\",\"2-5\",\"4459\",\"40\",\"1\",\"Training\",\"Stims/Figures/100-J-10-3.bmp\",\"sasaza\",\"Up\",\"40\",\"6\",\"11\",\"3B\",\"C2\",\"J\",\"91\"
\"\",\"\",\"approach-retreat\",\"95\",\"953421\",\"0.0-95.0\",\"\",\"\",\"2-5\",\"4280\",\"38\",\"1\",\"Training\",\"Stims/Figures/118-C-20-2.bmp\",\"fa:fasha\",\"Up\",\"38\",\"6\",\"12\",\"3B\",\"C1\",\"J\",\"92\"
\"\",\"\",\"approach-retreat\",\"96\",\"959812\",\"0.0-96.0\",\"\",\"\",\"2-5\",\"4886\",\"37\",\"1\",\"Training\",\"Stims/Figures/118-J-0-2.bmp\",\"sasaza\",\"Right\",\"37\",\"6\",\"13\",\"3B\",\"C2\",\"J\",\"93\"
\"\",\"\",\"approach-retreat\",\"97\",\"966082\",\"0.0-97.0\",\"\",\"\",\"2-5\",\"4761\",\"38\",\"1\",\"Training\",\"Stims/Figures/93-J-0-1.bmp\",\"sasaza\",\"Down\",\"38\",\"6\",\"14\",\"3B\",\"C2\",\"J\",\"94\"
\"\",\"\",\"approach-retreat\",\"98\",\"972069\",\"0.0-98.0\",\"\",\"\",\"2-5\",\"4481\",\"37\",\"1\",\"Training\",\"Stims/Figures/93-C-30-1.bmp\",\"fa:fasha\",\"Left\",\"37\",\"6\",\"15\",\"3B\",\"C1\",\"J\",\"95\"
\"\",\"\",\"approach-retreat\",\"99\",\"978117\",\"0.0-99.0\",\"\",\"\",\"2-5\",\"4537\",\"37\",\"1\",\"Training\",\"Stims/Figures/7-J-10-4.bmp\",\"sasaza\",\"Right\",\"37\",\"6\",\"16\",\"3B\",\"C2\",\"J\",\"96\"
\"\",\"\",\"approach-retreat\",\"100\",\"984159\",\"0.0-100.0\",\"\",\"\",\"2-5\",\"4531\",\"40\",\"1\",\"Training\",\"Stims/Figures/118-C-20-2.bmp\",\"fa:fasha\",\"Down\",\"40\",\"7\",\"1\",\"3B\",\"C1\",\"J\",\"97\"
\"\",\"\",\"approach-retreat\",\"101\",\"989571\",\"0.0-101.0\",\"\",\"\",\"2-5\",\"3902\",\"39\",\"1\",\"Training\",\"Stims/Figures/93-C-30-1.bmp\",\"fa:fasha\",\"Right\",\"39\",\"7\",\"2\",\"3B\",\"C1\",\"J\",\"98\"
\"\",\"\",\"approach-retreat\",\"102\",\"995309\",\"0.0-102.0\",\"\",\"\",\"2-5\",\"4232\",\"38\",\"1\",\"Training\",\"Stims/Figures/128-C-30-3.bmp\",\"fa:fasha\",\"Up\",\"38\",\"7\",\"3\",\"3B\",\"C1\",\"J\",\"99\"
\"\",\"\",\"approach-retreat\",\"103\",\"1001075\",\"0.0-103.0\",\"\",\"\",\"2-5\",\"4256\",\"37\",\"1\",\"Training\",\"Stims/Figures/7-C-20-4.bmp\",\"fa:fasha\",\"Left\",\"37\",\"7\",\"4\",\"3B\",\"C1\",\"J\",\"100\"
\"\",\"\",\"approach-retreat\",\"104\",\"1007486\",\"0.0-104.0\",\"\",\"\",\"2-5\",\"4902\",\"38\",\"1\",\"Training\",\"Stims/Figures/19-J-10-4.bmp\",\"sasaza\",\"Down\",\"38\",\"7\",\"5\",\"3B\",\"C2\",\"J\",\"101\"
\"\",\"\",\"approach-retreat\",\"105\",\"1013011\",\"0.0-105.0\",\"\",\"\",\"2-5\",\"4020\",\"40\",\"1\",\"Training\",\"Stims/Figures/128-J-10-3.bmp\",\"sasaza\",\"Up\",\"40\",\"7\",\"6\",\"3B\",\"C2\",\"J\",\"102\"
\"\",\"\",\"approach-retreat\",\"106\",\"1018542\",\"0.0-106.0\",\"\",\"\",\"2-5\",\"4023\",\"38\",\"1\",\"Training\",\"Stims/Figures/84-C-20-2.bmp\",\"fa:fasha\",\"Up\",\"38\",\"7\",\"7\",\"3B\",\"C1\",\"J\",\"103\"
\"\",\"\",\"approach-retreat\",\"107\",\"1024986\",\"0.0-107.0\",\"\",\"\",\"2-5\",\"4935\",\"38\",\"1\",\"Training\",\"Stims/Figures/57-J-0-1.bmp\",\"sasaza\",\"Down\",\"38\",\"7\",\"8\",\"3B\",\"C2\",\"J\",\"104\"
\"\",\"\",\"approach-retreat\",\"108\",\"1030508\",\"0.0-108.0\",\"\",\"\",\"2-5\",\"4015\",\"37\",\"1\",\"Training\",\"Stims/Figures/93-J-0-1.bmp\",\"sasaza\",\"Right\",\"37\",\"7\",\"9\",\"3B\",\"C2\",\"J\",\"105\"
\"\",\"\",\"approach-retreat\",\"109\",\"1036449\",\"0.0-109.0\",\"\",\"\",\"2-5\",\"4431\",\"40\",\"1\",\"Training\",\"Stims/Figures/100-J-10-3.bmp\",\"sasaza\",\"Up\",\"40\",\"7\",\"10\",\"3B\",\"C2\",\"J\",\"106\"
\"\",\"\",\"approach-retreat\",\"110\",\"1042815\",\"0.0-110.0\",\"\",\"\",\"2-5\",\"4856\",\"39\",\"1\",\"Training\",\"Stims/Figures/84-J-0-2.bmp\",\"sasaza\",\"Left\",\"39\",\"7\",\"11\",\"3B\",\"C2\",\"J\",\"107\"
\"\",\"\",\"approach-retreat\",\"111\",\"1048338\",\"0.0-111.0\",\"\",\"\",\"2-5\",\"4012\",\"40\",\"1\",\"Training\",\"Stims/Figures/19-C-20-4.bmp\",\"fa:fasha\",\"Down\",\"40\",\"7\",\"12\",\"3B\",\"C1\",\"J\",\"108\"
\"\",\"\",\"approach-retreat\",\"112\",\"1054436\",\"0.0-112.0\",\"\",\"\",\"2-5\",\"4588\",\"39\",\"1\",\"Training\",\"Stims/Figures/100-C-30-3.bmp\",\"fa:fasha\",\"Right\",\"39\",\"7\",\"13\",\"3B\",\"C1\",\"J\",\"109\"
\"\",\"\",\"approach-retreat\",\"113\",\"1060120\",\"0.0-113.0\",\"\",\"\",\"2-5\",\"4175\",\"39\",\"1\",\"Training\",\"Stims/Figures/7-J-10-4.bmp\",\"sasaza\",\"Left\",\"39\",\"7\",\"14\",\"3B\",\"C2\",\"J\",\"110\"
\"\",\"\",\"approach-retreat\",\"114\",\"1065615\",\"0.0-114.0\",\"\",\"\",\"2-5\",\"3984\",\"39\",\"1\",\"Training\",\"Stims/Figures/57-C-30-1.bmp\",\"fa:fasha\",\"Right\",\"39\",\"7\",\"15\",\"3B\",\"C1\",\"J\",\"111\"
\"\",\"\",\"approach-retreat\",\"115\",\"1071626\",\"0.0-115.0\",\"\",\"\",\"2-5\",\"4503\",\"39\",\"1\",\"Training\",\"Stims/Figures/118-J-0-2.bmp\",\"sasaza\",\"Left\",\"39\",\"7\",\"16\",\"3B\",\"C2\",\"J\",\"112\"
\"\",\"\",\"approach-retreat\",\"116\",\"1077700\",\"0.0-116.0\",\"\",\"\",\"2-5\",\"4568\",\"40\",\"1\",\"Training\",\"Stims/Figures/57-C-30-1.bmp\",\"fa:fasha\",\"Down\",\"40\",\"8\",\"1\",\"3B\",\"C1\",\"J\",\"113\"
\"\",\"\",\"approach-retreat\",\"117\",\"1083723\",\"0.0-117.0\",\"\",\"\",\"2-5\",\"4512\",\"37\",\"1\",\"Training\",\"Stims/Figures/100-J-10-3.bmp\",\"sasaza\",\"Right\",\"37\",\"8\",\"2\",\"3B\",\"C2\",\"J\",\"114\"
\"\",\"\",\"approach-retreat\",\"118\",\"1089333\",\"0.0-118.0\",\"\",\"\",\"2-5\",\"4099\",\"40\",\"1\",\"Training\",\"Stims/Figures/118-J-0-2.bmp\",\"sasaza\",\"Up\",\"40\",\"8\",\"3\",\"3B\",\"C2\",\"J\",\"115\"
\"\",\"\",\"approach-retreat\",\"119\",\"1095063\",\"0.0-119.0\",\"\",\"\",\"2-5\",\"4219\",\"37\",\"1\",\"Training\",\"Stims/Figures/7-C-20-4.bmp\",\"fa:fasha\",\"Left\",\"37\",\"8\",\"4\",\"3B\",\"C1\",\"J\",\"116\"
\"\",\"\",\"approach-retreat\",\"120\",\"1101060\",\"0.0-120.0\",\"\",\"\",\"2-5\",\"4486\",\"37\",\"1\",\"Training\",\"Stims/Figures/118-C-20-2.bmp\",\"fa:fasha\",\"Left\",\"37\",\"8\",\"5\",\"3B\",\"C1\",\"J\",\"117\"
\"\",\"\",\"approach-retreat\",\"121\",\"1106561\",\"0.0-121.0\",\"\",\"\",\"2-5\",\"3989\",\"40\",\"1\",\"Training\",\"Stims/Figures/57-J-0-1.bmp\",\"sasaza\",\"Up\",\"40\",\"8\",\"6\",\"3B\",\"C2\",\"J\",\"118\"
\"\",\"\",\"approach-retreat\",\"122\",\"1112787\",\"0.0-122.0\",\"\",\"\",\"2-5\",\"4718\",\"37\",\"1\",\"Training\",\"Stims/Figures/128-C-30-3.bmp\",\"fa:fasha\",\"Left\",\"37\",\"8\",\"7\",\"3B\",\"C1\",\"J\",\"119\"
\"\",\"\",\"approach-retreat\",\"123\",\"1118757\",\"0.0-123.0\",\"\",\"\",\"2-5\",\"4462\",\"39\",\"1\",\"Training\",\"Stims/Figures/84-C-20-2.bmp\",\"fa:fasha\",\"Right\",\"39\",\"8\",\"8\",\"3B\",\"C1\",\"J\",\"120\"
\"\",\"\",\"approach-retreat\",\"124\",\"1124475\",\"0.0-124.0\",\"\",\"\",\"2-5\",\"4208\",\"39\",\"1\",\"Training\",\"Stims/Figures/19-C-20-4.bmp\",\"fa:fasha\",\"Right\",\"39\",\"8\",\"9\",\"3B\",\"C1\",\"J\",\"121\"
\"\",\"\",\"approach-retreat\",\"125\",\"1130046\",\"0.0-125.0\",\"\",\"\",\"2-5\",\"4056\",\"37\",\"1\",\"Training\",\"Stims/Figures/7-J-10-4.bmp\",\"sasaza\",\"Right\",\"37\",\"8\",\"10\",\"3B\",\"C2\",\"J\",\"122\"
\"\",\"\",\"approach-retreat\",\"126\",\"1135681\",\"0.0-126.0\",\"\",\"\",\"2-5\",\"4122\",\"38\",\"1\",\"Training\",\"Stims/Figures/93-J-0-1.bmp\",\"sasaza\",\"Down\",\"38\",\"8\",\"11\",\"3B\",\"C2\",\"J\",\"123\"
\"\",\"\",\"approach-retreat\",\"127\",\"1142008\",\"0.0-127.0\",\"\",\"\",\"2-5\",\"4817\",\"40\",\"1\",\"Training\",\"Stims/Figures/100-C-30-3.bmp\",\"fa:fasha\",\"Down\",\"40\",\"8\",\"12\",\"3B\",\"C1\",\"J\",\"124\"
\"\",\"\",\"approach-retreat\",\"128\",\"1148100\",\"0.0-128.0\",\"\",\"\",\"2-5\",\"4582\",\"38\",\"1\",\"Training\",\"Stims/Figures/93-C-30-1.bmp\",\"fa:fasha\",\"Up\",\"38\",\"8\",\"13\",\"3B\",\"C1\",\"J\",\"125\"
\"\",\"\",\"approach-retreat\",\"129\",\"1154098\",\"0.0-129.0\",\"\",\"\",\"2-5\",\"4488\",\"40\",\"1\",\"Training\",\"Stims/Figures/19-J-10-4.bmp\",\"sasaza\",\"Up\",\"40\",\"8\",\"14\",\"3B\",\"C2\",\"J\",\"126\"
\"\",\"\",\"approach-retreat\",\"130\",\"1160855\",\"0.0-130.0\",\"\",\"\",\"2-5\",\"5245\",\"38\",\"1\",\"Training\",\"Stims/Figures/84-J-0-2.bmp\",\"sasaza\",\"Down\",\"38\",\"8\",\"15\",\"3B\",\"C2\",\"J\",\"127\"
\"\",\"\",\"approach-retreat\",\"131\",\"1166880\",\"0.0-131.0\",\"\",\"\",\"2-5\",\"4513\",\"39\",\"1\",\"Training\",\"Stims/Figures/128-J-10-3.bmp\",\"sasaza\",\"Left\",\"39\",\"8\",\"16\",\"3B\",\"C2\",\"J\",\"128\"
\"\",\"\",\"approach-retreat\",\"132\",\"1172884\",\"0.0-132.0\",\"\",\"\",\"2-5\",\"4496\",\"37\",\"1\",\"Training\",\"Stims/Figures/118-C-20-2.bmp\",\"fa:fasha\",\"Left\",\"37\",\"9\",\"1\",\"3B\",\"C1\",\"J\",\"129\"
\"\",\"\",\"approach-retreat\",\"133\",\"1178242\",\"0.0-133.0\",\"\",\"\",\"2-5\",\"3847\",\"39\",\"1\",\"Training\",\"Stims/Figures/84-C-20-2.bmp\",\"fa:fasha\",\"Right\",\"39\",\"9\",\"2\",\"3B\",\"C1\",\"J\",\"130\"
\"\",\"\",\"approach-retreat\",\"134\",\"1183893\",\"0.0-134.0\",\"\",\"\",\"2-5\",\"4141\",\"40\",\"0\",\"Training\",\"Stims/Figures/84-J-0-2.bmp\",\"sasaza\",\"Down\",\"38\",\"9\",\"3\",\"3B\",\"C2\",\"J\",\"131\"
\"\",\"\",\"approach-retreat\",\"135\",\"1189664\",\"0.0-135.0\",\"\",\"\",\"2-5\",\"4262\",\"38\",\"1\",\"Training\",\"Stims/Figures/128-C-30-3.bmp\",\"fa:fasha\",\"Up\",\"38\",\"9\",\"4\",\"3B\",\"C1\",\"J\",\"132\"
\"\",\"\",\"approach-retreat\",\"136\",\"1195698\",\"0.0-136.0\",\"\",\"\",\"2-5\",\"4523\",\"38\",\"1\",\"Training\",\"Stims/Figures/19-J-10-4.bmp\",\"sasaza\",\"Down\",\"38\",\"9\",\"5\",\"3B\",\"C2\",\"J\",\"133\"
\"\",\"\",\"approach-retreat\",\"137\",\"1201979\",\"0.0-137.0\",\"\",\"\",\"2-5\",\"4772\",\"40\",\"1\",\"Training\",\"Stims/Figures/118-J-0-2.bmp\",\"sasaza\",\"Up\",\"40\",\"9\",\"6\",\"3B\",\"C2\",\"J\",\"134\"
\"\",\"\",\"approach-retreat\",\"138\",\"1207812\",\"0.0-138.0\",\"\",\"\",\"2-5\",\"4321\",\"38\",\"1\",\"Training\",\"Stims/Figures/93-C-30-1.bmp\",\"fa:fasha\",\"Up\",\"38\",\"9\",\"7\",\"3B\",\"C1\",\"J\",\"135\"
\"\",\"\",\"approach-retreat\",\"139\",\"1213531\",\"0.0-139.0\",\"\",\"\",\"2-5\",\"4211\",\"39\",\"1\",\"Training\",\"Stims/Figures/19-C-20-4.bmp\",\"fa:fasha\",\"Right\",\"39\",\"9\",\"8\",\"3B\",\"C1\",\"J\",\"136\"
\"\",\"\",\"approach-retreat\",\"140\",\"1219036\",\"0.0-140.0\",\"\",\"\",\"2-5\",\"3995\",\"37\",\"1\",\"Training\",\"Stims/Figures/7-C-20-4.bmp\",\"fa:fasha\",\"Left\",\"37\",\"9\",\"9\",\"3B\",\"C1\",\"J\",\"137\"
\"\",\"\",\"approach-retreat\",\"141\",\"1225001\",\"0.0-141.0\",\"\",\"\",\"2-5\",\"4457\",\"37\",\"1\",\"Training\",\"Stims/Figures/100-J-10-3.bmp\",\"sasaza\",\"Right\",\"37\",\"9\",\"10\",\"3B\",\"C2\",\"J\",\"138\"
\"\",\"\",\"approach-retreat\",\"142\",\"1230899\",\"0.0-142.0\",\"\",\"\",\"2-5\",\"4388\",\"39\",\"1\",\"Training\",\"Stims/Figures/7-J-10-4.bmp\",\"sasaza\",\"Left\",\"39\",\"9\",\"11\",\"3B\",\"C2\",\"J\",\"139\"
\"\",\"\",\"approach-retreat\",\"143\",\"1237027\",\"0.0-143.0\",\"\",\"\",\"2-5\",\"4619\",\"40\",\"1\",\"Training\",\"Stims/Figures/57-C-30-1.bmp\",\"fa:fasha\",\"Down\",\"40\",\"9\",\"12\",\"3B\",\"C1\",\"J\",\"140\"
\"\",\"\",\"approach-retreat\",\"144\",\"1242893\",\"0.0-144.0\",\"\",\"\",\"2-5\",\"4355\",\"40\",\"1\",\"Training\",\"Stims/Figures/100-C-30-3.bmp\",\"fa:fasha\",\"Down\",\"40\",\"9\",\"13\",\"3B\",\"C1\",\"J\",\"141\"
\"\",\"\",\"approach-retreat\",\"145\",\"1248366\",\"0.0-145.0\",\"\",\"\",\"2-5\",\"3965\",\"37\",\"1\",\"Training\",\"Stims/Figures/128-J-10-3.bmp\",\"sasaza\",\"Right\",\"37\",\"9\",\"14\",\"3B\",\"C2\",\"J\",\"142\"
\"\",\"\",\"approach-retreat\",\"146\",\"1254699\",\"0.0-146.0\",\"\",\"\",\"2-5\",\"4823\",\"40\",\"1\",\"Training\",\"Stims/Figures/57-J-0-1.bmp\",\"sasaza\",\"Up\",\"40\",\"9\",\"15\",\"3B\",\"C2\",\"J\",\"143\"
\"\",\"\",\"approach-retreat\",\"147\",\"1260519\",\"0.0-147.0\",\"\",\"\",\"2-5\",\"4309\",\"39\",\"1\",\"Training\",\"Stims/Figures/93-J-0-1.bmp\",\"sasaza\",\"Left\",\"39\",\"9\",\"16\",\"3B\",\"C2\",\"J\",\"144\"
\"37457\",\"\",\"instructions\",\"148\",\"1297977\",\"0.0-148.0\",\"[{\"\"page_index\"\":0,\"\"viewing_time\"\":37456}]\",\"\",\"\",\"\",\"\",\"\",\"\",\"\",\"\",\"\",\"\",\"\",\"\",\"\",\"\",\"\",\"\"
\"\",\"\",\"approach-retreat\",\"149\",\"1306286\",\"0.0-149.0\",\"\",\"\",\"2-5\",\"6802\",\"38\",\"1\",\"Testing\",\"Stims/Figures/128-J-10-3.bmp\",\"sasaza\",\"Down\",\"38\",\"1\",\"1\",\"3B\",\"C2\",\"J\",\"1\"
\"\",\"\",\"approach-retreat\",\"150\",\"1314039\",\"0.0-150.0\",\"\",\"\",\"2-5\",\"6244\",\"40\",\"1\",\"Testing\",\"Stims/Figures/118-J-0-2.bmp\",\"sasaza\",\"Up\",\"40\",\"1\",\"2\",\"3B\",\"C2\",\"J\",\"2\"
\"\",\"\",\"approach-retreat\",\"151\",\"1319640\",\"0.0-151.0\",\"\",\"\",\"2-5\",\"4092\",\"37\",\"0\",\"Testing\",\"Stims/Figures/86-C-30-1.bmp\",\"fa:fasha\",\"Right\",\"39\",\"1\",\"3\",\"3B\",\"C1\",\"J\",\"3\"
\"\",\"\",\"approach-retreat\",\"152\",\"1326576\",\"0.0-152.0\",\"\",\"\",\"2-5\",\"5429\",\"38\",\"1\",\"Testing\",\"Stims/Figures/7-C-20-4.bmp\",\"fa:fasha\",\"Up\",\"38\",\"1\",\"4\",\"3B\",\"C1\",\"J\",\"4\"
\"\",\"\",\"approach-retreat\",\"153\",\"1333830\",\"0.0-153.0\",\"\",\"\",\"2-5\",\"5743\",\"39\",\"1\",\"Testing\",\"Stims/Figures/93-J-0-1.bmp\",\"sasaza\",\"Left\",\"39\",\"1\",\"5\",\"3B\",\"C2\",\"J\",\"5\"
\"\",\"\",\"approach-retreat\",\"154\",\"1339801\",\"0.0-154.0\",\"\",\"\",\"2-5\",\"4463\",\"37\",\"1\",\"Testing\",\"Stims/Figures/19-J-10-4.bmp\",\"sasaza\",\"Right\",\"37\",\"1\",\"6\",\"3B\",\"C2\",\"J\",\"6\"
\"\",\"\",\"approach-retreat\",\"155\",\"1345628\",\"0.0-155.0\",\"\",\"\",\"2-5\",\"4318\",\"38\",\"0\",\"Testing\",\"Stims/Figures/118-C-20-2.bmp\",\"fa:fasha\",\"Down\",\"40\",\"1\",\"7\",\"3B\",\"C1\",\"J\",\"7\"
\"\",\"\",\"approach-retreat\",\"156\",\"1351460\",\"0.0-156.0\",\"\",\"\",\"2-5\",\"4326\",\"39\",\"1\",\"Testing\",\"Stims/Figures/100-J-10-3.bmp\",\"sasaza\",\"Left\",\"39\",\"1\",\"8\",\"3B\",\"C2\",\"J\",\"8\"
\"\",\"\",\"approach-retreat\",\"157\",\"1357648\",\"0.0-157.0\",\"\",\"\",\"2-5\",\"4679\",\"37\",\"0\",\"Testing\",\"Stims/Figures/144-J-10-3.bmp\",\"sasaza\",\"Left\",\"39\",\"1\",\"9\",\"3B\",\"C2\",\"J\",\"9\"
\"\",\"\",\"approach-retreat\",\"158\",\"1363600\",\"0.0-158.0\",\"\",\"\",\"2-5\",\"4442\",\"38\",\"0\",\"Testing\",\"Stims/Figures/94-C-20-2.bmp\",\"fa:fasha\",\"Down\",\"40\",\"1\",\"10\",\"3B\",\"C1\",\"J\",\"10\"
\"\",\"\",\"approach-retreat\",\"159\",\"1369635\",\"0.0-159.0\",\"\",\"\",\"2-5\",\"4526\",\"40\",\"0\",\"Testing\",\"Stims/Figures/144-C-30-3.bmp\",\"fa:fasha\",\"Up\",\"38\",\"1\",\"11\",\"3B\",\"C1\",\"J\",\"11\"
\"\",\"\",\"approach-retreat\",\"160\",\"1375917\",\"0.0-160.0\",\"\",\"\",\"2-5\",\"4773\",\"39\",\"1\",\"Testing\",\"Stims/Figures/128-C-30-3.bmp\",\"fa:fasha\",\"Right\",\"39\",\"1\",\"12\",\"3B\",\"C1\",\"J\",\"12\"
\"\",\"\",\"approach-retreat\",\"161\",\"1382078\",\"0.0-161.0\",\"\",\"\",\"2-5\",\"4652\",\"38\",\"1\",\"Testing\",\"Stims/Figures/7-J-10-4.bmp\",\"sasaza\",\"Down\",\"38\",\"1\",\"13\",\"3B\",\"C2\",\"J\",\"13\"
\"\",\"\",\"approach-retreat\",\"162\",\"1388172\",\"0.0-162.0\",\"\",\"\",\"2-5\",\"4587\",\"37\",\"0\",\"Testing\",\"Stims/Figures/100-C-30-3.bmp\",\"fa:fasha\",\"Right\",\"39\",\"1\",\"14\",\"3B\",\"C1\",\"J\",\"14\"
\"\",\"\",\"approach-retreat\",\"163\",\"1394118\",\"0.0-163.0\",\"\",\"\",\"2-5\",\"4437\",\"39\",\"0\",\"Testing\",\"Stims/Figures/57-J-0-1.bmp\",\"sasaza\",\"Right\",\"37\",\"1\",\"15\",\"3B\",\"C2\",\"J\",\"15\"
\"\",\"\",\"approach-retreat\",\"164\",\"1401113\",\"0.0-164.0\",\"\",\"\",\"2-5\",\"5488\",\"40\",\"0\",\"Testing\",\"Stims/Figures/84-J-0-2.bmp\",\"sasaza\",\"Down\",\"38\",\"1\",\"16\",\"3B\",\"C2\",\"J\",\"16\"
\"\",\"\",\"approach-retreat\",\"165\",\"1408544\",\"0.0-165.0\",\"\",\"\",\"2-5\",\"5920\",\"38\",\"0\",\"Testing\",\"Stims/Figures/93-C-30-1.bmp\",\"fa:fasha\",\"Down\",\"40\",\"1\",\"17\",\"3B\",\"C1\",\"J\",\"17\"
\"\",\"\",\"approach-retreat\",\"166\",\"1414274\",\"0.0-166.0\",\"\",\"\",\"2-5\",\"4222\",\"37\",\"1\",\"Testing\",\"Stims/Figures/74-C-20-4.bmp\",\"fa:fasha\",\"Left\",\"37\",\"1\",\"18\",\"3B\",\"C1\",\"J\",\"18\"
\"\",\"\",\"approach-retreat\",\"167\",\"1420215\",\"0.0-167.0\",\"\",\"\",\"2-5\",\"4435\",\"39\",\"1\",\"Testing\",\"Stims/Figures/94-J-0-2.bmp\",\"sasaza\",\"Left\",\"39\",\"1\",\"19\",\"3B\",\"C2\",\"J\",\"19\"
\"\",\"\",\"approach-retreat\",\"168\",\"1426444\",\"0.0-168.0\",\"\",\"\",\"2-5\",\"4720\",\"40\",\"0\",\"Testing\",\"Stims/Figures/19-C-20-4.bmp\",\"fa:fasha\",\"Up\",\"38\",\"1\",\"20\",\"3B\",\"C1\",\"J\",\"20\"
\"\",\"\",\"approach-retreat\",\"169\",\"1432900\",\"0.0-169.0\",\"\",\"\",\"2-5\",\"4946\",\"38\",\"0\",\"Testing\",\"Stims/Figures/74-J-10-4.bmp\",\"sasaza\",\"Up\",\"40\",\"1\",\"21\",\"3B\",\"C2\",\"J\",\"21\"
\"\",\"\",\"approach-retreat\",\"170\",\"1438721\",\"0.0-170.0\",\"\",\"\",\"2-5\",\"4311\",\"38\",\"1\",\"Testing\",\"Stims/Figures/57-C-30-1.bmp\",\"fa:fasha\",\"Up\",\"38\",\"1\",\"22\",\"3B\",\"C1\",\"J\",\"22\"
\"\",\"\",\"approach-retreat\",\"171\",\"1444318\",\"0.0-171.0\",\"\",\"\",\"2-5\",\"4085\",\"39\",\"1\",\"Testing\",\"Stims/Figures/84-C-20-2.bmp\",\"fa:fasha\",\"Right\",\"39\",\"1\",\"23\",\"3B\",\"C1\",\"J\",\"23\"
\"\",\"\",\"approach-retreat\",\"172\",\"1449990\",\"0.0-172.0\",\"\",\"\",\"2-5\",\"4167\",\"39\",\"1\",\"Testing\",\"Stims/Figures/86-J-0-1.bmp\",\"sasaza\",\"Left\",\"39\",\"1\",\"24\",\"3B\",\"C2\",\"J\",\"24\"
\"\",\"\",\"approach-retreat\",\"173\",\"1455925\",\"0.0-173.0\",\"\",\"\",\"2-5\",\"4426\",\"37\",\"0\",\"Testing\",\"Stims/Figures/84-J-0-2.bmp\",\"sasaza\",\"Left\",\"39\",\"2\",\"1\",\"3B\",\"C2\",\"J\",\"25\"
\"\",\"\",\"approach-retreat\",\"174\",\"1462185\",\"0.0-174.0\",\"\",\"\",\"2-5\",\"4751\",\"39\",\"0\",\"Testing\",\"Stims/Figures/7-J-10-4.bmp\",\"sasaza\",\"Right\",\"37\",\"2\",\"2\",\"3B\",\"C2\",\"J\",\"26\"
\"\",\"\",\"approach-retreat\",\"175\",\"1468421\",\"0.0-175.0\",\"\",\"\",\"2-5\",\"4727\",\"37\",\"1\",\"Testing\",\"Stims/Figures/128-J-10-3.bmp\",\"sasaza\",\"Right\",\"37\",\"2\",\"3\",\"3B\",\"C2\",\"J\",\"27\"
\"\",\"\",\"approach-retreat\",\"176\",\"1474641\",\"0.0-176.0\",\"\",\"\",\"2-5\",\"4709\",\"40\",\"0\",\"Testing\",\"Stims/Figures/100-J-10-3.bmp\",\"sasaza\",\"Down\",\"38\",\"2\",\"4\",\"3B\",\"C2\",\"J\",\"28\"
\"\",\"\",\"approach-retreat\",\"177\",\"1480423\",\"0.0-177.0\",\"\",\"\",\"2-5\",\"4274\",\"39\",\"1\",\"Testing\",\"Stims/Figures/19-J-10-4.bmp\",\"sasaza\",\"Left\",\"39\",\"2\",\"5\",\"3B\",\"C2\",\"J\",\"29\"
\"\",\"\",\"approach-retreat\",\"178\",\"1486433\",\"0.0-178.0\",\"\",\"\",\"2-5\",\"4503\",\"40\",\"1\",\"Testing\",\"Stims/Figures/144-C-30-3.bmp\",\"fa:fasha\",\"Down\",\"40\",\"2\",\"6\",\"3B\",\"C1\",\"J\",\"30\"
\"\",\"\",\"approach-retreat\",\"179\",\"1491891\",\"0.0-179.0\",\"\",\"\",\"2-5\",\"3950\",\"39\",\"0\",\"Testing\",\"Stims/Figures/118-J-0-2.bmp\",\"sasaza\",\"Right\",\"37\",\"2\",\"7\",\"3B\",\"C2\",\"J\",\"31\"
\"\",\"\",\"approach-retreat\",\"180\",\"1497533\",\"0.0-180.0\",\"\",\"\",\"2-5\",\"4135\",\"40\",\"0\",\"Testing\",\"Stims/Figures/128-C-30-3.bmp\",\"fa:fasha\",\"Up\",\"38\",\"2\",\"8\",\"3B\",\"C1\",\"J\",\"32\"
\"\",\"\",\"approach-retreat\",\"181\",\"1503426\",\"0.0-181.0\",\"\",\"\",\"2-5\",\"4384\",\"40\",\"1\",\"Testing\",\"Stims/Figures/74-C-20-4.bmp\",\"fa:fasha\",\"Down\",\"40\",\"2\",\"9\",\"3B\",\"C1\",\"J\",\"33\"
\"\",\"\",\"approach-retreat\",\"182\",\"1509018\",\"0.0-182.0\",\"\",\"\",\"2-5\",\"4084\",\"40\",\"0\",\"Testing\",\"Stims/Figures/74-J-10-4.bmp\",\"sasaza\",\"Down\",\"38\",\"2\",\"10\",\"3B\",\"C2\",\"J\",\"34\"
\"\",\"\",\"approach-retreat\",\"183\",\"1516028\",\"0.0-183.0\",\"\",\"\",\"2-5\",\"5501\",\"38\",\"0\",\"Testing\",\"Stims/Figures/94-J-0-2.bmp\",\"sasaza\",\"Up\",\"40\",\"2\",\"11\",\"3B\",\"C2\",\"J\",\"35\"
\"\",\"\",\"approach-retreat\",\"184\",\"1522394\",\"0.0-184.0\",\"\",\"\",\"2-5\",\"4857\",\"39\",\"1\",\"Testing\",\"Stims/Figures/19-C-20-4.bmp\",\"fa:fasha\",\"Right\",\"39\",\"2\",\"12\",\"3B\",\"C1\",\"J\",\"36\"
\"\",\"\",\"approach-retreat\",\"185\",\"1528588\",\"0.0-185.0\",\"\",\"\",\"2-5\",\"4683\",\"40\",\"0\",\"Testing\",\"Stims/Figures/118-C-20-2.bmp\",\"fa:fasha\",\"Up\",\"38\",\"2\",\"13\",\"3B\",\"C1\",\"J\",\"37\"
\"\",\"\",\"approach-retreat\",\"186\",\"1534380\",\"0.0-186.0\",\"\",\"\",\"2-5\",\"4284\",\"40\",\"1\",\"Testing\",\"Stims/Figures/144-J-10-3.bmp\",\"sasaza\",\"Up\",\"40\",\"2\",\"14\",\"3B\",\"C2\",\"J\",\"38\"
\"\",\"\",\"approach-retreat\",\"187\",\"1539865\",\"0.0-187.0\",\"\",\"\",\"2-5\",\"3973\",\"39\",\"0\",\"Testing\",\"Stims/Figures/86-J-0-1.bmp\",\"sasaza\",\"Right\",\"37\",\"2\",\"15\",\"3B\",\"C2\",\"J\",\"39\"
\"\",\"\",\"approach-retreat\",\"188\",\"1545514\",\"0.0-188.0\",\"\",\"\",\"2-5\",\"4139\",\"37\",\"1\",\"Testing\",\"Stims/Figures/84-C-20-2.bmp\",\"fa:fasha\",\"Left\",\"37\",\"2\",\"16\",\"3B\",\"C1\",\"J\",\"40\"
\"\",\"\",\"approach-retreat\",\"189\",\"1551411\",\"0.0-189.0\",\"\",\"\",\"2-5\",\"4388\",\"40\",\"0\",\"Testing\",\"Stims/Figures/57-J-0-1.bmp\",\"sasaza\",\"Down\",\"38\",\"2\",\"17\",\"3B\",\"C2\",\"J\",\"41\"
\"\",\"\",\"approach-retreat\",\"190\",\"1557537\",\"0.0-190.0\",\"\",\"\",\"2-5\",\"4620\",\"37\",\"1\",\"Testing\",\"Stims/Figures/94-C-20-2.bmp\",\"fa:fasha\",\"Left\",\"37\",\"2\",\"18\",\"3B\",\"C1\",\"J\",\"42\"
\"\",\"\",\"approach-retreat\",\"191\",\"1563582\",\"0.0-191.0\",\"\",\"\",\"2-5\",\"4533\",\"38\",\"1\",\"Testing\",\"Stims/Figures/100-C-30-3.bmp\",\"fa:fasha\",\"Up\",\"38\",\"2\",\"19\",\"3B\",\"C1\",\"J\",\"43\"
\"\",\"\",\"approach-retreat\",\"192\",\"1569766\",\"0.0-192.0\",\"\",\"\",\"2-5\",\"4674\",\"39\",\"1\",\"Testing\",\"Stims/Figures/7-C-20-4.bmp\",\"fa:fasha\",\"Right\",\"39\",\"2\",\"20\",\"3B\",\"C1\",\"J\",\"44\"
\"\",\"\",\"approach-retreat\",\"193\",\"1575989\",\"0.0-193.0\",\"\",\"\",\"2-5\",\"4712\",\"40\",\"0\",\"Testing\",\"Stims/Figures/93-J-0-1.bmp\",\"sasaza\",\"Down\",\"38\",\"2\",\"21\",\"3B\",\"C2\",\"J\",\"45\"
\"\",\"\",\"approach-retreat\",\"194\",\"1581795\",\"0.0-194.0\",\"\",\"\",\"2-5\",\"4296\",\"39\",\"0\",\"Testing\",\"Stims/Figures/57-C-30-1.bmp\",\"fa:fasha\",\"Left\",\"37\",\"2\",\"22\",\"3B\",\"C1\",\"J\",\"46\"
\"\",\"\",\"approach-retreat\",\"195\",\"1587705\",\"0.0-195.0\",\"\",\"\",\"2-5\",\"4406\",\"37\",\"1\",\"Testing\",\"Stims/Figures/93-C-30-1.bmp\",\"fa:fasha\",\"Left\",\"37\",\"2\",\"23\",\"3B\",\"C1\",\"J\",\"47\"
\"\",\"\",\"approach-retreat\",\"196\",\"1593591\",\"0.0-196.0\",\"\",\"\",\"2-5\",\"4380\",\"40\",\"0\",\"Testing\",\"Stims/Figures/86-C-30-1.bmp\",\"fa:fasha\",\"Up\",\"38\",\"2\",\"24\",\"3B\",\"C1\",\"J\",\"48\"
\"\",\"\",\"approach-retreat\",\"197\",\"1599838\",\"0.0-197.0\",\"\",\"\",\"2-5\",\"4736\",\"40\",\"1\",\"Testing\",\"Stims/Figures/57-C-30-1.bmp\",\"fa:fasha\",\"Down\",\"40\",\"3\",\"1\",\"3B\",\"C1\",\"J\",\"49\"
\"\",\"\",\"approach-retreat\",\"198\",\"1606867\",\"0.0-198.0\",\"\",\"\",\"2-5\",\"5519\",\"37\",\"1\",\"Testing\",\"Stims/Figures/74-C-20-4.bmp\",\"fa:fasha\",\"Left\",\"37\",\"3\",\"2\",\"3B\",\"C1\",\"J\",\"50\"
\"\",\"\",\"approach-retreat\",\"199\",\"1612928\",\"0.0-199.0\",\"\",\"\",\"2-5\",\"4556\",\"40\",\"1\",\"Testing\",\"Stims/Figures/144-J-10-3.bmp\",\"sasaza\",\"Up\",\"40\",\"3\",\"3\",\"3B\",\"C2\",\"J\",\"51\"
\"\",\"\",\"approach-retreat\",\"200\",\"1619607\",\"0.0-200.0\",\"\",\"\",\"2-5\",\"5172\",\"40\",\"0\",\"Testing\",\"Stims/Figures/128-J-10-3.bmp\",\"sasaza\",\"Down\",\"38\",\"3\",\"4\",\"3B\",\"C2\",\"J\",\"52\"
\"\",\"\",\"approach-retreat\",\"201\",\"1625325\",\"0.0-201.0\",\"\",\"\",\"2-5\",\"4208\",\"39\",\"0\",\"Testing\",\"Stims/Figures/118-C-20-2.bmp\",\"fa:fasha\",\"Left\",\"37\",\"3\",\"5\",\"3B\",\"C1\",\"J\",\"53\"
\"\",\"\",\"approach-retreat\",\"202\",\"1631862\",\"0.0-202.0\",\"\",\"\",\"2-5\",\"5030\",\"40\",\"0\",\"Testing\",\"Stims/Figures/128-C-30-3.bmp\",\"fa:fasha\",\"Up\",\"38\",\"3\",\"6\",\"3B\",\"C1\",\"J\",\"54\"
\"\",\"\",\"approach-retreat\",\"203\",\"1637705\",\"0.0-203.0\",\"\",\"\",\"2-5\",\"4336\",\"38\",\"1\",\"Testing\",\"Stims/Figures/84-C-20-2.bmp\",\"fa:fasha\",\"Up\",\"38\",\"3\",\"7\",\"3B\",\"C1\",\"J\",\"55\"
\"\",\"\",\"approach-retreat\",\"204\",\"1643750\",\"0.0-204.0\",\"\",\"\",\"2-5\",\"4536\",\"39\",\"0\",\"Testing\",\"Stims/Figures/7-J-10-4.bmp\",\"sasaza\",\"Right\",\"37\",\"3\",\"8\",\"3B\",\"C2\",\"J\",\"56\"
\"\",\"\",\"approach-retreat\",\"205\",\"1650190\",\"0.0-205.0\",\"\",\"\",\"2-5\",\"4932\",\"38\",\"1\",\"Testing\",\"Stims/Figures/94-J-0-2.bmp\",\"sasaza\",\"Down\",\"38\",\"3\",\"9\",\"3B\",\"C2\",\"J\",\"57\"
\"\",\"\",\"approach-retreat\",\"206\",\"1656164\",\"0.0-206.0\",\"\",\"\",\"2-5\",\"4466\",\"38\",\"0\",\"Testing\",\"Stims/Figures/118-J-0-2.bmp\",\"sasaza\",\"Up\",\"40\",\"3\",\"10\",\"3B\",\"C2\",\"J\",\"58\"
\"\",\"\",\"approach-retreat\",\"207\",\"1662158\",\"0.0-207.0\",\"\",\"\",\"2-5\",\"4485\",\"39\",\"0\",\"Testing\",\"Stims/Figures/100-J-10-3.bmp\",\"sasaza\",\"Right\",\"37\",\"3\",\"11\",\"3B\",\"C2\",\"J\",\"59\"
\"\",\"\",\"approach-retreat\",\"208\",\"1668109\",\"0.0-208.0\",\"\",\"\",\"2-5\",\"4442\",\"39\",\"0\",\"Testing\",\"Stims/Figures/74-J-10-4.bmp\",\"sasaza\",\"Right\",\"37\",\"3\",\"12\",\"3B\",\"C2\",\"J\",\"60\"
\"\",\"\",\"approach-retreat\",\"209\",\"1673892\",\"0.0-209.0\",\"\",\"\",\"2-5\",\"4276\",\"37\",\"1\",\"Testing\",\"Stims/Figures/94-C-20-2.bmp\",\"fa:fasha\",\"Left\",\"37\",\"3\",\"13\",\"3B\",\"C1\",\"J\",\"61\"
\"\",\"\",\"approach-retreat\",\"210\",\"1679790\",\"0.0-210.0\",\"\",\"\",\"2-5\",\"4389\",\"37\",\"1\",\"Testing\",\"Stims/Figures/100-C-30-3.bmp\",\"fa:fasha\",\"Left\",\"37\",\"3\",\"14\",\"3B\",\"C1\",\"J\",\"62\"
\"\",\"\",\"approach-retreat\",\"211\",\"1685553\",\"0.0-211.0\",\"\",\"\",\"2-5\",\"4257\",\"39\",\"1\",\"Testing\",\"Stims/Figures/19-C-20-4.bmp\",\"fa:fasha\",\"Right\",\"39\",\"3\",\"15\",\"3B\",\"C1\",\"J\",\"63\"
\"\",\"\",\"approach-retreat\",\"212\",\"1691266\",\"0.0-212.0\",\"\",\"\",\"2-5\",\"4204\",\"37\",\"1\",\"Testing\",\"Stims/Figures/57-J-0-1.bmp\",\"sasaza\",\"Right\",\"37\",\"3\",\"16\",\"3B\",\"C2\",\"J\",\"64\"
\"\",\"\",\"approach-retreat\",\"213\",\"1696955\",\"0.0-213.0\",\"\",\"\",\"2-5\",\"4185\",\"40\",\"1\",\"Testing\",\"Stims/Figures/144-C-30-3.bmp\",\"fa:fasha\",\"Down\",\"40\",\"3\",\"17\",\"3B\",\"C1\",\"J\",\"65\"
\"\",\"\",\"approach-retreat\",\"214\",\"1703010\",\"0.0-214.0\",\"\",\"\",\"2-5\",\"4547\",\"38\",\"1\",\"Testing\",\"Stims/Figures/93-J-0-1.bmp\",\"sasaza\",\"Down\",\"38\",\"3\",\"18\",\"3B\",\"C2\",\"J\",\"66\"
\"\",\"\",\"approach-retreat\",\"215\",\"1708805\",\"0.0-215.0\",\"\",\"\",\"2-5\",\"4287\",\"37\",\"0\",\"Testing\",\"Stims/Figures/84-J-0-2.bmp\",\"sasaza\",\"Left\",\"39\",\"3\",\"19\",\"3B\",\"C2\",\"J\",\"67\"
\"\",\"\",\"approach-retreat\",\"216\",\"1715118\",\"0.0-216.0\",\"\",\"\",\"2-5\",\"4800\",\"40\",\"0\",\"Testing\",\"Stims/Figures/19-J-10-4.bmp\",\"sasaza\",\"Down\",\"38\",\"3\",\"20\",\"3B\",\"C2\",\"J\",\"68\"
\"\",\"\",\"approach-retreat\",\"217\",\"1720870\",\"0.0-217.0\",\"\",\"\",\"2-5\",\"4244\",\"38\",\"1\",\"Testing\",\"Stims/Figures/7-C-20-4.bmp\",\"fa:fasha\",\"Up\",\"38\",\"3\",\"21\",\"3B\",\"C1\",\"J\",\"69\"
\"\",\"\",\"approach-retreat\",\"218\",\"1726337\",\"0.0-218.0\",\"\",\"\",\"2-5\",\"3955\",\"39\",\"0\",\"Testing\",\"Stims/Figures/86-C-30-1.bmp\",\"fa:fasha\",\"Left\",\"37\",\"3\",\"22\",\"3B\",\"C1\",\"J\",\"70\"
\"\",\"\",\"approach-retreat\",\"219\",\"1732684\",\"0.0-219.0\",\"\",\"\",\"2-5\",\"4840\",\"37\",\"0\",\"Testing\",\"Stims/Figures/93-C-30-1.bmp\",\"fa:fasha\",\"Right\",\"39\",\"3\",\"23\",\"3B\",\"C1\",\"J\",\"71\"
\"\",\"\",\"approach-retreat\",\"220\",\"1738167\",\"0.0-220.0\",\"\",\"\",\"2-5\",\"3975\",\"38\",\"0\",\"Testing\",\"Stims/Figures/86-J-0-1.bmp\",\"sasaza\",\"Up\",\"40\",\"3\",\"24\",\"3B\",\"C2\",\"J\",\"72\"
\"\",\"\",\"approach-retreat\",\"221\",\"1744155\",\"0.0-221.0\",\"\",\"\",\"2-5\",\"4477\",\"38\",\"0\",\"Testing\",\"Stims/Figures/74-C-20-4.bmp\",\"fa:fasha\",\"Down\",\"40\",\"4\",\"1\",\"3B\",\"C1\",\"J\",\"73\"
\"\",\"\",\"approach-retreat\",\"222\",\"1750118\",\"0.0-222.0\",\"\",\"\",\"2-5\",\"4452\",\"40\",\"0\",\"Testing\",\"Stims/Figures/128-J-10-3.bmp\",\"sasaza\",\"Down\",\"38\",\"4\",\"2\",\"3B\",\"C2\",\"J\",\"74\"
\"\",\"\",\"approach-retreat\",\"223\",\"1756211\",\"0.0-223.0\",\"\",\"\",\"2-5\",\"4584\",\"38\",\"0\",\"Testing\",\"Stims/Figures/144-C-30-3.bmp\",\"fa:fasha\",\"Down\",\"40\",\"4\",\"3\",\"3B\",\"C1\",\"J\",\"75\"
\"\",\"\",\"approach-retreat\",\"224\",\"1762476\",\"0.0-224.0\",\"\",\"\",\"2-5\",\"4756\",\"39\",\"0\",\"Testing\",\"Stims/Figures/84-J-0-2.bmp\",\"sasaza\",\"Right\",\"37\",\"4\",\"4\",\"3B\",\"C2\",\"J\",\"76\"
\"\",\"\",\"approach-retreat\",\"225\",\"1768506\",\"0.0-225.0\",\"\",\"\",\"2-5\",\"4519\",\"37\",\"0\",\"Testing\",\"Stims/Figures/57-C-30-1.bmp\",\"fa:fasha\",\"Right\",\"39\",\"4\",\"5\",\"3B\",\"C1\",\"J\",\"77\"
\"\",\"\",\"approach-retreat\",\"226\",\"1774318\",\"0.0-226.0\",\"\",\"\",\"2-5\",\"4304\",\"40\",\"0\",\"Testing\",\"Stims/Figures/94-C-20-2.bmp\",\"fa:fasha\",\"Up\",\"38\",\"4\",\"6\",\"3B\",\"C1\",\"J\",\"78\"
\"\",\"\",\"approach-retreat\",\"227\",\"1779768\",\"0.0-227.0\",\"\",\"\",\"2-5\",\"3939\",\"38\",\"0\",\"Testing\",\"Stims/Figures/94-J-0-2.bmp\",\"sasaza\",\"Up\",\"40\",\"4\",\"7\",\"3B\",\"C2\",\"J\",\"79\"
\"\",\"\",\"approach-retreat\",\"228\",\"1785331\",\"0.0-228.0\",\"\",\"\",\"2-5\",\"4052\",\"37\",\"0\",\"Testing\",\"Stims/Figures/93-C-30-1.bmp\",\"fa:fasha\",\"Right\",\"39\",\"4\",\"8\",\"3B\",\"C1\",\"J\",\"80\"
\"\",\"\",\"approach-retreat\",\"229\",\"1791032\",\"0.0-229.0\",\"\",\"\",\"2-5\",\"4195\",\"39\",\"1\",\"Testing\",\"Stims/Figures/7-J-10-4.bmp\",\"sasaza\",\"Left\",\"39\",\"4\",\"9\",\"3B\",\"C2\",\"J\",\"81\"
\"\",\"\",\"approach-retreat\",\"230\",\"1797651\",\"0.0-230.0\",\"\",\"\",\"2-5\",\"5109\",\"38\",\"0\",\"Testing\",\"Stims/Figures/7-C-20-4.bmp\",\"fa:fasha\",\"Down\",\"40\",\"4\",\"10\",\"3B\",\"C1\",\"J\",\"82\"
\"\",\"\",\"approach-retreat\",\"231\",\"1803670\",\"0.0-231.0\",\"\",\"\",\"2-5\",\"4510\",\"39\",\"0\",\"Testing\",\"Stims/Figures/144-J-10-3.bmp\",\"sasaza\",\"Right\",\"37\",\"4\",\"11\",\"3B\",\"C2\",\"J\",\"83\"
\"\",\"\",\"approach-retreat\",\"232\",\"1809470\",\"0.0-232.0\",\"\",\"\",\"2-5\",\"4291\",\"40\",\"0\",\"Testing\",\"Stims/Figures/84-C-20-2.bmp\",\"fa:fasha\",\"Up\",\"38\",\"4\",\"12\",\"3B\",\"C1\",\"J\",\"84\"
\"\",\"\",\"approach-retreat\",\"233\",\"1815428\",\"0.0-233.0\",\"\",\"\",\"2-5\",\"4449\",\"37\",\"0\",\"Testing\",\"Stims/Figures/128-C-30-3.bmp\",\"fa:fasha\",\"Right\",\"39\",\"4\",\"13\",\"3B\",\"C1\",\"J\",\"85\"
\"\",\"\",\"approach-retreat\",\"234\",\"1821090\",\"0.0-234.0\",\"\",\"\",\"2-5\",\"4152\",\"37\",\"1\",\"Testing\",\"Stims/Figures/118-C-20-2.bmp\",\"fa:fasha\",\"Left\",\"37\",\"4\",\"14\",\"3B\",\"C1\",\"J\",\"86\"
\"\",\"\",\"approach-retreat\",\"235\",\"1826726\",\"0.0-235.0\",\"\",\"\",\"2-5\",\"4126\",\"37\",\"0\",\"Testing\",\"Stims/Figures/118-J-0-2.bmp\",\"sasaza\",\"Left\",\"39\",\"4\",\"15\",\"3B\",\"C2\",\"J\",\"87\"
\"\",\"\",\"approach-retreat\",\"236\",\"1832684\",\"0.0-236.0\",\"\",\"\",\"2-5\",\"4445\",\"37\",\"1\",\"Testing\",\"Stims/Figures/100-C-30-3.bmp\",\"fa:fasha\",\"Left\",\"37\",\"4\",\"16\",\"3B\",\"C1\",\"J\",\"88\"
\"\",\"\",\"approach-retreat\",\"237\",\"1838291\",\"0.0-237.0\",\"\",\"\",\"2-5\",\"4103\",\"40\",\"0\",\"Testing\",\"Stims/Figures/74-J-10-4.bmp\",\"sasaza\",\"Down\",\"38\",\"4\",\"17\",\"3B\",\"C2\",\"J\",\"89\"
\"\",\"\",\"approach-retreat\",\"238\",\"1844024\",\"0.0-238.0\",\"\",\"\",\"2-5\",\"4225\",\"38\",\"0\",\"Testing\",\"Stims/Figures/100-J-10-3.bmp\",\"sasaza\",\"Up\",\"40\",\"4\",\"18\",\"3B\",\"C2\",\"J\",\"90\"
\"\",\"\",\"approach-retreat\",\"239\",\"1849940\",\"0.0-239.0\",\"\",\"\",\"2-5\",\"4410\",\"37\",\"1\",\"Testing\",\"Stims/Figures/19-J-10-4.bmp\",\"sasaza\",\"Right\",\"37\",\"4\",\"19\",\"3B\",\"C2\",\"J\",\"91\"
\"\",\"\",\"approach-retreat\",\"240\",\"1855509\",\"0.0-240.0\",\"\",\"\",\"2-5\",\"4058\",\"40\",\"1\",\"Testing\",\"Stims/Figures/86-J-0-1.bmp\",\"sasaza\",\"Up\",\"40\",\"4\",\"20\",\"3B\",\"C2\",\"J\",\"92\"
\"\",\"\",\"approach-retreat\",\"241\",\"1861056\",\"0.0-241.0\",\"\",\"\",\"2-5\",\"4037\",\"40\",\"0\",\"Testing\",\"Stims/Figures/86-C-30-1.bmp\",\"fa:fasha\",\"Up\",\"38\",\"4\",\"21\",\"3B\",\"C1\",\"J\",\"93\"
\"\",\"\",\"approach-retreat\",\"242\",\"1866680\",\"0.0-242.0\",\"\",\"\",\"2-5\",\"4116\",\"39\",\"1\",\"Testing\",\"Stims/Figures/93-J-0-1.bmp\",\"sasaza\",\"Left\",\"39\",\"4\",\"22\",\"3B\",\"C2\",\"J\",\"94\"
\"\",\"\",\"approach-retreat\",\"243\",\"1872813\",\"0.0-243.0\",\"\",\"\",\"2-5\",\"4625\",\"37\",\"0\",\"Testing\",\"Stims/Figures/57-J-0-1.bmp\",\"sasaza\",\"Left\",\"39\",\"4\",\"23\",\"3B\",\"C2\",\"J\",\"95\"
\"\",\"\",\"approach-retreat\",\"244\",\"1878500\",\"0.0-244.0\",\"\",\"\",\"2-5\",\"4176\",\"38\",\"0\",\"Testing\",\"Stims/Figures/19-C-20-4.bmp\",\"fa:fasha\",\"Down\",\"40\",\"4\",\"24\",\"3B\",\"C1\",\"J\",\"96\"
\"56858\",\"\",\"survey-text\",\"245\",\"1935365\",\"0.0-245.0\",\"\",\"{\"\"Q0\"\":\"\"1247/17\"\"}\",\"\",\"\",\"\",\"\",\"\",\"\",\"\",\"\",\"\",\"\",\"\",\"\",\"\",\"\",\"\"
