\"rt\",\"key_press\",\"trial_type\",\"trial_index\",\"time_elapsed\",\"internal_node_id\",\"view_history\",\"responses\",\"Id\",\"Rt\",\"ResKeyCode\",\"ResCorr\",\"TrialType2\",\"Image\",\"Label\",\"Location\",\"CorrectResponse\",\"Block\",\"BlockTrial\",\"Condition\",\"LabelType\",\"Subcondition\",\"trialNum\"
\"59245\",\"32\",\"text\",\"0\",\"59249\",\"0.0-0.0-0.0\",\"\",\"\",\"\",\"\",\"\",\"\",\"\",\"\",\"\",\"\",\"\",\"\",\"\",\"\",\"\",\"\",\"\"
\"105899\",\"\",\"instructions\",\"1\",\"165151\",\"0.0-1.0\",\"[{\"\"page_index\"\":0,\"\"viewing_time\"\":105896}]\",\"\",\"\",\"\",\"\",\"\",\"\",\"\",\"\",\"\",\"\",\"\",\"\",\"\",\"\",\"\",\"\"
\"18682\",\"\",\"survey-multi-choice\",\"2\",\"183912\",\"0.0-2.0\",\"\",\"{\"\"Q0\"\":\"\"Da\"\",\"\"Q1\"\":\"\"Da\"\",\"\"Q2\"\":\"\"Da\"\",\"\"Q3\"\":\"\"Da\"\",\"\"Q4\"\":\"\"Da\"\",\"\"Q5\"\":\"\"Da\"\"}\",\"\",\"\",\"\",\"\",\"\",\"\",\"\",\"\",\"\",\"\",\"\",\"\",\"\",\"\",\"\"
\"\",\"\",\"bio\",\"3\",\"190387\",\"0.0-3.0\",\"\",\"{\"\"age\"\":\"\"20\"\",\"\"gender\"\":\"\"f\"\",\"\"specify\"\":\"\"\"\"}\",\"\",\"\",\"\",\"\",\"\",\"\",\"\",\"\",\"\",\"\",\"\",\"\",\"\",\"\",\"\"
\"\",\"\",\"approach-retreat\",\"4\",\"201868\",\"0.0-4.0\",\"\",\"\",\"2-2\",\"9955\",\"39\",\"0\",\"Training\",\"Stims/Figures/27-C-30-1.bmp\",\"fa:sha:va\",\"Left\",\"37\",\"1\",\"1\",\"8\",\"C1\",\"J\",\"1\"
\"\",\"\",\"approach-retreat\",\"5\",\"210559\",\"0.0-5.0\",\"\",\"\",\"2-2\",\"7178\",\"39\",\"0\",\"Training\",\"Stims/Figures/74-J-10-4.bmp\",\"zasaha\",\"Right\",\"37\",\"1\",\"2\",\"8\",\"C2\",\"J\",\"2\"
\"\",\"\",\"approach-retreat\",\"6\",\"218806\",\"0.0-6.0\",\"\",\"\",\"2-2\",\"6715\",\"40\",\"0\",\"Training\",\"Stims/Figures/111-C-30-3.bmp\",\"sa:sa:ha\",\"Up\",\"38\",\"1\",\"3\",\"8\",\"C2\",\"J\",\"3\"
\"\",\"\",\"approach-retreat\",\"7\",\"226712\",\"0.0-7.0\",\"\",\"\",\"2-2\",\"6395\",\"38\",\"1\",\"Training\",\"Stims/Figures/74-C-20-4.bmp\",\"za:ha:ha\",\"Up\",\"38\",\"1\",\"4\",\"8\",\"C2\",\"J\",\"4\"
\"\",\"\",\"approach-retreat\",\"8\",\"234497\",\"0.0-8.0\",\"\",\"\",\"2-2\",\"6274\",\"38\",\"1\",\"Training\",\"Stims/Figures/71-C-30-1.bmp\",\"fa:fa:va\",\"Up\",\"38\",\"1\",\"5\",\"8\",\"C1\",\"J\",\"5\"
\"\",\"\",\"approach-retreat\",\"9\",\"243543\",\"0.0-9.0\",\"\",\"\",\"2-2\",\"7536\",\"40\",\"0\",\"Training\",\"Stims/Figures/19-J-10-4.bmp\",\"za:ha:za\",\"Down\",\"38\",\"1\",\"6\",\"8\",\"C2\",\"J\",\"6\"
\"\",\"\",\"approach-retreat\",\"10\",\"252432\",\"0.0-10.0\",\"\",\"\",\"2-2\",\"7379\",\"40\",\"1\",\"Training\",\"Stims/Figures/144-C-30-3.bmp\",\"zasaza\",\"Down\",\"40\",\"1\",\"7\",\"8\",\"C2\",\"J\",\"7\"
\"\",\"\",\"approach-retreat\",\"11\",\"259779\",\"0.0-11.0\",\"\",\"\",\"2-2\",\"5827\",\"39\",\"0\",\"Training\",\"Stims/Figures/144-J-10-3.bmp\",\"sa:saza\",\"Right\",\"37\",\"1\",\"8\",\"8\",\"C2\",\"J\",\"8\"
\"\",\"\",\"approach-retreat\",\"12\",\"266218\",\"0.0-12.0\",\"\",\"\",\"2-2\",\"4905\",\"37\",\"1\",\"Training\",\"Stims/Figures/94-J-0-2.bmp\",\"fafa:sha\",\"Right\",\"37\",\"1\",\"9\",\"8\",\"C1\",\"J\",\"9\"
\"\",\"\",\"approach-retreat\",\"13\",\"272675\",\"0.0-13.0\",\"\",\"\",\"2-2\",\"4940\",\"37\",\"1\",\"Training\",\"Stims/Figures/19-C-20-4.bmp\",\"zasa:za\",\"Left\",\"37\",\"1\",\"10\",\"8\",\"C2\",\"J\",\"10\"
\"\",\"\",\"approach-retreat\",\"14\",\"279562\",\"0.0-14.0\",\"\",\"\",\"2-2\",\"5360\",\"37\",\"0\",\"Training\",\"Stims/Figures/94-C-20-2.bmp\",\"va:fa:va\",\"Right\",\"39\",\"1\",\"11\",\"8\",\"C1\",\"J\",\"11\"
\"\",\"\",\"approach-retreat\",\"15\",\"286989\",\"0.0-15.0\",\"\",\"\",\"2-2\",\"5894\",\"37\",\"0\",\"Training\",\"Stims/Figures/27-J-0-1.bmp\",\"vafa:sha\",\"Left\",\"39\",\"1\",\"12\",\"8\",\"C1\",\"J\",\"12\"
\"\",\"\",\"approach-retreat\",\"16\",\"300323\",\"0.0-16.0\",\"\",\"\",\"2-2\",\"11810\",\"40\",\"0\",\"Training\",\"Stims/Figures/71-J-0-1.bmp\",\"fa:fa:sha\",\"Down\",\"38\",\"1\",\"13\",\"8\",\"C1\",\"J\",\"13\"
\"\",\"\",\"approach-retreat\",\"17\",\"309671\",\"0.0-17.0\",\"\",\"\",\"2-2\",\"7836\",\"38\",\"0\",\"Training\",\"Stims/Figures/85-J-0-2.bmp\",\"fasha:va\",\"Up\",\"40\",\"1\",\"14\",\"8\",\"C1\",\"J\",\"14\"
\"\",\"\",\"approach-retreat\",\"18\",\"317626\",\"0.0-18.0\",\"\",\"\",\"2-2\",\"6434\",\"39\",\"0\",\"Training\",\"Stims/Figures/85-C-20-2.bmp\",\"fafava\",\"Left\",\"37\",\"1\",\"15\",\"8\",\"C1\",\"J\",\"15\"
\"\",\"\",\"approach-retreat\",\"19\",\"326038\",\"0.0-19.0\",\"\",\"\",\"2-2\",\"6880\",\"40\",\"0\",\"Training\",\"Stims/Figures/111-J-10-3.bmp\",\"za:saha\",\"Down\",\"38\",\"1\",\"16\",\"8\",\"C2\",\"J\",\"16\"
\"\",\"\",\"approach-retreat\",\"20\",\"331912\",\"0.0-20.0\",\"\",\"\",\"2-2\",\"4358\",\"39\",\"0\",\"Training\",\"Stims/Figures/144-C-30-3.bmp\",\"zasaza\",\"Left\",\"37\",\"2\",\"1\",\"8\",\"C2\",\"J\",\"17\"
\"\",\"\",\"approach-retreat\",\"21\",\"338304\",\"0.0-21.0\",\"\",\"\",\"2-2\",\"4860\",\"39\",\"0\",\"Training\",\"Stims/Figures/144-J-10-3.bmp\",\"sa:saza\",\"Right\",\"37\",\"2\",\"2\",\"8\",\"C2\",\"J\",\"18\"
\"\",\"\",\"approach-retreat\",\"22\",\"344253\",\"0.0-22.0\",\"\",\"\",\"2-2\",\"4419\",\"40\",\"0\",\"Training\",\"Stims/Figures/71-C-30-1.bmp\",\"fa:fa:va\",\"Up\",\"38\",\"2\",\"3\",\"8\",\"C1\",\"J\",\"19\"
\"\",\"\",\"approach-retreat\",\"23\",\"350870\",\"0.0-23.0\",\"\",\"\",\"2-2\",\"5095\",\"40\",\"1\",\"Training\",\"Stims/Figures/27-J-0-1.bmp\",\"vafa:sha\",\"Up\",\"40\",\"2\",\"4\",\"8\",\"C1\",\"J\",\"20\"
\"\",\"\",\"approach-retreat\",\"24\",\"358278\",\"0.0-24.0\",\"\",\"\",\"2-2\",\"5888\",\"40\",\"0\",\"Training\",\"Stims/Figures/74-J-10-4.bmp\",\"zasaha\",\"Down\",\"38\",\"2\",\"5\",\"8\",\"C2\",\"J\",\"21\"
\"\",\"\",\"approach-retreat\",\"25\",\"365172\",\"0.0-25.0\",\"\",\"\",\"2-2\",\"5361\",\"37\",\"1\",\"Training\",\"Stims/Figures/71-J-0-1.bmp\",\"fa:fa:sha\",\"Right\",\"37\",\"2\",\"6\",\"8\",\"C1\",\"J\",\"22\"
\"\",\"\",\"approach-retreat\",\"26\",\"371303\",\"0.0-26.0\",\"\",\"\",\"2-2\",\"4599\",\"39\",\"0\",\"Training\",\"Stims/Figures/85-C-20-2.bmp\",\"fafava\",\"Left\",\"37\",\"2\",\"7\",\"8\",\"C1\",\"J\",\"23\"
\"\",\"\",\"approach-retreat\",\"27\",\"377612\",\"0.0-27.0\",\"\",\"\",\"2-2\",\"4776\",\"37\",\"1\",\"Training\",\"Stims/Figures/94-J-0-2.bmp\",\"fafa:sha\",\"Right\",\"37\",\"2\",\"8\",\"8\",\"C1\",\"J\",\"24\"
\"\",\"\",\"approach-retreat\",\"28\",\"385306\",\"0.0-28.0\",\"\",\"\",\"2-2\",\"6165\",\"38\",\"1\",\"Training\",\"Stims/Figures/94-C-20-2.bmp\",\"va:fa:va\",\"Up\",\"38\",\"2\",\"9\",\"8\",\"C1\",\"J\",\"25\"
\"\",\"\",\"approach-retreat\",\"29\",\"391303\",\"0.0-29.0\",\"\",\"\",\"2-2\",\"4489\",\"39\",\"0\",\"Training\",\"Stims/Figures/19-J-10-4.bmp\",\"za:ha:za\",\"Right\",\"37\",\"2\",\"10\",\"8\",\"C2\",\"J\",\"26\"
\"\",\"\",\"approach-retreat\",\"30\",\"404499\",\"0.0-30.0\",\"\",\"\",\"2-2\",\"11686\",\"37\",\"0\",\"Training\",\"Stims/Figures/111-J-10-3.bmp\",\"za:saha\",\"Left\",\"39\",\"2\",\"11\",\"8\",\"C2\",\"J\",\"27\"
\"\",\"\",\"approach-retreat\",\"31\",\"415591\",\"0.0-31.0\",\"\",\"\",\"2-2\",\"9568\",\"39\",\"1\",\"Training\",\"Stims/Figures/85-J-0-2.bmp\",\"fasha:va\",\"Left\",\"39\",\"2\",\"12\",\"8\",\"C1\",\"J\",\"28\"
\"\",\"\",\"approach-retreat\",\"32\",\"423463\",\"0.0-32.0\",\"\",\"\",\"2-2\",\"6343\",\"38\",\"0\",\"Training\",\"Stims/Figures/27-C-30-1.bmp\",\"fa:sha:va\",\"Down\",\"40\",\"2\",\"13\",\"8\",\"C1\",\"J\",\"29\"
\"\",\"\",\"approach-retreat\",\"33\",\"432019\",\"0.0-33.0\",\"\",\"\",\"2-2\",\"7029\",\"38\",\"1\",\"Training\",\"Stims/Figures/111-C-30-3.bmp\",\"sa:sa:ha\",\"Up\",\"38\",\"2\",\"14\",\"8\",\"C2\",\"J\",\"30\"
\"\",\"\",\"approach-retreat\",\"34\",\"439596\",\"0.0-34.0\",\"\",\"\",\"2-2\",\"6044\",\"38\",\"0\",\"Training\",\"Stims/Figures/19-C-20-4.bmp\",\"zasa:za\",\"Down\",\"40\",\"2\",\"15\",\"8\",\"C2\",\"J\",\"31\"
\"\",\"\",\"approach-retreat\",\"35\",\"448183\",\"0.0-35.0\",\"\",\"\",\"2-2\",\"7059\",\"38\",\"0\",\"Training\",\"Stims/Figures/74-C-20-4.bmp\",\"za:ha:ha\",\"Down\",\"40\",\"2\",\"16\",\"8\",\"C2\",\"J\",\"32\"
\"\",\"\",\"approach-retreat\",\"36\",\"456182\",\"0.0-36.0\",\"\",\"\",\"2-2\",\"6466\",\"39\",\"1\",\"Training\",\"Stims/Figures/19-C-20-4.bmp\",\"zasa:za\",\"Right\",\"39\",\"3\",\"1\",\"8\",\"C2\",\"J\",\"33\"
\"\",\"\",\"approach-retreat\",\"37\",\"463502\",\"0.0-37.0\",\"\",\"\",\"2-2\",\"5793\",\"40\",\"0\",\"Training\",\"Stims/Figures/94-C-20-2.bmp\",\"va:fa:va\",\"Up\",\"38\",\"3\",\"2\",\"8\",\"C1\",\"J\",\"34\"
\"\",\"\",\"approach-retreat\",\"38\",\"469719\",\"0.0-38.0\",\"\",\"\",\"2-2\",\"4707\",\"40\",\"1\",\"Training\",\"Stims/Figures/85-J-0-2.bmp\",\"fasha:va\",\"Up\",\"40\",\"3\",\"3\",\"8\",\"C1\",\"J\",\"35\"
\"\",\"\",\"approach-retreat\",\"39\",\"478547\",\"0.0-39.0\",\"\",\"\",\"2-2\",\"7319\",\"38\",\"1\",\"Training\",\"Stims/Figures/27-J-0-1.bmp\",\"vafa:sha\",\"Down\",\"38\",\"3\",\"4\",\"8\",\"C1\",\"J\",\"36\"
\"\",\"\",\"approach-retreat\",\"40\",\"484956\",\"0.0-40.0\",\"\",\"\",\"2-2\",\"4876\",\"37\",\"0\",\"Training\",\"Stims/Figures/19-J-10-4.bmp\",\"za:ha:za\",\"Left\",\"39\",\"3\",\"5\",\"8\",\"C2\",\"J\",\"37\"
\"\",\"\",\"approach-retreat\",\"41\",\"491219\",\"0.0-41.0\",\"\",\"\",\"2-2\",\"4736\",\"39\",\"1\",\"Training\",\"Stims/Figures/74-C-20-4.bmp\",\"za:ha:ha\",\"Right\",\"39\",\"3\",\"6\",\"8\",\"C2\",\"J\",\"38\"
\"\",\"\",\"approach-retreat\",\"42\",\"499663\",\"0.0-42.0\",\"\",\"\",\"2-2\",\"6915\",\"39\",\"1\",\"Training\",\"Stims/Figures/144-C-30-3.bmp\",\"zasaza\",\"Right\",\"39\",\"3\",\"7\",\"8\",\"C2\",\"J\",\"39\"
\"\",\"\",\"approach-retreat\",\"43\",\"505499\",\"0.0-43.0\",\"\",\"\",\"2-2\",\"4303\",\"39\",\"0\",\"Training\",\"Stims/Figures/111-J-10-3.bmp\",\"za:saha\",\"Right\",\"37\",\"3\",\"8\",\"8\",\"C2\",\"J\",\"40\"
\"\",\"\",\"approach-retreat\",\"44\",\"511802\",\"0.0-44.0\",\"\",\"\",\"2-2\",\"4783\",\"38\",\"0\",\"Training\",\"Stims/Figures/27-C-30-1.bmp\",\"fa:sha:va\",\"Down\",\"40\",\"3\",\"9\",\"8\",\"C1\",\"J\",\"41\"
\"\",\"\",\"approach-retreat\",\"45\",\"517854\",\"0.0-45.0\",\"\",\"\",\"2-2\",\"4530\",\"38\",\"0\",\"Training\",\"Stims/Figures/74-J-10-4.bmp\",\"zasaha\",\"Up\",\"40\",\"3\",\"10\",\"8\",\"C2\",\"J\",\"42\"
\"\",\"\",\"approach-retreat\",\"46\",\"523800\",\"0.0-46.0\",\"\",\"\",\"2-2\",\"4415\",\"37\",\"1\",\"Training\",\"Stims/Figures/111-C-30-3.bmp\",\"sa:sa:ha\",\"Left\",\"37\",\"3\",\"11\",\"8\",\"C2\",\"J\",\"43\"
\"\",\"\",\"approach-retreat\",\"47\",\"531739\",\"0.0-47.0\",\"\",\"\",\"2-2\",\"6426\",\"39\",\"0\",\"Training\",\"Stims/Figures/71-C-30-1.bmp\",\"fa:fa:va\",\"Left\",\"37\",\"3\",\"12\",\"8\",\"C1\",\"J\",\"44\"
\"\",\"\",\"approach-retreat\",\"48\",\"538433\",\"0.0-48.0\",\"\",\"\",\"2-2\",\"5161\",\"40\",\"1\",\"Training\",\"Stims/Figures/94-J-0-2.bmp\",\"fafa:sha\",\"Up\",\"40\",\"3\",\"13\",\"8\",\"C1\",\"J\",\"45\"
\"\",\"\",\"approach-retreat\",\"49\",\"544592\",\"0.0-49.0\",\"\",\"\",\"2-2\",\"4626\",\"38\",\"1\",\"Training\",\"Stims/Figures/71-J-0-1.bmp\",\"fa:fa:sha\",\"Down\",\"38\",\"3\",\"14\",\"8\",\"C1\",\"J\",\"46\"
\"\",\"\",\"approach-retreat\",\"50\",\"550477\",\"0.0-50.0\",\"\",\"\",\"2-2\",\"4357\",\"40\",\"1\",\"Training\",\"Stims/Figures/85-C-20-2.bmp\",\"fafava\",\"Down\",\"40\",\"3\",\"15\",\"8\",\"C1\",\"J\",\"47\"
\"\",\"\",\"approach-retreat\",\"51\",\"558398\",\"0.0-51.0\",\"\",\"\",\"2-2\",\"6382\",\"39\",\"1\",\"Training\",\"Stims/Figures/144-J-10-3.bmp\",\"sa:saza\",\"Left\",\"39\",\"3\",\"16\",\"8\",\"C2\",\"J\",\"48\"
\"\",\"\",\"approach-retreat\",\"52\",\"566556\",\"0.0-52.0\",\"\",\"\",\"2-2\",\"6626\",\"37\",\"1\",\"Training\",\"Stims/Figures/71-J-0-1.bmp\",\"fa:fa:sha\",\"Right\",\"37\",\"4\",\"1\",\"8\",\"C1\",\"J\",\"49\"
\"\",\"\",\"approach-retreat\",\"53\",\"576808\",\"0.0-53.0\",\"\",\"\",\"2-2\",\"8720\",\"40\",\"1\",\"Training\",\"Stims/Figures/19-C-20-4.bmp\",\"zasa:za\",\"Down\",\"40\",\"4\",\"2\",\"8\",\"C2\",\"J\",\"50\"
\"\",\"\",\"approach-retreat\",\"54\",\"583466\",\"0.0-54.0\",\"\",\"\",\"2-2\",\"5126\",\"37\",\"0\",\"Training\",\"Stims/Figures/94-J-0-2.bmp\",\"fafa:sha\",\"Left\",\"39\",\"4\",\"3\",\"8\",\"C1\",\"J\",\"51\"
\"\",\"\",\"approach-retreat\",\"55\",\"589307\",\"0.0-55.0\",\"\",\"\",\"2-2\",\"4309\",\"37\",\"1\",\"Training\",\"Stims/Figures/71-C-30-1.bmp\",\"fa:fa:va\",\"Left\",\"37\",\"4\",\"4\",\"8\",\"C1\",\"J\",\"52\"
\"\",\"\",\"approach-retreat\",\"56\",\"600145\",\"0.0-56.0\",\"\",\"\",\"2-2\",\"9306\",\"40\",\"1\",\"Training\",\"Stims/Figures/27-J-0-1.bmp\",\"vafa:sha\",\"Up\",\"40\",\"4\",\"5\",\"8\",\"C1\",\"J\",\"53\"
\"\",\"\",\"approach-retreat\",\"57\",\"608269\",\"0.0-57.0\",\"\",\"\",\"2-2\",\"6592\",\"38\",\"1\",\"Training\",\"Stims/Figures/85-C-20-2.bmp\",\"fafava\",\"Up\",\"38\",\"4\",\"6\",\"8\",\"C1\",\"J\",\"54\"
\"\",\"\",\"approach-retreat\",\"58\",\"615189\",\"0.0-58.0\",\"\",\"\",\"2-2\",\"5386\",\"39\",\"1\",\"Training\",\"Stims/Figures/94-C-20-2.bmp\",\"va:fa:va\",\"Right\",\"39\",\"4\",\"7\",\"8\",\"C1\",\"J\",\"55\"
\"\",\"\",\"approach-retreat\",\"59\",\"621250\",\"0.0-59.0\",\"\",\"\",\"2-2\",\"4535\",\"38\",\"0\",\"Training\",\"Stims/Figures/19-J-10-4.bmp\",\"za:ha:za\",\"Up\",\"40\",\"4\",\"8\",\"8\",\"C2\",\"J\",\"56\"
\"\",\"\",\"approach-retreat\",\"60\",\"627423\",\"0.0-60.0\",\"\",\"\",\"2-2\",\"4639\",\"40\",\"0\",\"Training\",\"Stims/Figures/144-J-10-3.bmp\",\"sa:saza\",\"Down\",\"38\",\"4\",\"9\",\"8\",\"C2\",\"J\",\"57\"
\"\",\"\",\"approach-retreat\",\"61\",\"634172\",\"0.0-61.0\",\"\",\"\",\"2-2\",\"5222\",\"37\",\"0\",\"Training\",\"Stims/Figures/74-J-10-4.bmp\",\"zasaha\",\"Left\",\"39\",\"4\",\"10\",\"8\",\"C2\",\"J\",\"58\"
\"\",\"\",\"approach-retreat\",\"62\",\"641234\",\"0.0-62.0\",\"\",\"\",\"2-2\",\"5534\",\"37\",\"1\",\"Training\",\"Stims/Figures/111-J-10-3.bmp\",\"za:saha\",\"Right\",\"37\",\"4\",\"11\",\"8\",\"C2\",\"J\",\"59\"
\"\",\"\",\"approach-retreat\",\"63\",\"648389\",\"0.0-63.0\",\"\",\"\",\"2-2\",\"5619\",\"40\",\"1\",\"Training\",\"Stims/Figures/144-C-30-3.bmp\",\"zasaza\",\"Down\",\"40\",\"4\",\"12\",\"8\",\"C2\",\"J\",\"60\"
\"\",\"\",\"approach-retreat\",\"64\",\"655351\",\"0.0-64.0\",\"\",\"\",\"2-2\",\"5433\",\"39\",\"0\",\"Training\",\"Stims/Figures/85-J-0-2.bmp\",\"fasha:va\",\"Right\",\"37\",\"4\",\"13\",\"8\",\"C1\",\"J\",\"61\"
\"\",\"\",\"approach-retreat\",\"65\",\"661233\",\"0.0-65.0\",\"\",\"\",\"2-2\",\"4351\",\"38\",\"0\",\"Training\",\"Stims/Figures/74-C-20-4.bmp\",\"za:ha:ha\",\"Down\",\"40\",\"4\",\"14\",\"8\",\"C2\",\"J\",\"62\"
\"\",\"\",\"approach-retreat\",\"66\",\"670786\",\"0.0-66.0\",\"\",\"\",\"2-2\",\"8021\",\"37\",\"1\",\"Training\",\"Stims/Figures/27-C-30-1.bmp\",\"fa:sha:va\",\"Left\",\"37\",\"4\",\"15\",\"8\",\"C1\",\"J\",\"63\"
\"\",\"\",\"approach-retreat\",\"67\",\"676987\",\"0.0-67.0\",\"\",\"\",\"2-2\",\"4671\",\"38\",\"1\",\"Training\",\"Stims/Figures/111-C-30-3.bmp\",\"sa:sa:ha\",\"Up\",\"38\",\"4\",\"16\",\"8\",\"C2\",\"J\",\"64\"
\"\",\"\",\"approach-retreat\",\"68\",\"683138\",\"0.0-68.0\",\"\",\"\",\"2-2\",\"4639\",\"39\",\"1\",\"Training\",\"Stims/Figures/71-C-30-1.bmp\",\"fa:fa:va\",\"Right\",\"39\",\"5\",\"1\",\"8\",\"C1\",\"J\",\"65\"
\"\",\"\",\"approach-retreat\",\"69\",\"689248\",\"0.0-69.0\",\"\",\"\",\"2-2\",\"4581\",\"40\",\"1\",\"Training\",\"Stims/Figures/27-J-0-1.bmp\",\"vafa:sha\",\"Up\",\"40\",\"5\",\"2\",\"8\",\"C1\",\"J\",\"66\"
\"\",\"\",\"approach-retreat\",\"70\",\"695596\",\"0.0-70.0\",\"\",\"\",\"2-2\",\"4819\",\"37\",\"1\",\"Training\",\"Stims/Figures/144-C-30-3.bmp\",\"zasaza\",\"Left\",\"37\",\"5\",\"3\",\"8\",\"C2\",\"J\",\"67\"
\"\",\"\",\"approach-retreat\",\"71\",\"701184\",\"0.0-71.0\",\"\",\"\",\"2-2\",\"4070\",\"39\",\"1\",\"Training\",\"Stims/Figures/144-J-10-3.bmp\",\"sa:saza\",\"Left\",\"39\",\"5\",\"4\",\"8\",\"C2\",\"J\",\"68\"
\"\",\"\",\"approach-retreat\",\"72\",\"707856\",\"0.0-72.0\",\"\",\"\",\"2-2\",\"5158\",\"38\",\"1\",\"Training\",\"Stims/Figures/74-J-10-4.bmp\",\"zasaha\",\"Down\",\"38\",\"5\",\"5\",\"8\",\"C2\",\"J\",\"69\"
\"\",\"\",\"approach-retreat\",\"73\",\"714070\",\"0.0-73.0\",\"\",\"\",\"2-2\",\"4688\",\"39\",\"0\",\"Training\",\"Stims/Figures/85-J-0-2.bmp\",\"fasha:va\",\"Right\",\"37\",\"5\",\"6\",\"8\",\"C1\",\"J\",\"70\"
\"\",\"\",\"approach-retreat\",\"74\",\"719812\",\"0.0-74.0\",\"\",\"\",\"2-2\",\"4234\",\"40\",\"1\",\"Training\",\"Stims/Figures/94-C-20-2.bmp\",\"va:fa:va\",\"Down\",\"40\",\"5\",\"7\",\"8\",\"C1\",\"J\",\"71\"
\"\",\"\",\"approach-retreat\",\"75\",\"729474\",\"0.0-75.0\",\"\",\"\",\"2-2\",\"8130\",\"38\",\"1\",\"Training\",\"Stims/Figures/74-C-20-4.bmp\",\"za:ha:ha\",\"Up\",\"38\",\"5\",\"8\",\"8\",\"C2\",\"J\",\"72\"
\"\",\"\",\"approach-retreat\",\"76\",\"735755\",\"0.0-76.0\",\"\",\"\",\"2-2\",\"4746\",\"38\",\"1\",\"Training\",\"Stims/Figures/111-J-10-3.bmp\",\"za:saha\",\"Down\",\"38\",\"5\",\"9\",\"8\",\"C2\",\"J\",\"73\"
\"\",\"\",\"approach-retreat\",\"77\",\"741801\",\"0.0-77.0\",\"\",\"\",\"2-2\",\"4521\",\"37\",\"1\",\"Training\",\"Stims/Figures/19-J-10-4.bmp\",\"za:ha:za\",\"Right\",\"37\",\"5\",\"10\",\"8\",\"C2\",\"J\",\"74\"
\"\",\"\",\"approach-retreat\",\"78\",\"748166\",\"0.0-78.0\",\"\",\"\",\"2-2\",\"4843\",\"40\",\"1\",\"Training\",\"Stims/Figures/71-J-0-1.bmp\",\"fa:fa:sha\",\"Up\",\"40\",\"5\",\"11\",\"8\",\"C1\",\"J\",\"75\"
\"\",\"\",\"approach-retreat\",\"79\",\"754208\",\"0.0-79.0\",\"\",\"\",\"2-2\",\"4510\",\"37\",\"1\",\"Training\",\"Stims/Figures/27-C-30-1.bmp\",\"fa:sha:va\",\"Left\",\"37\",\"5\",\"12\",\"8\",\"C1\",\"J\",\"76\"
\"\",\"\",\"approach-retreat\",\"80\",\"761556\",\"0.0-80.0\",\"\",\"\",\"2-2\",\"5814\",\"39\",\"1\",\"Training\",\"Stims/Figures/94-J-0-2.bmp\",\"fafa:sha\",\"Left\",\"39\",\"5\",\"13\",\"8\",\"C1\",\"J\",\"77\"
\"\",\"\",\"approach-retreat\",\"81\",\"769841\",\"0.0-81.0\",\"\",\"\",\"2-2\",\"6751\",\"40\",\"0\",\"Training\",\"Stims/Figures/111-C-30-3.bmp\",\"sa:sa:ha\",\"Up\",\"38\",\"5\",\"14\",\"8\",\"C2\",\"J\",\"78\"
\"\",\"\",\"approach-retreat\",\"82\",\"778785\",\"0.0-82.0\",\"\",\"\",\"2-2\",\"7411\",\"38\",\"0\",\"Training\",\"Stims/Figures/19-C-20-4.bmp\",\"zasa:za\",\"Down\",\"40\",\"5\",\"15\",\"8\",\"C2\",\"J\",\"79\"
\"\",\"\",\"approach-retreat\",\"83\",\"785466\",\"0.0-83.0\",\"\",\"\",\"2-2\",\"5160\",\"37\",\"0\",\"Training\",\"Stims/Figures/85-C-20-2.bmp\",\"fafava\",\"Right\",\"39\",\"5\",\"16\",\"8\",\"C1\",\"J\",\"80\"
\"\",\"\",\"approach-retreat\",\"84\",\"791184\",\"0.0-84.0\",\"\",\"\",\"2-2\",\"4191\",\"39\",\"1\",\"Training\",\"Stims/Figures/74-C-20-4.bmp\",\"za:ha:ha\",\"Right\",\"39\",\"6\",\"1\",\"8\",\"C2\",\"J\",\"81\"
\"\",\"\",\"approach-retreat\",\"85\",\"797018\",\"0.0-85.0\",\"\",\"\",\"2-2\",\"4326\",\"37\",\"1\",\"Training\",\"Stims/Figures/144-J-10-3.bmp\",\"sa:saza\",\"Right\",\"37\",\"6\",\"2\",\"8\",\"C2\",\"J\",\"82\"
\"\",\"\",\"approach-retreat\",\"86\",\"804227\",\"0.0-86.0\",\"\",\"\",\"2-2\",\"5680\",\"40\",\"1\",\"Training\",\"Stims/Figures/85-C-20-2.bmp\",\"fafava\",\"Down\",\"40\",\"6\",\"3\",\"8\",\"C1\",\"J\",\"83\"
\"\",\"\",\"approach-retreat\",\"87\",\"811669\",\"0.0-87.0\",\"\",\"\",\"2-2\",\"5911\",\"40\",\"1\",\"Training\",\"Stims/Figures/71-J-0-1.bmp\",\"fa:fa:sha\",\"Up\",\"40\",\"6\",\"4\",\"8\",\"C1\",\"J\",\"84\"
\"\",\"\",\"approach-retreat\",\"88\",\"818224\",\"0.0-88.0\",\"\",\"\",\"2-2\",\"5024\",\"38\",\"1\",\"Training\",\"Stims/Figures/94-J-0-2.bmp\",\"fafa:sha\",\"Down\",\"38\",\"6\",\"5\",\"8\",\"C1\",\"J\",\"85\"
\"\",\"\",\"approach-retreat\",\"89\",\"824080\",\"0.0-89.0\",\"\",\"\",\"2-2\",\"4330\",\"39\",\"1\",\"Training\",\"Stims/Figures/74-J-10-4.bmp\",\"zasaha\",\"Left\",\"39\",\"6\",\"6\",\"8\",\"C2\",\"J\",\"86\"
\"\",\"\",\"approach-retreat\",\"90\",\"830120\",\"0.0-90.0\",\"\",\"\",\"2-2\",\"4529\",\"39\",\"0\",\"Training\",\"Stims/Figures/19-C-20-4.bmp\",\"zasa:za\",\"Left\",\"37\",\"6\",\"7\",\"8\",\"C2\",\"J\",\"87\"
\"\",\"\",\"approach-retreat\",\"91\",\"836767\",\"0.0-91.0\",\"\",\"\",\"2-2\",\"5117\",\"39\",\"0\",\"Training\",\"Stims/Figures/111-C-30-3.bmp\",\"sa:sa:ha\",\"Left\",\"37\",\"6\",\"8\",\"8\",\"C2\",\"J\",\"88\"
\"\",\"\",\"approach-retreat\",\"92\",\"843889\",\"0.0-92.0\",\"\",\"\",\"2-2\",\"5587\",\"38\",\"0\",\"Training\",\"Stims/Figures/94-C-20-2.bmp\",\"va:fa:va\",\"Down\",\"40\",\"6\",\"9\",\"8\",\"C1\",\"J\",\"89\"
\"\",\"\",\"approach-retreat\",\"93\",\"853897\",\"0.0-93.0\",\"\",\"\",\"2-2\",\"8477\",\"39\",\"1\",\"Training\",\"Stims/Figures/111-J-10-3.bmp\",\"za:saha\",\"Left\",\"39\",\"6\",\"10\",\"8\",\"C2\",\"J\",\"90\"
\"\",\"\",\"approach-retreat\",\"94\",\"859667\",\"0.0-94.0\",\"\",\"\",\"2-2\",\"4238\",\"38\",\"0\",\"Training\",\"Stims/Figures/85-J-0-2.bmp\",\"fasha:va\",\"Up\",\"40\",\"6\",\"11\",\"8\",\"C1\",\"J\",\"91\"
\"\",\"\",\"approach-retreat\",\"95\",\"866116\",\"0.0-95.0\",\"\",\"\",\"2-2\",\"4916\",\"39\",\"0\",\"Training\",\"Stims/Figures/27-J-0-1.bmp\",\"vafa:sha\",\"Right\",\"37\",\"6\",\"12\",\"8\",\"C1\",\"J\",\"92\"
\"\",\"\",\"approach-retreat\",\"96\",\"873709\",\"0.0-96.0\",\"\",\"\",\"2-2\",\"6063\",\"40\",\"1\",\"Training\",\"Stims/Figures/144-C-30-3.bmp\",\"zasaza\",\"Down\",\"40\",\"6\",\"13\",\"8\",\"C2\",\"J\",\"93\"
\"\",\"\",\"approach-retreat\",\"97\",\"881587\",\"0.0-97.0\",\"\",\"\",\"2-2\",\"6345\",\"39\",\"1\",\"Training\",\"Stims/Figures/71-C-30-1.bmp\",\"fa:fa:va\",\"Right\",\"39\",\"6\",\"14\",\"8\",\"C1\",\"J\",\"94\"
\"\",\"\",\"approach-retreat\",\"98\",\"889194\",\"0.0-98.0\",\"\",\"\",\"2-2\",\"6075\",\"40\",\"1\",\"Training\",\"Stims/Figures/19-J-10-4.bmp\",\"za:ha:za\",\"Up\",\"40\",\"6\",\"15\",\"8\",\"C2\",\"J\",\"95\"
\"\",\"\",\"approach-retreat\",\"99\",\"897655\",\"0.0-99.0\",\"\",\"\",\"2-2\",\"6930\",\"38\",\"1\",\"Training\",\"Stims/Figures/27-C-30-1.bmp\",\"fa:sha:va\",\"Up\",\"38\",\"6\",\"16\",\"8\",\"C1\",\"J\",\"96\"
\"\",\"\",\"approach-retreat\",\"100\",\"903437\",\"0.0-100.0\",\"\",\"\",\"2-2\",\"4252\",\"37\",\"1\",\"Training\",\"Stims/Figures/85-C-20-2.bmp\",\"fafava\",\"Left\",\"37\",\"7\",\"1\",\"8\",\"C1\",\"J\",\"97\"
\"\",\"\",\"approach-retreat\",\"101\",\"909291\",\"0.0-101.0\",\"\",\"\",\"2-2\",\"4336\",\"37\",\"0\",\"Training\",\"Stims/Figures/27-C-30-1.bmp\",\"fa:sha:va\",\"Right\",\"39\",\"7\",\"2\",\"8\",\"C1\",\"J\",\"98\"
\"\",\"\",\"approach-retreat\",\"102\",\"915581\",\"0.0-102.0\",\"\",\"\",\"2-2\",\"4758\",\"37\",\"0\",\"Training\",\"Stims/Figures/144-C-30-3.bmp\",\"zasaza\",\"Right\",\"39\",\"7\",\"3\",\"8\",\"C2\",\"J\",\"99\"
\"\",\"\",\"approach-retreat\",\"103\",\"922219\",\"0.0-103.0\",\"\",\"\",\"2-2\",\"5107\",\"39\",\"1\",\"Training\",\"Stims/Figures/27-J-0-1.bmp\",\"vafa:sha\",\"Left\",\"39\",\"7\",\"4\",\"8\",\"C1\",\"J\",\"100\"
\"\",\"\",\"approach-retreat\",\"104\",\"928058\",\"0.0-104.0\",\"\",\"\",\"2-2\",\"4306\",\"40\",\"1\",\"Training\",\"Stims/Figures/144-J-10-3.bmp\",\"sa:saza\",\"Up\",\"40\",\"7\",\"5\",\"8\",\"C2\",\"J\",\"101\"
\"\",\"\",\"approach-retreat\",\"105\",\"933929\",\"0.0-105.0\",\"\",\"\",\"2-2\",\"4347\",\"40\",\"1\",\"Training\",\"Stims/Figures/74-J-10-4.bmp\",\"zasaha\",\"Up\",\"40\",\"7\",\"6\",\"8\",\"C2\",\"J\",\"102\"
\"\",\"\",\"approach-retreat\",\"106\",\"940119\",\"0.0-106.0\",\"\",\"\",\"2-2\",\"4661\",\"40\",\"1\",\"Training\",\"Stims/Figures/94-J-0-2.bmp\",\"fafa:sha\",\"Up\",\"40\",\"7\",\"7\",\"8\",\"C1\",\"J\",\"103\"
\"\",\"\",\"approach-retreat\",\"107\",\"946479\",\"0.0-107.0\",\"\",\"\",\"2-2\",\"4826\",\"40\",\"1\",\"Training\",\"Stims/Figures/71-C-30-1.bmp\",\"fa:fa:va\",\"Down\",\"40\",\"7\",\"8\",\"8\",\"C1\",\"J\",\"104\"
\"\",\"\",\"approach-retreat\",\"108\",\"953383\",\"0.0-108.0\",\"\",\"\",\"2-2\",\"5380\",\"37\",\"1\",\"Training\",\"Stims/Figures/111-C-30-3.bmp\",\"sa:sa:ha\",\"Left\",\"37\",\"7\",\"9\",\"8\",\"C2\",\"J\",\"105\"
\"\",\"\",\"approach-retreat\",\"109\",\"962884\",\"0.0-109.0\",\"\",\"\",\"2-2\",\"7966\",\"38\",\"1\",\"Training\",\"Stims/Figures/19-J-10-4.bmp\",\"za:ha:za\",\"Down\",\"38\",\"7\",\"10\",\"8\",\"C2\",\"J\",\"106\"
\"\",\"\",\"approach-retreat\",\"110\",\"969778\",\"0.0-110.0\",\"\",\"\",\"2-2\",\"5366\",\"39\",\"0\",\"Training\",\"Stims/Figures/85-J-0-2.bmp\",\"fasha:va\",\"Right\",\"37\",\"7\",\"11\",\"8\",\"C1\",\"J\",\"107\"
\"\",\"\",\"approach-retreat\",\"111\",\"976258\",\"0.0-111.0\",\"\",\"\",\"2-2\",\"4948\",\"39\",\"1\",\"Training\",\"Stims/Figures/94-C-20-2.bmp\",\"va:fa:va\",\"Right\",\"39\",\"7\",\"12\",\"8\",\"C1\",\"J\",\"108\"
\"\",\"\",\"approach-retreat\",\"112\",\"982126\",\"0.0-112.0\",\"\",\"\",\"2-2\",\"4339\",\"38\",\"1\",\"Training\",\"Stims/Figures/71-J-0-1.bmp\",\"fa:fa:sha\",\"Down\",\"38\",\"7\",\"13\",\"8\",\"C1\",\"J\",\"109\"
\"\",\"\",\"approach-retreat\",\"113\",\"988119\",\"0.0-113.0\",\"\",\"\",\"2-2\",\"4474\",\"40\",\"0\",\"Training\",\"Stims/Figures/111-J-10-3.bmp\",\"za:saha\",\"Down\",\"38\",\"7\",\"14\",\"8\",\"C2\",\"J\",\"110\"
\"\",\"\",\"approach-retreat\",\"114\",\"993946\",\"0.0-114.0\",\"\",\"\",\"2-2\",\"4295\",\"37\",\"1\",\"Training\",\"Stims/Figures/74-C-20-4.bmp\",\"za:ha:ha\",\"Left\",\"37\",\"7\",\"15\",\"8\",\"C2\",\"J\",\"111\"
\"\",\"\",\"approach-retreat\",\"115\",\"1000030\",\"0.0-115.0\",\"\",\"\",\"2-2\",\"4553\",\"40\",\"0\",\"Training\",\"Stims/Figures/19-C-20-4.bmp\",\"zasa:za\",\"Up\",\"38\",\"7\",\"16\",\"8\",\"C2\",\"J\",\"112\"
\"\",\"\",\"approach-retreat\",\"116\",\"1005839\",\"0.0-116.0\",\"\",\"\",\"2-2\",\"4279\",\"39\",\"0\",\"Training\",\"Stims/Figures/111-C-30-3.bmp\",\"sa:sa:ha\",\"Left\",\"37\",\"8\",\"1\",\"8\",\"C2\",\"J\",\"113\"
\"\",\"\",\"approach-retreat\",\"117\",\"1011814\",\"0.0-117.0\",\"\",\"\",\"2-2\",\"4446\",\"37\",\"1\",\"Training\",\"Stims/Figures/19-J-10-4.bmp\",\"za:ha:za\",\"Right\",\"37\",\"8\",\"2\",\"8\",\"C2\",\"J\",\"114\"
\"\",\"\",\"approach-retreat\",\"118\",\"1018678\",\"0.0-118.0\",\"\",\"\",\"2-2\",\"5337\",\"37\",\"0\",\"Training\",\"Stims/Figures/144-C-30-3.bmp\",\"zasaza\",\"Right\",\"39\",\"8\",\"3\",\"8\",\"C2\",\"J\",\"115\"
\"\",\"\",\"approach-retreat\",\"119\",\"1024585\",\"0.0-119.0\",\"\",\"\",\"2-2\",\"4376\",\"40\",\"0\",\"Training\",\"Stims/Figures/85-J-0-2.bmp\",\"fasha:va\",\"Down\",\"38\",\"8\",\"4\",\"8\",\"C1\",\"J\",\"116\"
\"\",\"\",\"approach-retreat\",\"120\",\"1035355\",\"0.0-120.0\",\"\",\"\",\"2-2\",\"9238\",\"38\",\"1\",\"Training\",\"Stims/Figures/94-C-20-2.bmp\",\"va:fa:va\",\"Up\",\"38\",\"8\",\"5\",\"8\",\"C1\",\"J\",\"117\"
\"\",\"\",\"approach-retreat\",\"121\",\"1042961\",\"0.0-121.0\",\"\",\"\",\"2-2\",\"6081\",\"39\",\"1\",\"Training\",\"Stims/Figures/71-C-30-1.bmp\",\"fa:fa:va\",\"Right\",\"39\",\"8\",\"6\",\"8\",\"C1\",\"J\",\"118\"
\"\",\"\",\"approach-retreat\",\"122\",\"1049018\",\"0.0-122.0\",\"\",\"\",\"2-2\",\"4525\",\"37\",\"0\",\"Training\",\"Stims/Figures/111-J-10-3.bmp\",\"za:saha\",\"Left\",\"39\",\"8\",\"7\",\"8\",\"C2\",\"J\",\"119\"
\"\",\"\",\"approach-retreat\",\"123\",\"1057899\",\"0.0-123.0\",\"\",\"\",\"2-2\",\"7357\",\"39\",\"0\",\"Training\",\"Stims/Figures/144-J-10-3.bmp\",\"sa:saza\",\"Right\",\"37\",\"8\",\"8\",\"8\",\"C2\",\"J\",\"120\"
\"\",\"\",\"approach-retreat\",\"124\",\"1063832\",\"0.0-124.0\",\"\",\"\",\"2-2\",\"4402\",\"39\",\"1\",\"Training\",\"Stims/Figures/71-J-0-1.bmp\",\"fa:fa:sha\",\"Left\",\"39\",\"8\",\"9\",\"8\",\"C1\",\"J\",\"121\"
\"\",\"\",\"approach-retreat\",\"125\",\"1071013\",\"0.0-125.0\",\"\",\"\",\"2-2\",\"5653\",\"38\",\"0\",\"Training\",\"Stims/Figures/27-J-0-1.bmp\",\"vafa:sha\",\"Up\",\"40\",\"8\",\"10\",\"8\",\"C1\",\"J\",\"122\"
\"\",\"\",\"approach-retreat\",\"126\",\"1077021\",\"0.0-126.0\",\"\",\"\",\"2-2\",\"4477\",\"39\",\"1\",\"Training\",\"Stims/Figures/74-J-10-4.bmp\",\"zasaha\",\"Left\",\"39\",\"8\",\"11\",\"8\",\"C2\",\"J\",\"123\"
\"\",\"\",\"approach-retreat\",\"127\",\"1082852\",\"0.0-127.0\",\"\",\"\",\"2-2\",\"4299\",\"40\",\"1\",\"Training\",\"Stims/Figures/85-C-20-2.bmp\",\"fafava\",\"Down\",\"40\",\"8\",\"12\",\"8\",\"C1\",\"J\",\"124\"
\"\",\"\",\"approach-retreat\",\"128\",\"1089586\",\"0.0-128.0\",\"\",\"\",\"2-2\",\"5205\",\"38\",\"1\",\"Training\",\"Stims/Figures/19-C-20-4.bmp\",\"zasa:za\",\"Up\",\"38\",\"8\",\"13\",\"8\",\"C2\",\"J\",\"125\"
\"\",\"\",\"approach-retreat\",\"129\",\"1100002\",\"0.0-129.0\",\"\",\"\",\"2-2\",\"8885\",\"40\",\"1\",\"Training\",\"Stims/Figures/74-C-20-4.bmp\",\"za:ha:ha\",\"Down\",\"40\",\"8\",\"14\",\"8\",\"C2\",\"J\",\"126\"
\"\",\"\",\"approach-retreat\",\"130\",\"1105734\",\"0.0-130.0\",\"\",\"\",\"2-2\",\"4202\",\"38\",\"1\",\"Training\",\"Stims/Figures/94-J-0-2.bmp\",\"fafa:sha\",\"Down\",\"38\",\"8\",\"15\",\"8\",\"C1\",\"J\",\"127\"
\"\",\"\",\"approach-retreat\",\"131\",\"1112459\",\"0.0-131.0\",\"\",\"\",\"2-2\",\"5193\",\"40\",\"0\",\"Training\",\"Stims/Figures/27-C-30-1.bmp\",\"fa:sha:va\",\"Up\",\"38\",\"8\",\"16\",\"8\",\"C1\",\"J\",\"128\"
\"\",\"\",\"approach-retreat\",\"132\",\"1118643\",\"0.0-132.0\",\"\",\"\",\"2-2\",\"4670\",\"37\",\"1\",\"Training\",\"Stims/Figures/19-C-20-4.bmp\",\"zasa:za\",\"Left\",\"37\",\"9\",\"1\",\"8\",\"C2\",\"J\",\"129\"
\"\",\"\",\"approach-retreat\",\"133\",\"1126353\",\"0.0-133.0\",\"\",\"\",\"2-2\",\"6201\",\"40\",\"1\",\"Training\",\"Stims/Figures/94-J-0-2.bmp\",\"fafa:sha\",\"Up\",\"40\",\"9\",\"2\",\"8\",\"C1\",\"J\",\"130\"
\"\",\"\",\"approach-retreat\",\"134\",\"1132272\",\"0.0-134.0\",\"\",\"\",\"2-2\",\"4411\",\"40\",\"1\",\"Training\",\"Stims/Figures/94-C-20-2.bmp\",\"va:fa:va\",\"Down\",\"40\",\"9\",\"3\",\"8\",\"C1\",\"J\",\"131\"
\"\",\"\",\"approach-retreat\",\"135\",\"1139476\",\"0.0-135.0\",\"\",\"\",\"2-2\",\"5697\",\"37\",\"1\",\"Training\",\"Stims/Figures/71-J-0-1.bmp\",\"fa:fa:sha\",\"Right\",\"37\",\"9\",\"4\",\"8\",\"C1\",\"J\",\"132\"
\"\",\"\",\"approach-retreat\",\"136\",\"1145277\",\"0.0-136.0\",\"\",\"\",\"2-2\",\"4293\",\"38\",\"1\",\"Training\",\"Stims/Figures/74-J-10-4.bmp\",\"zasaha\",\"Down\",\"38\",\"9\",\"5\",\"8\",\"C2\",\"J\",\"133\"
\"\",\"\",\"approach-retreat\",\"137\",\"1152448\",\"0.0-137.0\",\"\",\"\",\"2-2\",\"5662\",\"38\",\"1\",\"Training\",\"Stims/Figures/27-J-0-1.bmp\",\"vafa:sha\",\"Down\",\"38\",\"9\",\"6\",\"8\",\"C1\",\"J\",\"134\"
\"\",\"\",\"approach-retreat\",\"138\",\"1158181\",\"0.0-138.0\",\"\",\"\",\"2-2\",\"4225\",\"39\",\"1\",\"Training\",\"Stims/Figures/71-C-30-1.bmp\",\"fa:fa:va\",\"Right\",\"39\",\"9\",\"7\",\"8\",\"C1\",\"J\",\"135\"
\"\",\"\",\"approach-retreat\",\"139\",\"1164317\",\"0.0-139.0\",\"\",\"\",\"2-2\",\"4626\",\"38\",\"1\",\"Training\",\"Stims/Figures/85-C-20-2.bmp\",\"fafava\",\"Up\",\"38\",\"9\",\"8\",\"8\",\"C1\",\"J\",\"136\"
\"\",\"\",\"approach-retreat\",\"140\",\"1170704\",\"0.0-140.0\",\"\",\"\",\"2-2\",\"4879\",\"39\",\"0\",\"Training\",\"Stims/Figures/19-J-10-4.bmp\",\"za:ha:za\",\"Right\",\"37\",\"9\",\"9\",\"8\",\"C2\",\"J\",\"137\"
\"\",\"\",\"approach-retreat\",\"141\",\"1177273\",\"0.0-141.0\",\"\",\"\",\"2-2\",\"5052\",\"37\",\"0\",\"Training\",\"Stims/Figures/111-C-30-3.bmp\",\"sa:sa:ha\",\"Right\",\"39\",\"9\",\"10\",\"8\",\"C2\",\"J\",\"138\"
\"\",\"\",\"approach-retreat\",\"142\",\"1183434\",\"0.0-142.0\",\"\",\"\",\"2-2\",\"4653\",\"40\",\"1\",\"Training\",\"Stims/Figures/74-C-20-4.bmp\",\"za:ha:ha\",\"Down\",\"40\",\"9\",\"11\",\"8\",\"C2\",\"J\",\"139\"
\"\",\"\",\"approach-retreat\",\"143\",\"1189262\",\"0.0-143.0\",\"\",\"\",\"2-2\",\"4320\",\"37\",\"1\",\"Training\",\"Stims/Figures/144-C-30-3.bmp\",\"zasaza\",\"Left\",\"37\",\"9\",\"12\",\"8\",\"C2\",\"J\",\"140\"
\"\",\"\",\"approach-retreat\",\"144\",\"1196376\",\"0.0-144.0\",\"\",\"\",\"2-2\",\"5606\",\"38\",\"0\",\"Training\",\"Stims/Figures/144-J-10-3.bmp\",\"sa:saza\",\"Up\",\"40\",\"9\",\"13\",\"8\",\"C2\",\"J\",\"141\"
\"\",\"\",\"approach-retreat\",\"145\",\"1204639\",\"0.0-145.0\",\"\",\"\",\"2-2\",\"6754\",\"37\",\"0\",\"Training\",\"Stims/Figures/85-J-0-2.bmp\",\"fasha:va\",\"Left\",\"39\",\"9\",\"14\",\"8\",\"C1\",\"J\",\"142\"
\"\",\"\",\"approach-retreat\",\"146\",\"1210925\",\"0.0-146.0\",\"\",\"\",\"2-2\",\"4754\",\"40\",\"0\",\"Training\",\"Stims/Figures/27-C-30-1.bmp\",\"fa:sha:va\",\"Up\",\"38\",\"9\",\"15\",\"8\",\"C1\",\"J\",\"143\"
\"\",\"\",\"approach-retreat\",\"147\",\"1222838\",\"0.0-147.0\",\"\",\"\",\"2-2\",\"10382\",\"37\",\"0\",\"Training\",\"Stims/Figures/111-J-10-3.bmp\",\"za:saha\",\"Left\",\"39\",\"9\",\"16\",\"8\",\"C2\",\"J\",\"144\"
\"38090\",\"\",\"instructions\",\"148\",\"1260928\",\"0.0-148.0\",\"[{\"\"page_index\"\":0,\"\"viewing_time\"\":38088}]\",\"\",\"\",\"\",\"\",\"\",\"\",\"\",\"\",\"\",\"\",\"\",\"\",\"\",\"\",\"\",\"\"
\"\",\"\",\"approach-retreat\",\"149\",\"1268538\",\"0.0-149.0\",\"\",\"\",\"2-2\",\"6100\",\"39\",\"0\",\"Testing\",\"Stims/Figures/111-J-10-3.bmp\",\"za:saha\",\"Right\",\"37\",\"1\",\"1\",\"8\",\"C2\",\"J\",\"1\"
\"\",\"\",\"approach-retreat\",\"150\",\"1277000\",\"0.0-150.0\",\"\",\"\",\"2-2\",\"6944\",\"37\",\"0\",\"Testing\",\"Stims/Figures/128-J-10-3.bmp\",\"sa:sa:za\",\"Left\",\"39\",\"1\",\"2\",\"8\",\"C2\",\"J\",\"2\"
\"\",\"\",\"approach-retreat\",\"151\",\"1285864\",\"0.0-151.0\",\"\",\"\",\"2-2\",\"7339\",\"40\",\"1\",\"Testing\",\"Stims/Figures/84-C-20-2.bmp\",\"fa:fasha\",\"Down\",\"40\",\"1\",\"3\",\"8\",\"C1\",\"J\",\"3\"
\"\",\"\",\"approach-retreat\",\"152\",\"1291629\",\"0.0-152.0\",\"\",\"\",\"2-2\",\"4241\",\"39\",\"0\",\"Testing\",\"Stims/Figures/19-J-10-4.bmp\",\"za:ha:za\",\"Right\",\"37\",\"1\",\"4\",\"8\",\"C2\",\"J\",\"4\"
\"\",\"\",\"approach-retreat\",\"153\",\"1297255\",\"0.0-153.0\",\"\",\"\",\"2-2\",\"4098\",\"37\",\"1\",\"Testing\",\"Stims/Figures/144-J-10-3.bmp\",\"sa:saza\",\"Right\",\"37\",\"1\",\"5\",\"8\",\"C2\",\"J\",\"5\"
\"\",\"\",\"approach-retreat\",\"154\",\"1304823\",\"0.0-154.0\",\"\",\"\",\"2-2\",\"6044\",\"37\",\"1\",\"Testing\",\"Stims/Figures/57-C-30-1.bmp\",\"fasha:sha\",\"Left\",\"37\",\"1\",\"6\",\"8\",\"C1\",\"J\",\"6\"
\"\",\"\",\"approach-retreat\",\"155\",\"1310634\",\"0.0-155.0\",\"\",\"\",\"2-2\",\"4286\",\"40\",\"0\",\"Testing\",\"Stims/Figures/111-C-30-3.bmp\",\"sa:sa:ha\",\"Up\",\"38\",\"1\",\"7\",\"8\",\"C2\",\"J\",\"7\"
\"\",\"\",\"approach-retreat\",\"156\",\"1317029\",\"0.0-156.0\",\"\",\"\",\"2-2\",\"4884\",\"37\",\"1\",\"Testing\",\"Stims/Figures/84-J-0-2.bmp\",\"va:shava\",\"Right\",\"37\",\"1\",\"8\",\"8\",\"C1\",\"J\",\"8\"
\"\",\"\",\"approach-retreat\",\"157\",\"1324668\",\"0.0-157.0\",\"\",\"\",\"2-2\",\"6131\",\"39\",\"0\",\"Testing\",\"Stims/Figures/71-C-30-1.bmp\",\"fa:fa:va\",\"Left\",\"37\",\"1\",\"9\",\"8\",\"C1\",\"J\",\"9\"
\"\",\"\",\"approach-retreat\",\"158\",\"1330395\",\"0.0-158.0\",\"\",\"\",\"2-2\",\"4221\",\"40\",\"0\",\"Testing\",\"Stims/Figures/94-J-0-2.bmp\",\"fafa:sha\",\"Down\",\"38\",\"1\",\"10\",\"8\",\"C1\",\"J\",\"10\"
\"\",\"\",\"approach-retreat\",\"159\",\"1336504\",\"0.0-159.0\",\"\",\"\",\"2-2\",\"4604\",\"38\",\"0\",\"Testing\",\"Stims/Figures/94-C-20-2.bmp\",\"va:fa:va\",\"Down\",\"40\",\"1\",\"11\",\"8\",\"C1\",\"J\",\"11\"
\"\",\"\",\"approach-retreat\",\"160\",\"1342581\",\"0.0-160.0\",\"\",\"\",\"2-2\",\"4569\",\"39\",\"1\",\"Testing\",\"Stims/Figures/7-C-20-4.bmp\",\"sa:haza\",\"Right\",\"39\",\"1\",\"12\",\"8\",\"C2\",\"J\",\"12\"
\"\",\"\",\"approach-retreat\",\"161\",\"1348407\",\"0.0-161.0\",\"\",\"\",\"2-2\",\"4319\",\"40\",\"1\",\"Testing\",\"Stims/Figures/71-J-0-1.bmp\",\"fa:fa:sha\",\"Up\",\"40\",\"1\",\"13\",\"8\",\"C1\",\"J\",\"13\"
\"\",\"\",\"approach-retreat\",\"162\",\"1354130\",\"0.0-162.0\",\"\",\"\",\"2-2\",\"4215\",\"38\",\"0\",\"Testing\",\"Stims/Figures/57-J-0-1.bmp\",\"vasha:sha\",\"Up\",\"40\",\"1\",\"14\",\"8\",\"C1\",\"J\",\"14\"
\"\",\"\",\"approach-retreat\",\"163\",\"1361852\",\"0.0-163.0\",\"\",\"\",\"2-2\",\"6215\",\"38\",\"1\",\"Testing\",\"Stims/Figures/19-C-20-4.bmp\",\"zasa:za\",\"Up\",\"38\",\"1\",\"15\",\"8\",\"C2\",\"J\",\"15\"
\"\",\"\",\"approach-retreat\",\"164\",\"1367562\",\"0.0-164.0\",\"\",\"\",\"2-2\",\"4203\",\"39\",\"0\",\"Testing\",\"Stims/Figures/128-C-30-3.bmp\",\"sahaza\",\"Left\",\"37\",\"1\",\"16\",\"8\",\"C2\",\"J\",\"16\"
\"\",\"\",\"approach-retreat\",\"165\",\"1375832\",\"0.0-165.0\",\"\",\"\",\"2-2\",\"6762\",\"40\",\"0\",\"Testing\",\"Stims/Figures/74-C-20-4.bmp\",\"za:ha:ha\",\"Up\",\"38\",\"1\",\"17\",\"8\",\"C2\",\"J\",\"17\"
\"\",\"\",\"approach-retreat\",\"166\",\"1381686\",\"0.0-166.0\",\"\",\"\",\"2-2\",\"4347\",\"37\",\"1\",\"Testing\",\"Stims/Figures/85-J-0-2.bmp\",\"fasha:va\",\"Right\",\"37\",\"1\",\"18\",\"8\",\"C1\",\"J\",\"18\"
\"\",\"\",\"approach-retreat\",\"167\",\"1387379\",\"0.0-167.0\",\"\",\"\",\"2-2\",\"4183\",\"38\",\"0\",\"Testing\",\"Stims/Figures/144-C-30-3.bmp\",\"zasaza\",\"Down\",\"40\",\"1\",\"19\",\"8\",\"C2\",\"J\",\"19\"
\"\",\"\",\"approach-retreat\",\"168\",\"1393693\",\"0.0-168.0\",\"\",\"\",\"2-2\",\"4806\",\"38\",\"0\",\"Testing\",\"Stims/Figures/7-J-10-4.bmp\",\"sasa:ha\",\"Up\",\"40\",\"1\",\"20\",\"8\",\"C2\",\"J\",\"20\"
\"\",\"\",\"approach-retreat\",\"169\",\"1401178\",\"0.0-169.0\",\"\",\"\",\"2-2\",\"5979\",\"37\",\"0\",\"Testing\",\"Stims/Figures/74-J-10-4.bmp\",\"zasaha\",\"Left\",\"39\",\"1\",\"21\",\"8\",\"C2\",\"J\",\"21\"
\"\",\"\",\"approach-retreat\",\"170\",\"1408393\",\"0.0-170.0\",\"\",\"\",\"2-2\",\"5706\",\"39\",\"0\",\"Testing\",\"Stims/Figures/27-C-30-1.bmp\",\"fa:sha:va\",\"Left\",\"37\",\"1\",\"22\",\"8\",\"C1\",\"J\",\"22\"
\"\",\"\",\"approach-retreat\",\"171\",\"1414088\",\"0.0-171.0\",\"\",\"\",\"2-2\",\"4188\",\"38\",\"1\",\"Testing\",\"Stims/Figures/27-J-0-1.bmp\",\"vafa:sha\",\"Down\",\"38\",\"1\",\"23\",\"8\",\"C1\",\"J\",\"23\"
\"\",\"\",\"approach-retreat\",\"172\",\"1422066\",\"0.0-172.0\",\"\",\"\",\"2-2\",\"6471\",\"38\",\"0\",\"Testing\",\"Stims/Figures/85-C-20-2.bmp\",\"fafava\",\"Down\",\"40\",\"1\",\"24\",\"8\",\"C1\",\"J\",\"24\"
\"\",\"\",\"approach-retreat\",\"173\",\"1427822\",\"0.0-173.0\",\"\",\"\",\"2-2\",\"4230\",\"40\",\"0\",\"Testing\",\"Stims/Figures/94-J-0-2.bmp\",\"fafa:sha\",\"Down\",\"38\",\"2\",\"1\",\"8\",\"C1\",\"J\",\"25\"
\"\",\"\",\"approach-retreat\",\"174\",\"1433886\",\"0.0-174.0\",\"\",\"\",\"2-2\",\"4539\",\"38\",\"0\",\"Testing\",\"Stims/Figures/71-C-30-1.bmp\",\"fa:fa:va\",\"Down\",\"40\",\"2\",\"2\",\"8\",\"C1\",\"J\",\"26\"
\"\",\"\",\"approach-retreat\",\"175\",\"1440088\",\"0.0-175.0\",\"\",\"\",\"2-2\",\"4686\",\"39\",\"0\",\"Testing\",\"Stims/Figures/27-J-0-1.bmp\",\"vafa:sha\",\"Right\",\"37\",\"2\",\"3\",\"8\",\"C1\",\"J\",\"27\"
\"\",\"\",\"approach-retreat\",\"176\",\"1446220\",\"0.0-176.0\",\"\",\"\",\"2-2\",\"4622\",\"38\",\"0\",\"Testing\",\"Stims/Figures/27-C-30-1.bmp\",\"fa:sha:va\",\"Down\",\"40\",\"2\",\"4\",\"8\",\"C1\",\"J\",\"28\"
\"\",\"\",\"approach-retreat\",\"177\",\"1451860\",\"0.0-177.0\",\"\",\"\",\"2-2\",\"4115\",\"38\",\"1\",\"Testing\",\"Stims/Figures/74-J-10-4.bmp\",\"zasaha\",\"Down\",\"38\",\"2\",\"5\",\"8\",\"C2\",\"J\",\"29\"
\"\",\"\",\"approach-retreat\",\"178\",\"1457500\",\"0.0-178.0\",\"\",\"\",\"2-2\",\"4120\",\"37\",\"1\",\"Testing\",\"Stims/Figures/7-C-20-4.bmp\",\"sa:haza\",\"Left\",\"37\",\"2\",\"6\",\"8\",\"C2\",\"J\",\"30\"
\"\",\"\",\"approach-retreat\",\"179\",\"1463258\",\"0.0-179.0\",\"\",\"\",\"2-2\",\"4239\",\"39\",\"1\",\"Testing\",\"Stims/Figures/111-C-30-3.bmp\",\"sa:sa:ha\",\"Right\",\"39\",\"2\",\"7\",\"8\",\"C2\",\"J\",\"31\"
\"\",\"\",\"approach-retreat\",\"180\",\"1468808\",\"0.0-180.0\",\"\",\"\",\"2-2\",\"4040\",\"37\",\"0\",\"Testing\",\"Stims/Figures/85-C-20-2.bmp\",\"fafava\",\"Right\",\"39\",\"2\",\"8\",\"8\",\"C1\",\"J\",\"32\"
\"\",\"\",\"approach-retreat\",\"181\",\"1474603\",\"0.0-181.0\",\"\",\"\",\"2-2\",\"4288\",\"39\",\"0\",\"Testing\",\"Stims/Figures/94-C-20-2.bmp\",\"va:fa:va\",\"Left\",\"37\",\"2\",\"9\",\"8\",\"C1\",\"J\",\"33\"
\"\",\"\",\"approach-retreat\",\"182\",\"1480330\",\"0.0-182.0\",\"\",\"\",\"2-2\",\"4207\",\"39\",\"0\",\"Testing\",\"Stims/Figures/111-J-10-3.bmp\",\"za:saha\",\"Right\",\"37\",\"2\",\"10\",\"8\",\"C2\",\"J\",\"34\"
\"\",\"\",\"approach-retreat\",\"183\",\"1487354\",\"0.0-183.0\",\"\",\"\",\"2-2\",\"5498\",\"40\",\"1\",\"Testing\",\"Stims/Figures/19-J-10-4.bmp\",\"za:ha:za\",\"Up\",\"40\",\"2\",\"11\",\"8\",\"C2\",\"J\",\"35\"
\"\",\"\",\"approach-retreat\",\"184\",\"1494629\",\"0.0-184.0\",\"\",\"\",\"2-2\",\"5757\",\"37\",\"1\",\"Testing\",\"Stims/Figures/144-J-10-3.bmp\",\"sa:saza\",\"Right\",\"37\",\"2\",\"12\",\"8\",\"C2\",\"J\",\"36\"
\"\",\"\",\"approach-retreat\",\"185\",\"1500539\",\"0.0-185.0\",\"\",\"\",\"2-2\",\"4385\",\"38\",\"0\",\"Testing\",\"Stims/Figures/85-J-0-2.bmp\",\"fasha:va\",\"Up\",\"40\",\"2\",\"13\",\"8\",\"C1\",\"J\",\"37\"
\"\",\"\",\"approach-retreat\",\"186\",\"1506749\",\"0.0-186.0\",\"\",\"\",\"2-2\",\"4684\",\"40\",\"0\",\"Testing\",\"Stims/Figures/19-C-20-4.bmp\",\"zasa:za\",\"Up\",\"38\",\"2\",\"14\",\"8\",\"C2\",\"J\",\"38\"
\"\",\"\",\"approach-retreat\",\"187\",\"1512717\",\"0.0-187.0\",\"\",\"\",\"2-2\",\"4442\",\"37\",\"0\",\"Testing\",\"Stims/Figures/57-J-0-1.bmp\",\"vasha:sha\",\"Left\",\"39\",\"2\",\"15\",\"8\",\"C1\",\"J\",\"39\"
\"\",\"\",\"approach-retreat\",\"188\",\"1518369\",\"0.0-188.0\",\"\",\"\",\"2-2\",\"4127\",\"39\",\"0\",\"Testing\",\"Stims/Figures/84-C-20-2.bmp\",\"fa:fasha\",\"Left\",\"37\",\"2\",\"16\",\"8\",\"C1\",\"J\",\"40\"
\"\",\"\",\"approach-retreat\",\"189\",\"1523893\",\"0.0-189.0\",\"\",\"\",\"2-2\",\"3999\",\"39\",\"0\",\"Testing\",\"Stims/Figures/74-C-20-4.bmp\",\"za:ha:ha\",\"Left\",\"37\",\"2\",\"17\",\"8\",\"C2\",\"J\",\"41\"
\"\",\"\",\"approach-retreat\",\"190\",\"1530456\",\"0.0-190.0\",\"\",\"\",\"2-2\",\"5044\",\"37\",\"0\",\"Testing\",\"Stims/Figures/57-C-30-1.bmp\",\"fasha:sha\",\"Right\",\"39\",\"2\",\"18\",\"8\",\"C1\",\"J\",\"42\"
\"\",\"\",\"approach-retreat\",\"191\",\"1536464\",\"0.0-191.0\",\"\",\"\",\"2-2\",\"4485\",\"38\",\"0\",\"Testing\",\"Stims/Figures/7-J-10-4.bmp\",\"sasa:ha\",\"Up\",\"40\",\"2\",\"19\",\"8\",\"C2\",\"J\",\"43\"
\"\",\"\",\"approach-retreat\",\"192\",\"1542382\",\"0.0-192.0\",\"\",\"\",\"2-2\",\"4392\",\"38\",\"0\",\"Testing\",\"Stims/Figures/71-J-0-1.bmp\",\"fa:fa:sha\",\"Up\",\"40\",\"2\",\"20\",\"8\",\"C1\",\"J\",\"44\"
\"\",\"\",\"approach-retreat\",\"193\",\"1548247\",\"0.0-193.0\",\"\",\"\",\"2-2\",\"4341\",\"40\",\"0\",\"Testing\",\"Stims/Figures/84-J-0-2.bmp\",\"va:shava\",\"Down\",\"38\",\"2\",\"21\",\"8\",\"C1\",\"J\",\"45\"
\"\",\"\",\"approach-retreat\",\"194\",\"1553963\",\"0.0-194.0\",\"\",\"\",\"2-2\",\"4199\",\"38\",\"0\",\"Testing\",\"Stims/Figures/128-C-30-3.bmp\",\"sahaza\",\"Down\",\"40\",\"2\",\"22\",\"8\",\"C2\",\"J\",\"46\"
\"\",\"\",\"approach-retreat\",\"195\",\"1559748\",\"0.0-195.0\",\"\",\"\",\"2-2\",\"4266\",\"40\",\"0\",\"Testing\",\"Stims/Figures/144-C-30-3.bmp\",\"zasaza\",\"Up\",\"38\",\"2\",\"23\",\"8\",\"C2\",\"J\",\"47\"
\"\",\"\",\"approach-retreat\",\"196\",\"1565597\",\"0.0-196.0\",\"\",\"\",\"2-2\",\"4336\",\"37\",\"0\",\"Testing\",\"Stims/Figures/128-J-10-3.bmp\",\"sa:sa:za\",\"Left\",\"39\",\"2\",\"24\",\"8\",\"C2\",\"J\",\"48\"
\"\",\"\",\"approach-retreat\",\"197\",\"1571410\",\"0.0-197.0\",\"\",\"\",\"2-2\",\"4286\",\"39\",\"0\",\"Testing\",\"Stims/Figures/74-J-10-4.bmp\",\"zasaha\",\"Right\",\"37\",\"3\",\"1\",\"8\",\"C2\",\"J\",\"49\"
\"\",\"\",\"approach-retreat\",\"198\",\"1577137\",\"0.0-198.0\",\"\",\"\",\"2-2\",\"4200\",\"40\",\"0\",\"Testing\",\"Stims/Figures/7-C-20-4.bmp\",\"sa:haza\",\"Up\",\"38\",\"3\",\"2\",\"8\",\"C2\",\"J\",\"50\"
\"\",\"\",\"approach-retreat\",\"199\",\"1585169\",\"0.0-199.0\",\"\",\"\",\"2-2\",\"6522\",\"39\",\"0\",\"Testing\",\"Stims/Figures/144-J-10-3.bmp\",\"sa:saza\",\"Right\",\"37\",\"3\",\"3\",\"8\",\"C2\",\"J\",\"51\"
\"\",\"\",\"approach-retreat\",\"200\",\"1590877\",\"0.0-200.0\",\"\",\"\",\"2-2\",\"4183\",\"39\",\"0\",\"Testing\",\"Stims/Figures/57-J-0-1.bmp\",\"vasha:sha\",\"Right\",\"37\",\"3\",\"4\",\"8\",\"C1\",\"J\",\"52\"
\"\",\"\",\"approach-retreat\",\"201\",\"1597066\",\"0.0-201.0\",\"\",\"\",\"2-2\",\"4666\",\"39\",\"0\",\"Testing\",\"Stims/Figures/94-C-20-2.bmp\",\"va:fa:va\",\"Left\",\"37\",\"3\",\"5\",\"8\",\"C1\",\"J\",\"53\"
\"\",\"\",\"approach-retreat\",\"202\",\"1602528\",\"0.0-202.0\",\"\",\"\",\"2-2\",\"3936\",\"37\",\"0\",\"Testing\",\"Stims/Figures/85-J-0-2.bmp\",\"fasha:va\",\"Left\",\"39\",\"3\",\"6\",\"8\",\"C1\",\"J\",\"54\"
\"\",\"\",\"approach-retreat\",\"203\",\"1608370\",\"0.0-203.0\",\"\",\"\",\"2-2\",\"4318\",\"40\",\"0\",\"Testing\",\"Stims/Figures/27-C-30-1.bmp\",\"fa:sha:va\",\"Up\",\"38\",\"3\",\"7\",\"8\",\"C1\",\"J\",\"55\"
\"\",\"\",\"approach-retreat\",\"204\",\"1614531\",\"0.0-204.0\",\"\",\"\",\"2-2\",\"4635\",\"38\",\"0\",\"Testing\",\"Stims/Figures/144-C-30-3.bmp\",\"zasaza\",\"Down\",\"40\",\"3\",\"8\",\"8\",\"C2\",\"J\",\"56\"
\"\",\"\",\"approach-retreat\",\"205\",\"1621559\",\"0.0-205.0\",\"\",\"\",\"2-2\",\"5503\",\"37\",\"0\",\"Testing\",\"Stims/Figures/84-C-20-2.bmp\",\"fa:fasha\",\"Right\",\"39\",\"3\",\"9\",\"8\",\"C1\",\"J\",\"57\"
\"\",\"\",\"approach-retreat\",\"206\",\"1632033\",\"0.0-206.0\",\"\",\"\",\"2-2\",\"8949\",\"38\",\"0\",\"Testing\",\"Stims/Figures/111-J-10-3.bmp\",\"za:saha\",\"Up\",\"40\",\"3\",\"10\",\"8\",\"C2\",\"J\",\"58\"
\"\",\"\",\"approach-retreat\",\"207\",\"1638206\",\"0.0-207.0\",\"\",\"\",\"2-2\",\"4661\",\"39\",\"0\",\"Testing\",\"Stims/Figures/57-C-30-1.bmp\",\"fasha:sha\",\"Left\",\"37\",\"3\",\"11\",\"8\",\"C1\",\"J\",\"59\"
\"\",\"\",\"approach-retreat\",\"208\",\"1645508\",\"0.0-208.0\",\"\",\"\",\"2-2\",\"5777\",\"40\",\"0\",\"Testing\",\"Stims/Figures/74-C-20-4.bmp\",\"za:ha:ha\",\"Up\",\"38\",\"3\",\"12\",\"8\",\"C2\",\"J\",\"60\"
\"\",\"\",\"approach-retreat\",\"209\",\"1651312\",\"0.0-209.0\",\"\",\"\",\"2-2\",\"4278\",\"38\",\"0\",\"Testing\",\"Stims/Figures/128-J-10-3.bmp\",\"sa:sa:za\",\"Up\",\"40\",\"3\",\"13\",\"8\",\"C2\",\"J\",\"61\"
\"\",\"\",\"approach-retreat\",\"210\",\"1657425\",\"0.0-210.0\",\"\",\"\",\"2-2\",\"4585\",\"38\",\"0\",\"Testing\",\"Stims/Figures/19-C-20-4.bmp\",\"zasa:za\",\"Down\",\"40\",\"3\",\"14\",\"8\",\"C2\",\"J\",\"62\"
\"\",\"\",\"approach-retreat\",\"211\",\"1663797\",\"0.0-211.0\",\"\",\"\",\"2-2\",\"4849\",\"40\",\"0\",\"Testing\",\"Stims/Figures/27-J-0-1.bmp\",\"vafa:sha\",\"Down\",\"38\",\"3\",\"15\",\"8\",\"C1\",\"J\",\"63\"
\"\",\"\",\"approach-retreat\",\"212\",\"1670136\",\"0.0-212.0\",\"\",\"\",\"2-2\",\"4814\",\"38\",\"0\",\"Testing\",\"Stims/Figures/128-C-30-3.bmp\",\"sahaza\",\"Down\",\"40\",\"3\",\"16\",\"8\",\"C2\",\"J\",\"64\"
\"\",\"\",\"approach-retreat\",\"213\",\"1676058\",\"0.0-213.0\",\"\",\"\",\"2-2\",\"4398\",\"40\",\"0\",\"Testing\",\"Stims/Figures/7-J-10-4.bmp\",\"sasa:ha\",\"Down\",\"38\",\"3\",\"17\",\"8\",\"C2\",\"J\",\"65\"
\"\",\"\",\"approach-retreat\",\"214\",\"1681959\",\"0.0-214.0\",\"\",\"\",\"2-2\",\"4376\",\"37\",\"1\",\"Testing\",\"Stims/Figures/19-J-10-4.bmp\",\"za:ha:za\",\"Right\",\"37\",\"3\",\"18\",\"8\",\"C2\",\"J\",\"66\"
\"\",\"\",\"approach-retreat\",\"215\",\"1688181\",\"0.0-215.0\",\"\",\"\",\"2-2\",\"4697\",\"39\",\"0\",\"Testing\",\"Stims/Figures/85-C-20-2.bmp\",\"fafava\",\"Left\",\"37\",\"3\",\"19\",\"8\",\"C1\",\"J\",\"67\"
\"\",\"\",\"approach-retreat\",\"216\",\"1693954\",\"0.0-216.0\",\"\",\"\",\"2-2\",\"4249\",\"39\",\"0\",\"Testing\",\"Stims/Figures/111-C-30-3.bmp\",\"sa:sa:ha\",\"Left\",\"37\",\"3\",\"20\",\"8\",\"C2\",\"J\",\"68\"
\"\",\"\",\"approach-retreat\",\"217\",\"1699704\",\"0.0-217.0\",\"\",\"\",\"2-2\",\"4225\",\"37\",\"0\",\"Testing\",\"Stims/Figures/84-J-0-2.bmp\",\"va:shava\",\"Left\",\"39\",\"3\",\"21\",\"8\",\"C1\",\"J\",\"69\"
\"\",\"\",\"approach-retreat\",\"218\",\"1706504\",\"0.0-218.0\",\"\",\"\",\"2-2\",\"5276\",\"40\",\"0\",\"Testing\",\"Stims/Figures/71-J-0-1.bmp\",\"fa:fa:sha\",\"Down\",\"38\",\"3\",\"22\",\"8\",\"C1\",\"J\",\"70\"
\"\",\"\",\"approach-retreat\",\"219\",\"1713096\",\"0.0-219.0\",\"\",\"\",\"2-2\",\"5069\",\"38\",\"0\",\"Testing\",\"Stims/Figures/94-J-0-2.bmp\",\"fafa:sha\",\"Up\",\"40\",\"3\",\"23\",\"8\",\"C1\",\"J\",\"71\"
\"\",\"\",\"approach-retreat\",\"220\",\"1719242\",\"0.0-220.0\",\"\",\"\",\"2-2\",\"4624\",\"37\",\"0\",\"Testing\",\"Stims/Figures/71-C-30-1.bmp\",\"fa:fa:va\",\"Right\",\"39\",\"3\",\"24\",\"8\",\"C1\",\"J\",\"72\"
\"\",\"\",\"approach-retreat\",\"221\",\"1730491\",\"0.0-221.0\",\"\",\"\",\"2-2\",\"9723\",\"39\",\"0\",\"Testing\",\"Stims/Figures/85-J-0-2.bmp\",\"fasha:va\",\"Right\",\"37\",\"4\",\"1\",\"8\",\"C1\",\"J\",\"73\"
\"\",\"\",\"approach-retreat\",\"222\",\"1736248\",\"0.0-222.0\",\"\",\"\",\"2-2\",\"4233\",\"38\",\"1\",\"Testing\",\"Stims/Figures/144-J-10-3.bmp\",\"sa:saza\",\"Down\",\"38\",\"4\",\"2\",\"8\",\"C2\",\"J\",\"74\"
\"\",\"\",\"approach-retreat\",\"223\",\"1741974\",\"0.0-223.0\",\"\",\"\",\"2-2\",\"4200\",\"39\",\"0\",\"Testing\",\"Stims/Figures/19-C-20-4.bmp\",\"zasa:za\",\"Left\",\"37\",\"4\",\"3\",\"8\",\"C2\",\"J\",\"75\"
\"\",\"\",\"approach-retreat\",\"224\",\"1747761\",\"0.0-224.0\",\"\",\"\",\"2-2\",\"4263\",\"37\",\"0\",\"Testing\",\"Stims/Figures/94-J-0-2.bmp\",\"fafa:sha\",\"Left\",\"39\",\"4\",\"4\",\"8\",\"C1\",\"J\",\"76\"
\"\",\"\",\"approach-retreat\",\"225\",\"1753718\",\"0.0-225.0\",\"\",\"\",\"2-2\",\"4433\",\"40\",\"0\",\"Testing\",\"Stims/Figures/71-J-0-1.bmp\",\"fa:fa:sha\",\"Down\",\"38\",\"4\",\"5\",\"8\",\"C1\",\"J\",\"77\"
\"\",\"\",\"approach-retreat\",\"226\",\"1759796\",\"0.0-226.0\",\"\",\"\",\"2-2\",\"4552\",\"37\",\"0\",\"Testing\",\"Stims/Figures/27-J-0-1.bmp\",\"vafa:sha\",\"Left\",\"39\",\"4\",\"6\",\"8\",\"C1\",\"J\",\"78\"
\"\",\"\",\"approach-retreat\",\"227\",\"1765824\",\"0.0-227.0\",\"\",\"\",\"2-2\",\"4501\",\"38\",\"0\",\"Testing\",\"Stims/Figures/144-C-30-3.bmp\",\"zasaza\",\"Down\",\"40\",\"4\",\"7\",\"8\",\"C2\",\"J\",\"79\"
\"\",\"\",\"approach-retreat\",\"228\",\"1772475\",\"0.0-228.0\",\"\",\"\",\"2-2\",\"5124\",\"38\",\"0\",\"Testing\",\"Stims/Figures/85-C-20-2.bmp\",\"fafava\",\"Down\",\"40\",\"4\",\"8\",\"8\",\"C1\",\"J\",\"80\"
\"\",\"\",\"approach-retreat\",\"229\",\"1781274\",\"0.0-229.0\",\"\",\"\",\"2-2\",\"7283\",\"40\",\"0\",\"Testing\",\"Stims/Figures/27-C-30-1.bmp\",\"fa:sha:va\",\"Up\",\"38\",\"4\",\"9\",\"8\",\"C1\",\"J\",\"81\"
\"\",\"\",\"approach-retreat\",\"230\",\"1787113\",\"0.0-230.0\",\"\",\"\",\"2-2\",\"4314\",\"39\",\"0\",\"Testing\",\"Stims/Figures/57-J-0-1.bmp\",\"vasha:sha\",\"Right\",\"37\",\"4\",\"10\",\"8\",\"C1\",\"J\",\"82\"
\"\",\"\",\"approach-retreat\",\"231\",\"1792940\",\"0.0-231.0\",\"\",\"\",\"2-2\",\"4303\",\"39\",\"0\",\"Testing\",\"Stims/Figures/74-J-10-4.bmp\",\"zasaha\",\"Right\",\"37\",\"4\",\"11\",\"8\",\"C2\",\"J\",\"83\"
\"\",\"\",\"approach-retreat\",\"232\",\"1798686\",\"0.0-232.0\",\"\",\"\",\"2-2\",\"4223\",\"40\",\"0\",\"Testing\",\"Stims/Figures/94-C-20-2.bmp\",\"va:fa:va\",\"Up\",\"38\",\"4\",\"12\",\"8\",\"C1\",\"J\",\"84\"
\"\",\"\",\"approach-retreat\",\"233\",\"1804944\",\"0.0-233.0\",\"\",\"\",\"2-2\",\"4736\",\"39\",\"0\",\"Testing\",\"Stims/Figures/71-C-30-1.bmp\",\"fa:fa:va\",\"Left\",\"37\",\"4\",\"13\",\"8\",\"C1\",\"J\",\"85\"
\"\",\"\",\"approach-retreat\",\"234\",\"1810892\",\"0.0-234.0\",\"\",\"\",\"2-2\",\"4423\",\"39\",\"0\",\"Testing\",\"Stims/Figures/84-J-0-2.bmp\",\"va:shava\",\"Right\",\"37\",\"4\",\"14\",\"8\",\"C1\",\"J\",\"86\"
\"\",\"\",\"approach-retreat\",\"235\",\"1817175\",\"0.0-235.0\",\"\",\"\",\"2-2\",\"4759\",\"40\",\"0\",\"Testing\",\"Stims/Figures/74-C-20-4.bmp\",\"za:ha:ha\",\"Up\",\"38\",\"4\",\"15\",\"8\",\"C2\",\"J\",\"87\"
\"\",\"\",\"approach-retreat\",\"236\",\"1823936\",\"0.0-236.0\",\"\",\"\",\"2-2\",\"5236\",\"37\",\"0\",\"Testing\",\"Stims/Figures/57-C-30-1.bmp\",\"fasha:sha\",\"Right\",\"39\",\"4\",\"16\",\"8\",\"C1\",\"J\",\"88\"
\"\",\"\",\"approach-retreat\",\"237\",\"1829645\",\"0.0-237.0\",\"\",\"\",\"2-2\",\"4183\",\"37\",\"0\",\"Testing\",\"Stims/Figures/84-C-20-2.bmp\",\"fa:fasha\",\"Right\",\"39\",\"4\",\"17\",\"8\",\"C1\",\"J\",\"89\"
\"\",\"\",\"approach-retreat\",\"238\",\"1835291\",\"0.0-238.0\",\"\",\"\",\"2-2\",\"4123\",\"38\",\"0\",\"Testing\",\"Stims/Figures/111-C-30-3.bmp\",\"sa:sa:ha\",\"Down\",\"40\",\"4\",\"18\",\"8\",\"C2\",\"J\",\"90\"
\"\",\"\",\"approach-retreat\",\"239\",\"1842156\",\"0.0-239.0\",\"\",\"\",\"2-2\",\"5341\",\"38\",\"0\",\"Testing\",\"Stims/Figures/128-J-10-3.bmp\",\"sa:sa:za\",\"Up\",\"40\",\"4\",\"19\",\"8\",\"C2\",\"J\",\"91\"
\"\",\"\",\"approach-retreat\",\"240\",\"1848063\",\"0.0-240.0\",\"\",\"\",\"2-2\",\"4382\",\"40\",\"0\",\"Testing\",\"Stims/Figures/128-C-30-3.bmp\",\"sahaza\",\"Up\",\"38\",\"4\",\"20\",\"8\",\"C2\",\"J\",\"92\"
\"\",\"\",\"approach-retreat\",\"241\",\"1853965\",\"0.0-241.0\",\"\",\"\",\"2-2\",\"4378\",\"38\",\"0\",\"Testing\",\"Stims/Figures/7-J-10-4.bmp\",\"sasa:ha\",\"Up\",\"40\",\"4\",\"21\",\"8\",\"C2\",\"J\",\"93\"
\"\",\"\",\"approach-retreat\",\"242\",\"1863526\",\"0.0-242.0\",\"\",\"\",\"2-2\",\"8036\",\"40\",\"0\",\"Testing\",\"Stims/Figures/111-J-10-3.bmp\",\"za:saha\",\"Down\",\"38\",\"4\",\"22\",\"8\",\"C2\",\"J\",\"94\"
\"\",\"\",\"approach-retreat\",\"243\",\"1869399\",\"0.0-243.0\",\"\",\"\",\"2-2\",\"4348\",\"39\",\"0\",\"Testing\",\"Stims/Figures/7-C-20-4.bmp\",\"sa:haza\",\"Left\",\"37\",\"4\",\"23\",\"8\",\"C2\",\"J\",\"95\"
\"\",\"\",\"approach-retreat\",\"244\",\"1875162\",\"0.0-244.0\",\"\",\"\",\"2-2\",\"4234\",\"39\",\"1\",\"Testing\",\"Stims/Figures/19-J-10-4.bmp\",\"za:ha:za\",\"Left\",\"39\",\"4\",\"24\",\"8\",\"C2\",\"J\",\"96\"
\"\",\"\",\"survey-text\",\"245\",\"1888865\",\"0.0-245.0\",\"\",\"\",\"2-2\",\"17941\",\"37\",\"0\",\"Testing\",\"Stims/Figures/19-J-10-4.bmp\",\"za:ha:za\",\"Left\",\"39\",\"4\",\"24\",\"8\",\"C2\",\"J\",\"\"
