\"rt\",\"key_press\",\"trial_type\",\"trial_index\",\"time_elapsed\",\"internal_node_id\",\"view_history\",\"responses\",\"Id\",\"Rt\",\"ResKeyCode\",\"ResCorr\",\"TrialType2\",\"Image\",\"Label\",\"Location\",\"CorrectResponse\",\"Block\",\"BlockTrial\",\"Condition\",\"LabelType\",\"Subcondition\",\"trialNum\"
\"23284\",\"32\",\"text\",\"0\",\"23286\",\"0.0-0.0-0.0\",\"\",\"\",\"\",\"\",\"\",\"\",\"\",\"\",\"\",\"\",\"\",\"\",\"\",\"\",\"\",\"\",\"\"
\"43088\",\"\",\"instructions\",\"1\",\"66375\",\"0.0-1.0\",\"[{\"\"page_index\"\":0,\"\"viewing_time\"\":43088}]\",\"\",\"\",\"\",\"\",\"\",\"\",\"\",\"\",\"\",\"\",\"\",\"\",\"\",\"\",\"\",\"\"
\"15614\",\"\",\"survey-multi-choice\",\"2\",\"82008\",\"0.0-2.0\",\"\",\"{\"\"Q0\"\":\"\"Da\"\",\"\"Q1\"\":\"\"Da\"\",\"\"Q2\"\":\"\"Da\"\",\"\"Q3\"\":\"\"Da\"\",\"\"Q4\"\":\"\"Da\"\",\"\"Q5\"\":\"\"Da\"\"}\",\"\",\"\",\"\",\"\",\"\",\"\",\"\",\"\",\"\",\"\",\"\",\"\",\"\",\"\",\"\"
\"\",\"\",\"bio\",\"3\",\"87333\",\"0.0-3.0\",\"\",\"{\"\"age\"\":\"\"23\"\",\"\"gender\"\":\"\"f\"\",\"\"specify\"\":\"\"\"\"}\",\"\",\"\",\"\",\"\",\"\",\"\",\"\",\"\",\"\",\"\",\"\",\"\",\"\",\"\",\"\"
\"\",\"\",\"approach-retreat\",\"4\",\"98192\",\"0.0-4.0\",\"\",\"\",\"2-2\",\"9350\",\"39\",\"0\",\"Training\",\"Stims/Figures/118-J-0-2.bmp\",\"sasaza\",\"Right\",\"37\",\"1\",\"1\",\"3B\",\"C2\",\"J\",\"1\"
\"\",\"\",\"approach-retreat\",\"5\",\"104626\",\"0.0-5.0\",\"\",\"\",\"2-2\",\"4927\",\"40\",\"1\",\"Training\",\"Stims/Figures/7-J-10-4.bmp\",\"sasaza\",\"Up\",\"40\",\"1\",\"2\",\"3B\",\"C2\",\"J\",\"2\"
\"\",\"\",\"approach-retreat\",\"6\",\"110610\",\"0.0-6.0\",\"\",\"\",\"2-2\",\"4476\",\"39\",\"1\",\"Training\",\"Stims/Figures/100-J-10-3.bmp\",\"sasaza\",\"Left\",\"39\",\"1\",\"3\",\"3B\",\"C2\",\"J\",\"3\"
\"\",\"\",\"approach-retreat\",\"7\",\"117634\",\"0.0-7.0\",\"\",\"\",\"2-2\",\"5519\",\"39\",\"1\",\"Training\",\"Stims/Figures/118-C-20-2.bmp\",\"fa:fasha\",\"Right\",\"39\",\"1\",\"4\",\"3B\",\"C1\",\"J\",\"4\"
\"\",\"\",\"approach-retreat\",\"8\",\"124153\",\"0.0-8.0\",\"\",\"\",\"2-2\",\"5014\",\"39\",\"1\",\"Training\",\"Stims/Figures/84-C-20-2.bmp\",\"fa:fasha\",\"Right\",\"39\",\"1\",\"5\",\"3B\",\"C1\",\"J\",\"5\"
\"\",\"\",\"approach-retreat\",\"9\",\"130522\",\"0.0-9.0\",\"\",\"\",\"2-2\",\"4862\",\"40\",\"1\",\"Training\",\"Stims/Figures/93-C-30-1.bmp\",\"fa:fasha\",\"Down\",\"40\",\"1\",\"6\",\"3B\",\"C1\",\"J\",\"6\"
\"\",\"\",\"approach-retreat\",\"10\",\"136754\",\"0.0-10.0\",\"\",\"\",\"2-2\",\"4727\",\"38\",\"1\",\"Training\",\"Stims/Figures/93-J-0-1.bmp\",\"sasaza\",\"Down\",\"38\",\"1\",\"7\",\"3B\",\"C2\",\"J\",\"7\"
\"\",\"\",\"approach-retreat\",\"11\",\"144657\",\"0.0-11.0\",\"\",\"\",\"2-2\",\"6398\",\"38\",\"1\",\"Training\",\"Stims/Figures/7-C-20-4.bmp\",\"fa:fasha\",\"Up\",\"38\",\"1\",\"8\",\"3B\",\"C1\",\"J\",\"8\"
\"\",\"\",\"approach-retreat\",\"12\",\"150508\",\"0.0-12.0\",\"\",\"\",\"2-2\",\"4345\",\"40\",\"1\",\"Training\",\"Stims/Figures/57-J-0-1.bmp\",\"sasaza\",\"Up\",\"40\",\"1\",\"9\",\"3B\",\"C2\",\"J\",\"9\"
\"\",\"\",\"approach-retreat\",\"13\",\"157146\",\"0.0-13.0\",\"\",\"\",\"2-2\",\"5131\",\"40\",\"1\",\"Training\",\"Stims/Figures/128-C-30-3.bmp\",\"fa:fasha\",\"Down\",\"40\",\"1\",\"10\",\"3B\",\"C1\",\"J\",\"10\"
\"\",\"\",\"approach-retreat\",\"14\",\"163042\",\"0.0-14.0\",\"\",\"\",\"2-2\",\"4388\",\"37\",\"1\",\"Training\",\"Stims/Figures/19-C-20-4.bmp\",\"fa:fasha\",\"Left\",\"37\",\"1\",\"11\",\"3B\",\"C1\",\"J\",\"11\"
\"\",\"\",\"approach-retreat\",\"15\",\"169302\",\"0.0-15.0\",\"\",\"\",\"2-2\",\"4755\",\"37\",\"1\",\"Training\",\"Stims/Figures/84-J-0-2.bmp\",\"sasaza\",\"Right\",\"37\",\"1\",\"12\",\"3B\",\"C2\",\"J\",\"12\"
\"\",\"\",\"approach-retreat\",\"16\",\"174860\",\"0.0-16.0\",\"\",\"\",\"2-2\",\"4053\",\"40\",\"1\",\"Training\",\"Stims/Figures/19-J-10-4.bmp\",\"sasaza\",\"Up\",\"40\",\"1\",\"13\",\"3B\",\"C2\",\"J\",\"13\"
\"\",\"\",\"approach-retreat\",\"17\",\"180765\",\"0.0-17.0\",\"\",\"\",\"2-2\",\"4399\",\"37\",\"1\",\"Training\",\"Stims/Figures/57-C-30-1.bmp\",\"fa:fasha\",\"Left\",\"37\",\"1\",\"14\",\"3B\",\"C1\",\"J\",\"14\"
\"\",\"\",\"approach-retreat\",\"18\",\"186492\",\"0.0-18.0\",\"\",\"\",\"2-2\",\"4222\",\"37\",\"1\",\"Training\",\"Stims/Figures/100-C-30-3.bmp\",\"fa:fasha\",\"Left\",\"37\",\"1\",\"15\",\"3B\",\"C1\",\"J\",\"15\"
\"\",\"\",\"approach-retreat\",\"19\",\"192431\",\"0.0-19.0\",\"\",\"\",\"2-2\",\"4430\",\"38\",\"1\",\"Training\",\"Stims/Figures/128-J-10-3.bmp\",\"sasaza\",\"Down\",\"38\",\"1\",\"16\",\"3B\",\"C2\",\"J\",\"16\"
\"\",\"\",\"approach-retreat\",\"20\",\"198109\",\"0.0-20.0\",\"\",\"\",\"2-2\",\"4173\",\"40\",\"1\",\"Training\",\"Stims/Figures/19-J-10-4.bmp\",\"sasaza\",\"Up\",\"40\",\"2\",\"1\",\"3B\",\"C2\",\"J\",\"17\"
\"\",\"\",\"approach-retreat\",\"21\",\"205448\",\"0.0-21.0\",\"\",\"\",\"2-2\",\"5836\",\"39\",\"1\",\"Training\",\"Stims/Figures/19-C-20-4.bmp\",\"fa:fasha\",\"Right\",\"39\",\"2\",\"2\",\"3B\",\"C1\",\"J\",\"18\"
\"\",\"\",\"approach-retreat\",\"22\",\"211033\",\"0.0-22.0\",\"\",\"\",\"2-2\",\"4078\",\"40\",\"1\",\"Training\",\"Stims/Figures/93-C-30-1.bmp\",\"fa:fasha\",\"Down\",\"40\",\"2\",\"3\",\"3B\",\"C1\",\"J\",\"19\"
\"\",\"\",\"approach-retreat\",\"23\",\"217034\",\"0.0-23.0\",\"\",\"\",\"2-2\",\"4497\",\"37\",\"1\",\"Training\",\"Stims/Figures/93-J-0-1.bmp\",\"sasaza\",\"Right\",\"37\",\"2\",\"4\",\"3B\",\"C2\",\"J\",\"20\"
\"\",\"\",\"approach-retreat\",\"24\",\"222807\",\"0.0-24.0\",\"\",\"\",\"2-2\",\"4269\",\"37\",\"1\",\"Training\",\"Stims/Figures/84-C-20-2.bmp\",\"fa:fasha\",\"Left\",\"37\",\"2\",\"5\",\"3B\",\"C1\",\"J\",\"21\"
\"\",\"\",\"approach-retreat\",\"25\",\"229122\",\"0.0-25.0\",\"\",\"\",\"2-2\",\"4806\",\"38\",\"1\",\"Training\",\"Stims/Figures/128-C-30-3.bmp\",\"fa:fasha\",\"Up\",\"38\",\"2\",\"6\",\"3B\",\"C1\",\"J\",\"22\"
\"\",\"\",\"approach-retreat\",\"26\",\"234850\",\"0.0-26.0\",\"\",\"\",\"2-2\",\"4222\",\"40\",\"0\",\"Training\",\"Stims/Figures/7-J-10-4.bmp\",\"sasaza\",\"Down\",\"38\",\"2\",\"7\",\"3B\",\"C2\",\"J\",\"23\"
\"\",\"\",\"approach-retreat\",\"27\",\"240542\",\"0.0-27.0\",\"\",\"\",\"2-2\",\"4187\",\"37\",\"1\",\"Training\",\"Stims/Figures/118-C-20-2.bmp\",\"fa:fasha\",\"Left\",\"37\",\"2\",\"8\",\"3B\",\"C1\",\"J\",\"24\"
\"\",\"\",\"approach-retreat\",\"28\",\"246283\",\"0.0-28.0\",\"\",\"\",\"2-2\",\"4236\",\"38\",\"0\",\"Training\",\"Stims/Figures/100-J-10-3.bmp\",\"sasaza\",\"Up\",\"40\",\"2\",\"9\",\"3B\",\"C2\",\"J\",\"25\"
\"\",\"\",\"approach-retreat\",\"29\",\"252723\",\"0.0-29.0\",\"\",\"\",\"2-2\",\"4936\",\"38\",\"1\",\"Training\",\"Stims/Figures/100-C-30-3.bmp\",\"fa:fasha\",\"Up\",\"38\",\"2\",\"10\",\"3B\",\"C1\",\"J\",\"26\"
\"\",\"\",\"approach-retreat\",\"30\",\"258765\",\"0.0-30.0\",\"\",\"\",\"2-2\",\"4535\",\"39\",\"1\",\"Training\",\"Stims/Figures/84-J-0-2.bmp\",\"sasaza\",\"Left\",\"39\",\"2\",\"11\",\"3B\",\"C2\",\"J\",\"27\"
\"\",\"\",\"approach-retreat\",\"31\",\"264892\",\"0.0-31.0\",\"\",\"\",\"2-2\",\"4620\",\"40\",\"1\",\"Training\",\"Stims/Figures/57-C-30-1.bmp\",\"fa:fasha\",\"Down\",\"40\",\"2\",\"12\",\"3B\",\"C1\",\"J\",\"28\"
\"\",\"\",\"approach-retreat\",\"32\",\"271415\",\"0.0-32.0\",\"\",\"\",\"2-2\",\"5019\",\"37\",\"1\",\"Training\",\"Stims/Figures/57-J-0-1.bmp\",\"sasaza\",\"Right\",\"37\",\"2\",\"13\",\"3B\",\"C2\",\"J\",\"29\"
\"\",\"\",\"approach-retreat\",\"33\",\"277355\",\"0.0-33.0\",\"\",\"\",\"2-2\",\"4433\",\"39\",\"1\",\"Training\",\"Stims/Figures/128-J-10-3.bmp\",\"sasaza\",\"Left\",\"39\",\"2\",\"14\",\"3B\",\"C2\",\"J\",\"30\"
\"\",\"\",\"approach-retreat\",\"34\",\"283598\",\"0.0-34.0\",\"\",\"\",\"2-2\",\"4739\",\"38\",\"1\",\"Training\",\"Stims/Figures/118-J-0-2.bmp\",\"sasaza\",\"Down\",\"38\",\"2\",\"15\",\"3B\",\"C2\",\"J\",\"31\"
\"\",\"\",\"approach-retreat\",\"35\",\"289739\",\"0.0-35.0\",\"\",\"\",\"2-2\",\"4633\",\"39\",\"1\",\"Training\",\"Stims/Figures/7-C-20-4.bmp\",\"fa:fasha\",\"Right\",\"39\",\"2\",\"16\",\"3B\",\"C1\",\"J\",\"32\"
\"\",\"\",\"approach-retreat\",\"36\",\"295659\",\"0.0-36.0\",\"\",\"\",\"2-2\",\"4414\",\"37\",\"1\",\"Training\",\"Stims/Figures/118-C-20-2.bmp\",\"fa:fasha\",\"Left\",\"37\",\"3\",\"1\",\"3B\",\"C1\",\"J\",\"33\"
\"\",\"\",\"approach-retreat\",\"37\",\"301622\",\"0.0-37.0\",\"\",\"\",\"2-2\",\"4459\",\"40\",\"1\",\"Training\",\"Stims/Figures/7-J-10-4.bmp\",\"sasaza\",\"Up\",\"40\",\"3\",\"2\",\"3B\",\"C2\",\"J\",\"34\"
\"\",\"\",\"approach-retreat\",\"38\",\"307464\",\"0.0-38.0\",\"\",\"\",\"2-2\",\"4336\",\"37\",\"1\",\"Training\",\"Stims/Figures/100-J-10-3.bmp\",\"sasaza\",\"Right\",\"37\",\"3\",\"3\",\"3B\",\"C2\",\"J\",\"35\"
\"\",\"\",\"approach-retreat\",\"39\",\"313151\",\"0.0-39.0\",\"\",\"\",\"2-2\",\"4180\",\"39\",\"1\",\"Training\",\"Stims/Figures/19-J-10-4.bmp\",\"sasaza\",\"Left\",\"39\",\"3\",\"4\",\"3B\",\"C2\",\"J\",\"36\"
\"\",\"\",\"approach-retreat\",\"40\",\"318861\",\"0.0-40.0\",\"\",\"\",\"2-2\",\"4206\",\"37\",\"1\",\"Training\",\"Stims/Figures/100-C-30-3.bmp\",\"fa:fasha\",\"Left\",\"37\",\"3\",\"5\",\"3B\",\"C1\",\"J\",\"37\"
\"\",\"\",\"approach-retreat\",\"41\",\"324652\",\"0.0-41.0\",\"\",\"\",\"2-2\",\"4284\",\"39\",\"1\",\"Training\",\"Stims/Figures/19-C-20-4.bmp\",\"fa:fasha\",\"Right\",\"39\",\"3\",\"6\",\"3B\",\"C1\",\"J\",\"38\"
\"\",\"\",\"approach-retreat\",\"42\",\"330267\",\"0.0-42.0\",\"\",\"\",\"2-2\",\"4109\",\"40\",\"1\",\"Training\",\"Stims/Figures/128-C-30-3.bmp\",\"fa:fasha\",\"Down\",\"40\",\"3\",\"7\",\"3B\",\"C1\",\"J\",\"39\"
\"\",\"\",\"approach-retreat\",\"43\",\"335914\",\"0.0-43.0\",\"\",\"\",\"2-2\",\"4141\",\"39\",\"1\",\"Training\",\"Stims/Figures/57-J-0-1.bmp\",\"sasaza\",\"Left\",\"39\",\"3\",\"8\",\"3B\",\"C2\",\"J\",\"40\"
\"\",\"\",\"approach-retreat\",\"44\",\"341583\",\"0.0-44.0\",\"\",\"\",\"2-2\",\"4166\",\"40\",\"1\",\"Training\",\"Stims/Figures/7-C-20-4.bmp\",\"fa:fasha\",\"Down\",\"40\",\"3\",\"9\",\"3B\",\"C1\",\"J\",\"41\"
\"\",\"\",\"approach-retreat\",\"45\",\"347412\",\"0.0-45.0\",\"\",\"\",\"2-2\",\"4324\",\"38\",\"0\",\"Training\",\"Stims/Figures/84-J-0-2.bmp\",\"sasaza\",\"Up\",\"40\",\"3\",\"10\",\"3B\",\"C2\",\"J\",\"42\"
\"\",\"\",\"approach-retreat\",\"46\",\"353468\",\"0.0-46.0\",\"\",\"\",\"2-2\",\"4551\",\"40\",\"1\",\"Training\",\"Stims/Figures/93-J-0-1.bmp\",\"sasaza\",\"Up\",\"40\",\"3\",\"11\",\"3B\",\"C2\",\"J\",\"43\"
\"\",\"\",\"approach-retreat\",\"47\",\"359774\",\"0.0-47.0\",\"\",\"\",\"2-2\",\"4799\",\"40\",\"1\",\"Training\",\"Stims/Figures/84-C-20-2.bmp\",\"fa:fasha\",\"Down\",\"40\",\"3\",\"12\",\"3B\",\"C1\",\"J\",\"44\"
\"\",\"\",\"approach-retreat\",\"48\",\"365963\",\"0.0-48.0\",\"\",\"\",\"2-2\",\"4686\",\"39\",\"1\",\"Training\",\"Stims/Figures/93-C-30-1.bmp\",\"fa:fasha\",\"Right\",\"39\",\"3\",\"13\",\"3B\",\"C1\",\"J\",\"45\"
\"\",\"\",\"approach-retreat\",\"49\",\"371861\",\"0.0-49.0\",\"\",\"\",\"2-2\",\"4393\",\"37\",\"1\",\"Training\",\"Stims/Figures/128-J-10-3.bmp\",\"sasaza\",\"Right\",\"37\",\"3\",\"14\",\"3B\",\"C2\",\"J\",\"46\"
\"\",\"\",\"approach-retreat\",\"50\",\"377720\",\"0.0-50.0\",\"\",\"\",\"2-2\",\"4355\",\"38\",\"1\",\"Training\",\"Stims/Figures/118-J-0-2.bmp\",\"sasaza\",\"Down\",\"38\",\"3\",\"15\",\"3B\",\"C2\",\"J\",\"47\"
\"\",\"\",\"approach-retreat\",\"51\",\"383524\",\"0.0-51.0\",\"\",\"\",\"2-2\",\"4297\",\"38\",\"1\",\"Training\",\"Stims/Figures/57-C-30-1.bmp\",\"fa:fasha\",\"Up\",\"38\",\"3\",\"16\",\"3B\",\"C1\",\"J\",\"48\"
\"\",\"\",\"approach-retreat\",\"52\",\"389681\",\"0.0-52.0\",\"\",\"\",\"2-2\",\"4649\",\"39\",\"1\",\"Training\",\"Stims/Figures/118-C-20-2.bmp\",\"fa:fasha\",\"Right\",\"39\",\"4\",\"1\",\"3B\",\"C1\",\"J\",\"49\"
\"\",\"\",\"approach-retreat\",\"53\",\"395449\",\"0.0-53.0\",\"\",\"\",\"2-2\",\"4263\",\"39\",\"1\",\"Training\",\"Stims/Figures/19-J-10-4.bmp\",\"sasaza\",\"Left\",\"39\",\"4\",\"2\",\"3B\",\"C2\",\"J\",\"50\"
\"\",\"\",\"approach-retreat\",\"54\",\"401151\",\"0.0-54.0\",\"\",\"\",\"2-2\",\"4199\",\"40\",\"1\",\"Training\",\"Stims/Figures/57-J-0-1.bmp\",\"sasaza\",\"Up\",\"40\",\"4\",\"3\",\"3B\",\"C2\",\"J\",\"51\"
\"\",\"\",\"approach-retreat\",\"55\",\"406945\",\"0.0-55.0\",\"\",\"\",\"2-2\",\"4289\",\"38\",\"1\",\"Training\",\"Stims/Figures/93-J-0-1.bmp\",\"sasaza\",\"Down\",\"38\",\"4\",\"4\",\"3B\",\"C2\",\"J\",\"52\"
\"\",\"\",\"approach-retreat\",\"56\",\"412714\",\"0.0-56.0\",\"\",\"\",\"2-2\",\"4265\",\"37\",\"1\",\"Training\",\"Stims/Figures/57-C-30-1.bmp\",\"fa:fasha\",\"Left\",\"37\",\"4\",\"5\",\"3B\",\"C1\",\"J\",\"53\"
\"\",\"\",\"approach-retreat\",\"57\",\"418344\",\"0.0-57.0\",\"\",\"\",\"2-2\",\"4124\",\"40\",\"1\",\"Training\",\"Stims/Figures/118-J-0-2.bmp\",\"sasaza\",\"Up\",\"40\",\"4\",\"6\",\"3B\",\"C2\",\"J\",\"54\"
\"\",\"\",\"approach-retreat\",\"58\",\"424078\",\"0.0-58.0\",\"\",\"\",\"2-2\",\"4230\",\"40\",\"1\",\"Training\",\"Stims/Figures/93-C-30-1.bmp\",\"fa:fasha\",\"Down\",\"40\",\"4\",\"7\",\"3B\",\"C1\",\"J\",\"55\"
\"\",\"\",\"approach-retreat\",\"59\",\"429652\",\"0.0-59.0\",\"\",\"\",\"2-2\",\"4065\",\"40\",\"1\",\"Training\",\"Stims/Figures/7-C-20-4.bmp\",\"fa:fasha\",\"Down\",\"40\",\"4\",\"8\",\"3B\",\"C1\",\"J\",\"56\"
\"\",\"\",\"approach-retreat\",\"60\",\"435291\",\"0.0-60.0\",\"\",\"\",\"2-2\",\"4136\",\"38\",\"1\",\"Training\",\"Stims/Figures/7-J-10-4.bmp\",\"sasaza\",\"Down\",\"38\",\"4\",\"9\",\"3B\",\"C2\",\"J\",\"57\"
\"\",\"\",\"approach-retreat\",\"61\",\"441000\",\"0.0-61.0\",\"\",\"\",\"2-2\",\"4204\",\"39\",\"1\",\"Training\",\"Stims/Figures/128-J-10-3.bmp\",\"sasaza\",\"Left\",\"39\",\"4\",\"10\",\"3B\",\"C2\",\"J\",\"58\"
\"\",\"\",\"approach-retreat\",\"62\",\"446715\",\"0.0-62.0\",\"\",\"\",\"2-2\",\"4209\",\"40\",\"1\",\"Training\",\"Stims/Figures/84-J-0-2.bmp\",\"sasaza\",\"Up\",\"40\",\"4\",\"11\",\"3B\",\"C2\",\"J\",\"59\"
\"\",\"\",\"approach-retreat\",\"63\",\"452369\",\"0.0-63.0\",\"\",\"\",\"2-2\",\"4150\",\"39\",\"1\",\"Training\",\"Stims/Figures/100-C-30-3.bmp\",\"fa:fasha\",\"Right\",\"39\",\"4\",\"12\",\"3B\",\"C1\",\"J\",\"60\"
\"\",\"\",\"approach-retreat\",\"64\",\"458166\",\"0.0-64.0\",\"\",\"\",\"2-2\",\"4291\",\"37\",\"1\",\"Training\",\"Stims/Figures/128-C-30-3.bmp\",\"fa:fasha\",\"Left\",\"37\",\"4\",\"13\",\"3B\",\"C1\",\"J\",\"61\"
\"\",\"\",\"approach-retreat\",\"65\",\"464077\",\"0.0-65.0\",\"\",\"\",\"2-2\",\"4407\",\"38\",\"1\",\"Training\",\"Stims/Figures/19-C-20-4.bmp\",\"fa:fasha\",\"Up\",\"38\",\"4\",\"14\",\"3B\",\"C1\",\"J\",\"62\"
\"\",\"\",\"approach-retreat\",\"66\",\"469816\",\"0.0-66.0\",\"\",\"\",\"2-2\",\"4232\",\"39\",\"1\",\"Training\",\"Stims/Figures/84-C-20-2.bmp\",\"fa:fasha\",\"Right\",\"39\",\"4\",\"15\",\"3B\",\"C1\",\"J\",\"63\"
\"\",\"\",\"approach-retreat\",\"67\",\"475623\",\"0.0-67.0\",\"\",\"\",\"2-2\",\"4303\",\"37\",\"1\",\"Training\",\"Stims/Figures/100-J-10-3.bmp\",\"sasaza\",\"Right\",\"37\",\"4\",\"16\",\"3B\",\"C2\",\"J\",\"64\"
\"\",\"\",\"approach-retreat\",\"68\",\"481935\",\"0.0-68.0\",\"\",\"\",\"2-2\",\"4808\",\"40\",\"1\",\"Training\",\"Stims/Figures/118-J-0-2.bmp\",\"sasaza\",\"Up\",\"40\",\"5\",\"1\",\"3B\",\"C2\",\"J\",\"65\"
\"\",\"\",\"approach-retreat\",\"69\",\"487742\",\"0.0-69.0\",\"\",\"\",\"2-2\",\"4303\",\"40\",\"1\",\"Training\",\"Stims/Figures/7-C-20-4.bmp\",\"fa:fasha\",\"Down\",\"40\",\"5\",\"2\",\"3B\",\"C1\",\"J\",\"66\"
\"\",\"\",\"approach-retreat\",\"70\",\"493326\",\"0.0-70.0\",\"\",\"\",\"2-2\",\"4078\",\"37\",\"1\",\"Training\",\"Stims/Figures/128-C-30-3.bmp\",\"fa:fasha\",\"Left\",\"37\",\"5\",\"3\",\"3B\",\"C1\",\"J\",\"67\"
\"\",\"\",\"approach-retreat\",\"71\",\"499043\",\"0.0-71.0\",\"\",\"\",\"2-2\",\"4215\",\"38\",\"1\",\"Training\",\"Stims/Figures/84-J-0-2.bmp\",\"sasaza\",\"Down\",\"38\",\"5\",\"4\",\"3B\",\"C2\",\"J\",\"68\"
\"\",\"\",\"approach-retreat\",\"72\",\"504854\",\"0.0-72.0\",\"\",\"\",\"2-2\",\"4306\",\"40\",\"1\",\"Training\",\"Stims/Figures/57-J-0-1.bmp\",\"sasaza\",\"Up\",\"40\",\"5\",\"5\",\"3B\",\"C2\",\"J\",\"69\"
\"\",\"\",\"approach-retreat\",\"73\",\"510724\",\"0.0-73.0\",\"\",\"\",\"2-2\",\"4365\",\"37\",\"1\",\"Training\",\"Stims/Figures/93-J-0-1.bmp\",\"sasaza\",\"Right\",\"37\",\"5\",\"6\",\"3B\",\"C2\",\"J\",\"70\"
\"\",\"\",\"approach-retreat\",\"74\",\"516301\",\"0.0-74.0\",\"\",\"\",\"2-2\",\"4072\",\"40\",\"1\",\"Training\",\"Stims/Figures/100-C-30-3.bmp\",\"fa:fasha\",\"Down\",\"40\",\"5\",\"7\",\"3B\",\"C1\",\"J\",\"71\"
\"\",\"\",\"approach-retreat\",\"75\",\"521881\",\"0.0-75.0\",\"\",\"\",\"2-2\",\"4073\",\"37\",\"1\",\"Training\",\"Stims/Figures/93-C-30-1.bmp\",\"fa:fasha\",\"Left\",\"37\",\"5\",\"8\",\"3B\",\"C1\",\"J\",\"72\"
\"\",\"\",\"approach-retreat\",\"76\",\"527506\",\"0.0-76.0\",\"\",\"\",\"2-2\",\"4122\",\"39\",\"1\",\"Training\",\"Stims/Figures/57-C-30-1.bmp\",\"fa:fasha\",\"Right\",\"39\",\"5\",\"9\",\"3B\",\"C1\",\"J\",\"73\"
\"\",\"\",\"approach-retreat\",\"77\",\"533104\",\"0.0-77.0\",\"\",\"\",\"2-2\",\"4094\",\"37\",\"1\",\"Training\",\"Stims/Figures/84-C-20-2.bmp\",\"fa:fasha\",\"Left\",\"37\",\"5\",\"10\",\"3B\",\"C1\",\"J\",\"74\"
\"\",\"\",\"approach-retreat\",\"78\",\"538822\",\"0.0-78.0\",\"\",\"\",\"2-2\",\"4211\",\"38\",\"1\",\"Training\",\"Stims/Figures/19-C-20-4.bmp\",\"fa:fasha\",\"Up\",\"38\",\"5\",\"11\",\"3B\",\"C1\",\"J\",\"75\"
\"\",\"\",\"approach-retreat\",\"79\",\"544470\",\"0.0-79.0\",\"\",\"\",\"2-2\",\"4141\",\"40\",\"1\",\"Training\",\"Stims/Figures/118-C-20-2.bmp\",\"fa:fasha\",\"Down\",\"40\",\"5\",\"12\",\"3B\",\"C1\",\"J\",\"76\"
\"\",\"\",\"approach-retreat\",\"80\",\"550164\",\"0.0-80.0\",\"\",\"\",\"2-2\",\"4190\",\"37\",\"1\",\"Training\",\"Stims/Figures/100-J-10-3.bmp\",\"sasaza\",\"Right\",\"37\",\"5\",\"13\",\"3B\",\"C2\",\"J\",\"77\"
\"\",\"\",\"approach-retreat\",\"81\",\"555997\",\"0.0-81.0\",\"\",\"\",\"2-2\",\"4327\",\"37\",\"1\",\"Training\",\"Stims/Figures/128-J-10-3.bmp\",\"sasaza\",\"Right\",\"37\",\"5\",\"14\",\"3B\",\"C2\",\"J\",\"78\"
\"\",\"\",\"approach-retreat\",\"82\",\"561593\",\"0.0-82.0\",\"\",\"\",\"2-2\",\"4092\",\"39\",\"1\",\"Training\",\"Stims/Figures/7-J-10-4.bmp\",\"sasaza\",\"Left\",\"39\",\"5\",\"15\",\"3B\",\"C2\",\"J\",\"79\"
\"\",\"\",\"approach-retreat\",\"83\",\"567221\",\"0.0-83.0\",\"\",\"\",\"2-2\",\"4124\",\"40\",\"1\",\"Training\",\"Stims/Figures/19-J-10-4.bmp\",\"sasaza\",\"Up\",\"40\",\"5\",\"16\",\"3B\",\"C2\",\"J\",\"80\"
\"\",\"\",\"approach-retreat\",\"84\",\"572993\",\"0.0-84.0\",\"\",\"\",\"2-2\",\"4265\",\"37\",\"1\",\"Training\",\"Stims/Figures/57-J-0-1.bmp\",\"sasaza\",\"Right\",\"37\",\"6\",\"1\",\"3B\",\"C2\",\"J\",\"81\"
\"\",\"\",\"approach-retreat\",\"85\",\"578553\",\"0.0-85.0\",\"\",\"\",\"2-2\",\"4055\",\"39\",\"1\",\"Training\",\"Stims/Figures/84-J-0-2.bmp\",\"sasaza\",\"Left\",\"39\",\"6\",\"2\",\"3B\",\"C2\",\"J\",\"82\"
\"\",\"\",\"approach-retreat\",\"86\",\"584377\",\"0.0-86.0\",\"\",\"\",\"2-2\",\"4318\",\"39\",\"1\",\"Training\",\"Stims/Figures/100-C-30-3.bmp\",\"fa:fasha\",\"Right\",\"39\",\"6\",\"3\",\"3B\",\"C1\",\"J\",\"83\"
\"\",\"\",\"approach-retreat\",\"87\",\"590045\",\"0.0-87.0\",\"\",\"\",\"2-2\",\"4159\",\"37\",\"1\",\"Training\",\"Stims/Figures/93-J-0-1.bmp\",\"sasaza\",\"Right\",\"37\",\"6\",\"4\",\"3B\",\"C2\",\"J\",\"84\"
\"\",\"\",\"approach-retreat\",\"88\",\"595645\",\"0.0-88.0\",\"\",\"\",\"2-2\",\"4093\",\"40\",\"1\",\"Training\",\"Stims/Figures/7-J-10-4.bmp\",\"sasaza\",\"Up\",\"40\",\"6\",\"5\",\"3B\",\"C2\",\"J\",\"85\"
\"\",\"\",\"approach-retreat\",\"89\",\"601582\",\"0.0-89.0\",\"\",\"\",\"2-2\",\"4433\",\"38\",\"1\",\"Training\",\"Stims/Figures/19-C-20-4.bmp\",\"fa:fasha\",\"Up\",\"38\",\"6\",\"6\",\"3B\",\"C1\",\"J\",\"86\"
\"\",\"\",\"approach-retreat\",\"90\",\"607184\",\"0.0-90.0\",\"\",\"\",\"2-2\",\"4098\",\"40\",\"1\",\"Training\",\"Stims/Figures/100-J-10-3.bmp\",\"sasaza\",\"Up\",\"40\",\"6\",\"7\",\"3B\",\"C2\",\"J\",\"87\"
\"\",\"\",\"approach-retreat\",\"91\",\"612908\",\"0.0-91.0\",\"\",\"\",\"2-2\",\"4220\",\"38\",\"1\",\"Training\",\"Stims/Figures/19-J-10-4.bmp\",\"sasaza\",\"Down\",\"38\",\"6\",\"8\",\"3B\",\"C2\",\"J\",\"88\"
\"\",\"\",\"approach-retreat\",\"92\",\"618697\",\"0.0-92.0\",\"\",\"\",\"2-2\",\"4284\",\"40\",\"1\",\"Training\",\"Stims/Figures/118-C-20-2.bmp\",\"fa:fasha\",\"Down\",\"40\",\"6\",\"9\",\"3B\",\"C1\",\"J\",\"89\"
\"\",\"\",\"approach-retreat\",\"93\",\"624494\",\"0.0-93.0\",\"\",\"\",\"2-2\",\"4293\",\"39\",\"1\",\"Training\",\"Stims/Figures/57-C-30-1.bmp\",\"fa:fasha\",\"Right\",\"39\",\"6\",\"10\",\"3B\",\"C1\",\"J\",\"90\"
\"\",\"\",\"approach-retreat\",\"94\",\"630392\",\"0.0-94.0\",\"\",\"\",\"2-2\",\"4392\",\"38\",\"1\",\"Training\",\"Stims/Figures/118-J-0-2.bmp\",\"sasaza\",\"Down\",\"38\",\"6\",\"11\",\"3B\",\"C2\",\"J\",\"91\"
\"\",\"\",\"approach-retreat\",\"95\",\"636029\",\"0.0-95.0\",\"\",\"\",\"2-2\",\"4133\",\"39\",\"1\",\"Training\",\"Stims/Figures/128-J-10-3.bmp\",\"sasaza\",\"Left\",\"39\",\"6\",\"12\",\"3B\",\"C2\",\"J\",\"92\"
\"\",\"\",\"approach-retreat\",\"96\",\"641606\",\"0.0-96.0\",\"\",\"\",\"2-2\",\"4072\",\"37\",\"1\",\"Training\",\"Stims/Figures/7-C-20-4.bmp\",\"fa:fasha\",\"Left\",\"37\",\"6\",\"13\",\"3B\",\"C1\",\"J\",\"93\"
\"\",\"\",\"approach-retreat\",\"97\",\"647539\",\"0.0-97.0\",\"\",\"\",\"2-2\",\"4427\",\"38\",\"1\",\"Training\",\"Stims/Figures/84-C-20-2.bmp\",\"fa:fasha\",\"Up\",\"38\",\"6\",\"14\",\"3B\",\"C1\",\"J\",\"94\"
\"\",\"\",\"approach-retreat\",\"98\",\"653167\",\"0.0-98.0\",\"\",\"\",\"2-2\",\"4121\",\"40\",\"1\",\"Training\",\"Stims/Figures/128-C-30-3.bmp\",\"fa:fasha\",\"Down\",\"40\",\"6\",\"15\",\"3B\",\"C1\",\"J\",\"95\"
\"\",\"\",\"approach-retreat\",\"99\",\"658752\",\"0.0-99.0\",\"\",\"\",\"2-2\",\"4080\",\"37\",\"1\",\"Training\",\"Stims/Figures/93-C-30-1.bmp\",\"fa:fasha\",\"Left\",\"37\",\"6\",\"16\",\"3B\",\"C1\",\"J\",\"96\"
\"\",\"\",\"approach-retreat\",\"100\",\"664441\",\"0.0-100.0\",\"\",\"\",\"2-2\",\"4183\",\"40\",\"1\",\"Training\",\"Stims/Figures/7-J-10-4.bmp\",\"sasaza\",\"Up\",\"40\",\"7\",\"1\",\"3B\",\"C2\",\"J\",\"97\"
\"\",\"\",\"approach-retreat\",\"101\",\"670089\",\"0.0-101.0\",\"\",\"\",\"2-2\",\"4143\",\"39\",\"1\",\"Training\",\"Stims/Figures/84-C-20-2.bmp\",\"fa:fasha\",\"Right\",\"39\",\"7\",\"2\",\"3B\",\"C1\",\"J\",\"98\"
\"\",\"\",\"approach-retreat\",\"102\",\"675682\",\"0.0-102.0\",\"\",\"\",\"2-2\",\"4089\",\"37\",\"1\",\"Training\",\"Stims/Figures/128-C-30-3.bmp\",\"fa:fasha\",\"Left\",\"37\",\"7\",\"3\",\"3B\",\"C1\",\"J\",\"99\"
\"\",\"\",\"approach-retreat\",\"103\",\"681422\",\"0.0-103.0\",\"\",\"\",\"2-2\",\"4232\",\"38\",\"1\",\"Training\",\"Stims/Figures/19-J-10-4.bmp\",\"sasaza\",\"Down\",\"38\",\"7\",\"4\",\"3B\",\"C2\",\"J\",\"100\"
\"\",\"\",\"approach-retreat\",\"104\",\"687042\",\"0.0-104.0\",\"\",\"\",\"2-2\",\"4113\",\"37\",\"1\",\"Training\",\"Stims/Figures/118-J-0-2.bmp\",\"sasaza\",\"Right\",\"37\",\"7\",\"5\",\"3B\",\"C2\",\"J\",\"101\"
\"\",\"\",\"approach-retreat\",\"105\",\"692742\",\"0.0-105.0\",\"\",\"\",\"2-2\",\"4196\",\"38\",\"0\",\"Training\",\"Stims/Figures/93-C-30-1.bmp\",\"fa:fasha\",\"Down\",\"40\",\"7\",\"6\",\"3B\",\"C1\",\"J\",\"102\"
\"\",\"\",\"approach-retreat\",\"106\",\"698451\",\"0.0-106.0\",\"\",\"\",\"2-2\",\"4204\",\"37\",\"1\",\"Training\",\"Stims/Figures/118-C-20-2.bmp\",\"fa:fasha\",\"Left\",\"37\",\"7\",\"7\",\"3B\",\"C1\",\"J\",\"103\"
\"\",\"\",\"approach-retreat\",\"107\",\"704071\",\"0.0-107.0\",\"\",\"\",\"2-2\",\"4114\",\"38\",\"1\",\"Training\",\"Stims/Figures/84-J-0-2.bmp\",\"sasaza\",\"Down\",\"38\",\"7\",\"8\",\"3B\",\"C2\",\"J\",\"104\"
\"\",\"\",\"approach-retreat\",\"108\",\"709750\",\"0.0-108.0\",\"\",\"\",\"2-2\",\"4175\",\"37\",\"1\",\"Training\",\"Stims/Figures/57-C-30-1.bmp\",\"fa:fasha\",\"Left\",\"37\",\"7\",\"9\",\"3B\",\"C1\",\"J\",\"105\"
\"\",\"\",\"approach-retreat\",\"109\",\"715351\",\"0.0-109.0\",\"\",\"\",\"2-2\",\"4093\",\"37\",\"1\",\"Training\",\"Stims/Figures/93-J-0-1.bmp\",\"sasaza\",\"Right\",\"37\",\"7\",\"10\",\"3B\",\"C2\",\"J\",\"106\"
\"\",\"\",\"approach-retreat\",\"110\",\"721023\",\"0.0-110.0\",\"\",\"\",\"2-2\",\"4169\",\"40\",\"1\",\"Training\",\"Stims/Figures/100-J-10-3.bmp\",\"sasaza\",\"Up\",\"40\",\"7\",\"11\",\"3B\",\"C2\",\"J\",\"107\"
\"\",\"\",\"approach-retreat\",\"111\",\"727388\",\"0.0-111.0\",\"\",\"\",\"2-2\",\"4861\",\"40\",\"1\",\"Training\",\"Stims/Figures/19-C-20-4.bmp\",\"fa:fasha\",\"Down\",\"40\",\"7\",\"12\",\"3B\",\"C1\",\"J\",\"108\"
\"\",\"\",\"approach-retreat\",\"112\",\"733344\",\"0.0-112.0\",\"\",\"\",\"2-2\",\"4452\",\"38\",\"1\",\"Training\",\"Stims/Figures/100-C-30-3.bmp\",\"fa:fasha\",\"Up\",\"38\",\"7\",\"13\",\"3B\",\"C1\",\"J\",\"109\"
\"\",\"\",\"approach-retreat\",\"113\",\"738973\",\"0.0-113.0\",\"\",\"\",\"2-2\",\"4127\",\"37\",\"1\",\"Training\",\"Stims/Figures/128-J-10-3.bmp\",\"sasaza\",\"Right\",\"37\",\"7\",\"14\",\"3B\",\"C2\",\"J\",\"110\"
\"\",\"\",\"approach-retreat\",\"114\",\"745142\",\"0.0-114.0\",\"\",\"\",\"2-2\",\"4662\",\"37\",\"1\",\"Training\",\"Stims/Figures/7-C-20-4.bmp\",\"fa:fasha\",\"Left\",\"37\",\"7\",\"15\",\"3B\",\"C1\",\"J\",\"111\"
\"\",\"\",\"approach-retreat\",\"115\",\"751464\",\"0.0-115.0\",\"\",\"\",\"2-2\",\"4815\",\"40\",\"1\",\"Training\",\"Stims/Figures/57-J-0-1.bmp\",\"sasaza\",\"Up\",\"40\",\"7\",\"16\",\"3B\",\"C2\",\"J\",\"112\"
\"\",\"\",\"approach-retreat\",\"116\",\"757132\",\"0.0-116.0\",\"\",\"\",\"2-2\",\"4162\",\"38\",\"1\",\"Training\",\"Stims/Figures/84-C-20-2.bmp\",\"fa:fasha\",\"Up\",\"38\",\"8\",\"1\",\"3B\",\"C1\",\"J\",\"113\"
\"\",\"\",\"approach-retreat\",\"117\",\"762719\",\"0.0-117.0\",\"\",\"\",\"2-2\",\"4081\",\"37\",\"1\",\"Training\",\"Stims/Figures/128-J-10-3.bmp\",\"sasaza\",\"Right\",\"37\",\"8\",\"2\",\"3B\",\"C2\",\"J\",\"114\"
\"\",\"\",\"approach-retreat\",\"118\",\"768476\",\"0.0-118.0\",\"\",\"\",\"2-2\",\"4251\",\"40\",\"1\",\"Training\",\"Stims/Figures/7-J-10-4.bmp\",\"sasaza\",\"Up\",\"40\",\"8\",\"3\",\"3B\",\"C2\",\"J\",\"115\"
\"\",\"\",\"approach-retreat\",\"119\",\"774173\",\"0.0-119.0\",\"\",\"\",\"2-2\",\"4193\",\"39\",\"1\",\"Training\",\"Stims/Figures/128-C-30-3.bmp\",\"fa:fasha\",\"Right\",\"39\",\"8\",\"4\",\"3B\",\"C1\",\"J\",\"116\"
\"\",\"\",\"approach-retreat\",\"120\",\"779828\",\"0.0-120.0\",\"\",\"\",\"2-2\",\"4148\",\"37\",\"1\",\"Training\",\"Stims/Figures/57-C-30-1.bmp\",\"fa:fasha\",\"Left\",\"37\",\"8\",\"5\",\"3B\",\"C1\",\"J\",\"117\"
\"\",\"\",\"approach-retreat\",\"121\",\"785925\",\"0.0-121.0\",\"\",\"\",\"2-2\",\"4591\",\"38\",\"1\",\"Training\",\"Stims/Figures/118-J-0-2.bmp\",\"sasaza\",\"Down\",\"38\",\"8\",\"6\",\"3B\",\"C2\",\"J\",\"118\"
\"\",\"\",\"approach-retreat\",\"122\",\"791507\",\"0.0-122.0\",\"\",\"\",\"2-2\",\"4078\",\"39\",\"1\",\"Training\",\"Stims/Figures/84-J-0-2.bmp\",\"sasaza\",\"Left\",\"39\",\"8\",\"7\",\"3B\",\"C2\",\"J\",\"119\"
\"\",\"\",\"approach-retreat\",\"123\",\"797189\",\"0.0-123.0\",\"\",\"\",\"2-2\",\"4177\",\"40\",\"1\",\"Training\",\"Stims/Figures/100-J-10-3.bmp\",\"sasaza\",\"Up\",\"40\",\"8\",\"8\",\"3B\",\"C2\",\"J\",\"120\"
\"\",\"\",\"approach-retreat\",\"124\",\"802721\",\"0.0-124.0\",\"\",\"\",\"2-2\",\"4026\",\"37\",\"1\",\"Training\",\"Stims/Figures/93-J-0-1.bmp\",\"sasaza\",\"Right\",\"37\",\"8\",\"9\",\"3B\",\"C2\",\"J\",\"121\"
\"\",\"\",\"approach-retreat\",\"125\",\"808643\",\"0.0-125.0\",\"\",\"\",\"2-2\",\"4416\",\"37\",\"1\",\"Training\",\"Stims/Figures/19-C-20-4.bmp\",\"fa:fasha\",\"Left\",\"37\",\"8\",\"10\",\"3B\",\"C1\",\"J\",\"122\"
\"\",\"\",\"approach-retreat\",\"126\",\"814327\",\"0.0-126.0\",\"\",\"\",\"2-2\",\"4178\",\"38\",\"1\",\"Training\",\"Stims/Figures/57-J-0-1.bmp\",\"sasaza\",\"Down\",\"38\",\"8\",\"11\",\"3B\",\"C2\",\"J\",\"123\"
\"\",\"\",\"approach-retreat\",\"127\",\"820124\",\"0.0-127.0\",\"\",\"\",\"2-2\",\"4292\",\"38\",\"1\",\"Training\",\"Stims/Figures/7-C-20-4.bmp\",\"fa:fasha\",\"Up\",\"38\",\"8\",\"12\",\"3B\",\"C1\",\"J\",\"124\"
\"\",\"\",\"approach-retreat\",\"128\",\"825836\",\"0.0-128.0\",\"\",\"\",\"2-2\",\"4208\",\"40\",\"1\",\"Training\",\"Stims/Figures/93-C-30-1.bmp\",\"fa:fasha\",\"Down\",\"40\",\"8\",\"13\",\"3B\",\"C1\",\"J\",\"125\"
\"\",\"\",\"approach-retreat\",\"129\",\"831521\",\"0.0-129.0\",\"\",\"\",\"2-2\",\"4181\",\"40\",\"1\",\"Training\",\"Stims/Figures/118-C-20-2.bmp\",\"fa:fasha\",\"Down\",\"40\",\"8\",\"14\",\"3B\",\"C1\",\"J\",\"126\"
\"\",\"\",\"approach-retreat\",\"130\",\"837192\",\"0.0-130.0\",\"\",\"\",\"2-2\",\"4166\",\"37\",\"1\",\"Training\",\"Stims/Figures/100-C-30-3.bmp\",\"fa:fasha\",\"Left\",\"37\",\"8\",\"15\",\"3B\",\"C1\",\"J\",\"127\"
\"\",\"\",\"approach-retreat\",\"131\",\"842985\",\"0.0-131.0\",\"\",\"\",\"2-2\",\"4287\",\"37\",\"1\",\"Training\",\"Stims/Figures/19-J-10-4.bmp\",\"sasaza\",\"Right\",\"37\",\"8\",\"16\",\"3B\",\"C2\",\"J\",\"128\"
\"\",\"\",\"approach-retreat\",\"132\",\"848555\",\"0.0-132.0\",\"\",\"\",\"2-2\",\"4066\",\"39\",\"1\",\"Training\",\"Stims/Figures/128-J-10-3.bmp\",\"sasaza\",\"Left\",\"39\",\"9\",\"1\",\"3B\",\"C2\",\"J\",\"129\"
\"\",\"\",\"approach-retreat\",\"133\",\"854100\",\"0.0-133.0\",\"\",\"\",\"2-2\",\"4041\",\"38\",\"1\",\"Training\",\"Stims/Figures/57-J-0-1.bmp\",\"sasaza\",\"Down\",\"38\",\"9\",\"2\",\"3B\",\"C2\",\"J\",\"130\"
\"\",\"\",\"approach-retreat\",\"134\",\"859725\",\"0.0-134.0\",\"\",\"\",\"2-2\",\"4119\",\"39\",\"1\",\"Training\",\"Stims/Figures/7-C-20-4.bmp\",\"fa:fasha\",\"Right\",\"39\",\"9\",\"3\",\"3B\",\"C1\",\"J\",\"131\"
\"\",\"\",\"approach-retreat\",\"135\",\"865343\",\"0.0-135.0\",\"\",\"\",\"2-2\",\"4114\",\"40\",\"1\",\"Training\",\"Stims/Figures/100-J-10-3.bmp\",\"sasaza\",\"Up\",\"40\",\"9\",\"4\",\"3B\",\"C2\",\"J\",\"132\"
\"\",\"\",\"approach-retreat\",\"136\",\"870991\",\"0.0-136.0\",\"\",\"\",\"2-2\",\"4142\",\"37\",\"0\",\"Training\",\"Stims/Figures/19-C-20-4.bmp\",\"fa:fasha\",\"Right\",\"39\",\"9\",\"5\",\"3B\",\"C1\",\"J\",\"133\"
\"\",\"\",\"approach-retreat\",\"137\",\"876659\",\"0.0-137.0\",\"\",\"\",\"2-2\",\"4164\",\"40\",\"1\",\"Training\",\"Stims/Figures/118-J-0-2.bmp\",\"sasaza\",\"Up\",\"40\",\"9\",\"6\",\"3B\",\"C2\",\"J\",\"134\"
\"\",\"\",\"approach-retreat\",\"138\",\"882379\",\"0.0-138.0\",\"\",\"\",\"2-2\",\"4215\",\"37\",\"1\",\"Training\",\"Stims/Figures/118-C-20-2.bmp\",\"fa:fasha\",\"Left\",\"37\",\"9\",\"7\",\"3B\",\"C1\",\"J\",\"135\"
\"\",\"\",\"approach-retreat\",\"139\",\"888119\",\"0.0-139.0\",\"\",\"\",\"2-2\",\"4237\",\"38\",\"1\",\"Training\",\"Stims/Figures/19-J-10-4.bmp\",\"sasaza\",\"Down\",\"38\",\"9\",\"8\",\"3B\",\"C2\",\"J\",\"136\"
\"\",\"\",\"approach-retreat\",\"140\",\"894582\",\"0.0-140.0\",\"\",\"\",\"2-2\",\"4958\",\"38\",\"1\",\"Training\",\"Stims/Figures/93-C-30-1.bmp\",\"fa:fasha\",\"Up\",\"38\",\"9\",\"9\",\"3B\",\"C1\",\"J\",\"137\"
\"\",\"\",\"approach-retreat\",\"141\",\"900211\",\"0.0-141.0\",\"\",\"\",\"2-2\",\"4124\",\"38\",\"1\",\"Training\",\"Stims/Figures/57-C-30-1.bmp\",\"fa:fasha\",\"Up\",\"38\",\"9\",\"10\",\"3B\",\"C1\",\"J\",\"138\"
\"\",\"\",\"approach-retreat\",\"142\",\"905916\",\"0.0-142.0\",\"\",\"\",\"2-2\",\"4200\",\"37\",\"1\",\"Training\",\"Stims/Figures/7-J-10-4.bmp\",\"sasaza\",\"Right\",\"37\",\"9\",\"11\",\"3B\",\"C2\",\"J\",\"139\"
\"\",\"\",\"approach-retreat\",\"143\",\"911374\",\"0.0-143.0\",\"\",\"\",\"2-2\",\"3953\",\"40\",\"1\",\"Training\",\"Stims/Figures/100-C-30-3.bmp\",\"fa:fasha\",\"Down\",\"40\",\"9\",\"12\",\"3B\",\"C1\",\"J\",\"140\"
\"\",\"\",\"approach-retreat\",\"144\",\"917031\",\"0.0-144.0\",\"\",\"\",\"2-2\",\"4152\",\"39\",\"1\",\"Training\",\"Stims/Figures/84-J-0-2.bmp\",\"sasaza\",\"Left\",\"39\",\"9\",\"13\",\"3B\",\"C2\",\"J\",\"141\"
\"\",\"\",\"approach-retreat\",\"145\",\"922702\",\"0.0-145.0\",\"\",\"\",\"2-2\",\"4166\",\"38\",\"1\",\"Training\",\"Stims/Figures/93-J-0-1.bmp\",\"sasaza\",\"Down\",\"38\",\"9\",\"14\",\"3B\",\"C2\",\"J\",\"142\"
\"\",\"\",\"approach-retreat\",\"146\",\"928269\",\"0.0-146.0\",\"\",\"\",\"2-2\",\"4064\",\"39\",\"1\",\"Training\",\"Stims/Figures/128-C-30-3.bmp\",\"fa:fasha\",\"Right\",\"39\",\"9\",\"15\",\"3B\",\"C1\",\"J\",\"143\"
\"\",\"\",\"approach-retreat\",\"147\",\"933960\",\"0.0-147.0\",\"\",\"\",\"2-2\",\"4186\",\"37\",\"1\",\"Training\",\"Stims/Figures/84-C-20-2.bmp\",\"fa:fasha\",\"Left\",\"37\",\"9\",\"16\",\"3B\",\"C1\",\"J\",\"144\"
\"9719\",\"\",\"instructions\",\"148\",\"943679\",\"0.0-148.0\",\"[{\"\"page_index\"\":0,\"\"viewing_time\"\":9719}]\",\"\",\"\",\"\",\"\",\"\",\"\",\"\",\"\",\"\",\"\",\"\",\"\",\"\",\"\",\"\",\"\"
\"\",\"\",\"approach-retreat\",\"149\",\"949608\",\"0.0-149.0\",\"\",\"\",\"2-2\",\"4423\",\"38\",\"1\",\"Testing\",\"Stims/Figures/144-C-30-3.bmp\",\"fa:fasha\",\"Up\",\"38\",\"1\",\"1\",\"3B\",\"C1\",\"J\",\"1\"
\"\",\"\",\"approach-retreat\",\"150\",\"955392\",\"0.0-150.0\",\"\",\"\",\"2-2\",\"4279\",\"38\",\"1\",\"Testing\",\"Stims/Figures/84-C-20-2.bmp\",\"fa:fasha\",\"Up\",\"38\",\"1\",\"2\",\"3B\",\"C1\",\"J\",\"2\"
\"\",\"\",\"approach-retreat\",\"151\",\"961566\",\"0.0-151.0\",\"\",\"\",\"2-2\",\"4669\",\"38\",\"0\",\"Testing\",\"Stims/Figures/94-J-0-2.bmp\",\"sasaza\",\"Up\",\"40\",\"1\",\"3\",\"3B\",\"C2\",\"J\",\"3\"
\"\",\"\",\"approach-retreat\",\"152\",\"967841\",\"0.0-152.0\",\"\",\"\",\"2-2\",\"4772\",\"39\",\"1\",\"Testing\",\"Stims/Figures/93-J-0-1.bmp\",\"sasaza\",\"Left\",\"39\",\"1\",\"4\",\"3B\",\"C2\",\"J\",\"4\"
\"\",\"\",\"approach-retreat\",\"153\",\"973672\",\"0.0-153.0\",\"\",\"\",\"2-2\",\"4325\",\"37\",\"1\",\"Testing\",\"Stims/Figures/57-J-0-1.bmp\",\"sasaza\",\"Right\",\"37\",\"1\",\"5\",\"3B\",\"C2\",\"J\",\"5\"
\"\",\"\",\"approach-retreat\",\"154\",\"979956\",\"0.0-154.0\",\"\",\"\",\"2-2\",\"4778\",\"37\",\"1\",\"Testing\",\"Stims/Figures/100-J-10-3.bmp\",\"sasaza\",\"Right\",\"37\",\"1\",\"6\",\"3B\",\"C2\",\"J\",\"6\"
\"\",\"\",\"approach-retreat\",\"155\",\"985712\",\"0.0-155.0\",\"\",\"\",\"2-2\",\"4251\",\"40\",\"1\",\"Testing\",\"Stims/Figures/128-C-30-3.bmp\",\"fa:fasha\",\"Down\",\"40\",\"1\",\"7\",\"3B\",\"C1\",\"J\",\"7\"
\"\",\"\",\"approach-retreat\",\"156\",\"991378\",\"0.0-156.0\",\"\",\"\",\"2-2\",\"4162\",\"37\",\"1\",\"Testing\",\"Stims/Figures/74-C-20-4.bmp\",\"fa:fasha\",\"Left\",\"37\",\"1\",\"8\",\"3B\",\"C1\",\"J\",\"8\"
\"\",\"\",\"approach-retreat\",\"157\",\"997113\",\"0.0-157.0\",\"\",\"\",\"2-2\",\"4230\",\"38\",\"1\",\"Testing\",\"Stims/Figures/86-J-0-1.bmp\",\"sasaza\",\"Down\",\"38\",\"1\",\"9\",\"3B\",\"C2\",\"J\",\"9\"
\"\",\"\",\"approach-retreat\",\"158\",\"1002745\",\"0.0-158.0\",\"\",\"\",\"2-2\",\"4125\",\"40\",\"1\",\"Testing\",\"Stims/Figures/118-C-20-2.bmp\",\"fa:fasha\",\"Down\",\"40\",\"1\",\"10\",\"3B\",\"C1\",\"J\",\"10\"
\"\",\"\",\"approach-retreat\",\"159\",\"1008522\",\"0.0-159.0\",\"\",\"\",\"2-2\",\"4272\",\"38\",\"1\",\"Testing\",\"Stims/Figures/144-J-10-3.bmp\",\"sasaza\",\"Down\",\"38\",\"1\",\"11\",\"3B\",\"C2\",\"J\",\"11\"
\"\",\"\",\"approach-retreat\",\"160\",\"1014197\",\"0.0-160.0\",\"\",\"\",\"2-2\",\"4169\",\"37\",\"1\",\"Testing\",\"Stims/Figures/19-C-20-4.bmp\",\"fa:fasha\",\"Left\",\"37\",\"1\",\"12\",\"3B\",\"C1\",\"J\",\"12\"
\"\",\"\",\"approach-retreat\",\"161\",\"1020429\",\"0.0-161.0\",\"\",\"\",\"2-2\",\"4726\",\"38\",\"1\",\"Testing\",\"Stims/Figures/94-C-20-2.bmp\",\"fa:fasha\",\"Up\",\"38\",\"1\",\"13\",\"3B\",\"C1\",\"J\",\"13\"
\"\",\"\",\"approach-retreat\",\"162\",\"1026314\",\"0.0-162.0\",\"\",\"\",\"2-2\",\"4379\",\"39\",\"1\",\"Testing\",\"Stims/Figures/118-J-0-2.bmp\",\"sasaza\",\"Left\",\"39\",\"1\",\"14\",\"3B\",\"C2\",\"J\",\"14\"
\"\",\"\",\"approach-retreat\",\"163\",\"1031953\",\"0.0-163.0\",\"\",\"\",\"2-2\",\"4134\",\"37\",\"0\",\"Testing\",\"Stims/Figures/19-J-10-4.bmp\",\"sasaza\",\"Left\",\"39\",\"1\",\"15\",\"3B\",\"C2\",\"J\",\"15\"
\"\",\"\",\"approach-retreat\",\"164\",\"1037708\",\"0.0-164.0\",\"\",\"\",\"2-2\",\"4250\",\"40\",\"1\",\"Testing\",\"Stims/Figures/7-C-20-4.bmp\",\"fa:fasha\",\"Down\",\"40\",\"1\",\"16\",\"3B\",\"C1\",\"J\",\"16\"
\"\",\"\",\"approach-retreat\",\"165\",\"1043622\",\"0.0-165.0\",\"\",\"\",\"2-2\",\"4409\",\"39\",\"1\",\"Testing\",\"Stims/Figures/100-C-30-3.bmp\",\"fa:fasha\",\"Right\",\"39\",\"1\",\"17\",\"3B\",\"C1\",\"J\",\"17\"
\"\",\"\",\"approach-retreat\",\"166\",\"1049261\",\"0.0-166.0\",\"\",\"\",\"2-2\",\"4134\",\"39\",\"1\",\"Testing\",\"Stims/Figures/74-J-10-4.bmp\",\"sasaza\",\"Left\",\"39\",\"1\",\"18\",\"3B\",\"C2\",\"J\",\"18\"
\"\",\"\",\"approach-retreat\",\"167\",\"1054997\",\"0.0-167.0\",\"\",\"\",\"2-2\",\"4228\",\"37\",\"1\",\"Testing\",\"Stims/Figures/84-J-0-2.bmp\",\"sasaza\",\"Right\",\"37\",\"1\",\"19\",\"3B\",\"C2\",\"J\",\"19\"
\"\",\"\",\"approach-retreat\",\"168\",\"1060654\",\"0.0-168.0\",\"\",\"\",\"2-2\",\"4155\",\"40\",\"1\",\"Testing\",\"Stims/Figures/93-C-30-1.bmp\",\"fa:fasha\",\"Down\",\"40\",\"1\",\"20\",\"3B\",\"C1\",\"J\",\"20\"
\"\",\"\",\"approach-retreat\",\"169\",\"1066846\",\"0.0-169.0\",\"\",\"\",\"2-2\",\"4686\",\"37\",\"1\",\"Testing\",\"Stims/Figures/7-J-10-4.bmp\",\"sasaza\",\"Right\",\"37\",\"1\",\"21\",\"3B\",\"C2\",\"J\",\"21\"
\"\",\"\",\"approach-retreat\",\"170\",\"1072458\",\"0.0-170.0\",\"\",\"\",\"2-2\",\"4105\",\"39\",\"1\",\"Testing\",\"Stims/Figures/86-C-30-1.bmp\",\"fa:fasha\",\"Right\",\"39\",\"1\",\"22\",\"3B\",\"C1\",\"J\",\"22\"
\"\",\"\",\"approach-retreat\",\"171\",\"1078742\",\"0.0-171.0\",\"\",\"\",\"2-2\",\"4778\",\"38\",\"1\",\"Testing\",\"Stims/Figures/57-C-30-1.bmp\",\"fa:fasha\",\"Up\",\"38\",\"1\",\"23\",\"3B\",\"C1\",\"J\",\"23\"
\"\",\"\",\"approach-retreat\",\"172\",\"1084828\",\"0.0-172.0\",\"\",\"\",\"2-2\",\"4583\",\"40\",\"1\",\"Testing\",\"Stims/Figures/128-J-10-3.bmp\",\"sasaza\",\"Up\",\"40\",\"1\",\"24\",\"3B\",\"C2\",\"J\",\"24\"
\"\",\"\",\"approach-retreat\",\"173\",\"1090875\",\"0.0-173.0\",\"\",\"\",\"2-2\",\"4542\",\"40\",\"1\",\"Testing\",\"Stims/Figures/7-J-10-4.bmp\",\"sasaza\",\"Up\",\"40\",\"2\",\"1\",\"3B\",\"C2\",\"J\",\"25\"
\"\",\"\",\"approach-retreat\",\"174\",\"1096846\",\"0.0-174.0\",\"\",\"\",\"2-2\",\"4467\",\"37\",\"1\",\"Testing\",\"Stims/Figures/128-J-10-3.bmp\",\"sasaza\",\"Right\",\"37\",\"2\",\"2\",\"3B\",\"C2\",\"J\",\"26\"
\"\",\"\",\"approach-retreat\",\"175\",\"1102616\",\"0.0-175.0\",\"\",\"\",\"2-2\",\"4266\",\"39\",\"1\",\"Testing\",\"Stims/Figures/93-C-30-1.bmp\",\"fa:fasha\",\"Right\",\"39\",\"2\",\"3\",\"3B\",\"C1\",\"J\",\"27\"
\"\",\"\",\"approach-retreat\",\"176\",\"1108330\",\"0.0-176.0\",\"\",\"\",\"2-2\",\"4208\",\"40\",\"1\",\"Testing\",\"Stims/Figures/86-C-30-1.bmp\",\"fa:fasha\",\"Down\",\"40\",\"2\",\"4\",\"3B\",\"C1\",\"J\",\"28\"
\"\",\"\",\"approach-retreat\",\"177\",\"1113927\",\"0.0-177.0\",\"\",\"\",\"2-2\",\"4093\",\"39\",\"1\",\"Testing\",\"Stims/Figures/94-C-20-2.bmp\",\"fa:fasha\",\"Right\",\"39\",\"2\",\"5\",\"3B\",\"C1\",\"J\",\"29\"
\"\",\"\",\"approach-retreat\",\"178\",\"1119733\",\"0.0-178.0\",\"\",\"\",\"2-2\",\"4300\",\"40\",\"1\",\"Testing\",\"Stims/Figures/84-C-20-2.bmp\",\"fa:fasha\",\"Down\",\"40\",\"2\",\"6\",\"3B\",\"C1\",\"J\",\"30\"
\"\",\"\",\"approach-retreat\",\"179\",\"1125291\",\"0.0-179.0\",\"\",\"\",\"2-2\",\"4053\",\"40\",\"1\",\"Testing\",\"Stims/Figures/74-C-20-4.bmp\",\"fa:fasha\",\"Down\",\"40\",\"2\",\"7\",\"3B\",\"C1\",\"J\",\"31\"
\"\",\"\",\"approach-retreat\",\"180\",\"1130974\",\"0.0-180.0\",\"\",\"\",\"2-2\",\"4179\",\"39\",\"1\",\"Testing\",\"Stims/Figures/74-J-10-4.bmp\",\"sasaza\",\"Left\",\"39\",\"2\",\"8\",\"3B\",\"C2\",\"J\",\"32\"
\"\",\"\",\"approach-retreat\",\"181\",\"1136585\",\"0.0-181.0\",\"\",\"\",\"2-2\",\"4106\",\"40\",\"1\",\"Testing\",\"Stims/Figures/19-C-20-4.bmp\",\"fa:fasha\",\"Down\",\"40\",\"2\",\"9\",\"3B\",\"C1\",\"J\",\"33\"
\"\",\"\",\"approach-retreat\",\"182\",\"1142170\",\"0.0-182.0\",\"\",\"\",\"2-2\",\"4080\",\"40\",\"1\",\"Testing\",\"Stims/Figures/100-C-30-3.bmp\",\"fa:fasha\",\"Down\",\"40\",\"2\",\"10\",\"3B\",\"C1\",\"J\",\"34\"
\"\",\"\",\"approach-retreat\",\"183\",\"1148126\",\"0.0-183.0\",\"\",\"\",\"2-2\",\"4452\",\"39\",\"1\",\"Testing\",\"Stims/Figures/84-J-0-2.bmp\",\"sasaza\",\"Left\",\"39\",\"2\",\"11\",\"3B\",\"C2\",\"J\",\"35\"
\"\",\"\",\"approach-retreat\",\"184\",\"1153661\",\"0.0-184.0\",\"\",\"\",\"2-2\",\"4031\",\"39\",\"1\",\"Testing\",\"Stims/Figures/93-J-0-1.bmp\",\"sasaza\",\"Left\",\"39\",\"2\",\"12\",\"3B\",\"C2\",\"J\",\"36\"
\"\",\"\",\"approach-retreat\",\"185\",\"1159668\",\"0.0-185.0\",\"\",\"\",\"2-2\",\"4502\",\"40\",\"1\",\"Testing\",\"Stims/Figures/118-J-0-2.bmp\",\"sasaza\",\"Up\",\"40\",\"2\",\"13\",\"3B\",\"C2\",\"J\",\"37\"
\"\",\"\",\"approach-retreat\",\"186\",\"1165267\",\"0.0-186.0\",\"\",\"\",\"2-2\",\"4095\",\"39\",\"1\",\"Testing\",\"Stims/Figures/57-J-0-1.bmp\",\"sasaza\",\"Left\",\"39\",\"2\",\"14\",\"3B\",\"C2\",\"J\",\"38\"
\"\",\"\",\"approach-retreat\",\"187\",\"1171039\",\"0.0-187.0\",\"\",\"\",\"2-2\",\"4267\",\"38\",\"1\",\"Testing\",\"Stims/Figures/100-J-10-3.bmp\",\"sasaza\",\"Down\",\"38\",\"2\",\"15\",\"3B\",\"C2\",\"J\",\"39\"
\"\",\"\",\"approach-retreat\",\"188\",\"1176707\",\"0.0-188.0\",\"\",\"\",\"2-2\",\"4164\",\"38\",\"1\",\"Testing\",\"Stims/Figures/144-C-30-3.bmp\",\"fa:fasha\",\"Up\",\"38\",\"2\",\"16\",\"3B\",\"C1\",\"J\",\"40\"
\"\",\"\",\"approach-retreat\",\"189\",\"1182741\",\"0.0-189.0\",\"\",\"\",\"2-2\",\"4529\",\"38\",\"1\",\"Testing\",\"Stims/Figures/57-C-30-1.bmp\",\"fa:fasha\",\"Up\",\"38\",\"2\",\"17\",\"3B\",\"C1\",\"J\",\"41\"
\"\",\"\",\"approach-retreat\",\"190\",\"1188425\",\"0.0-190.0\",\"\",\"\",\"2-2\",\"4178\",\"39\",\"1\",\"Testing\",\"Stims/Figures/118-C-20-2.bmp\",\"fa:fasha\",\"Right\",\"39\",\"2\",\"18\",\"3B\",\"C1\",\"J\",\"42\"
\"\",\"\",\"approach-retreat\",\"191\",\"1194500\",\"0.0-191.0\",\"\",\"\",\"2-2\",\"4571\",\"39\",\"1\",\"Testing\",\"Stims/Figures/144-J-10-3.bmp\",\"sasaza\",\"Left\",\"39\",\"2\",\"19\",\"3B\",\"C2\",\"J\",\"43\"
\"\",\"\",\"approach-retreat\",\"192\",\"1200518\",\"0.0-192.0\",\"\",\"\",\"2-2\",\"4511\",\"40\",\"1\",\"Testing\",\"Stims/Figures/86-J-0-1.bmp\",\"sasaza\",\"Up\",\"40\",\"2\",\"20\",\"3B\",\"C2\",\"J\",\"44\"
\"\",\"\",\"approach-retreat\",\"193\",\"1206404\",\"0.0-193.0\",\"\",\"\",\"2-2\",\"4383\",\"39\",\"1\",\"Testing\",\"Stims/Figures/128-C-30-3.bmp\",\"fa:fasha\",\"Right\",\"39\",\"2\",\"21\",\"3B\",\"C1\",\"J\",\"45\"
\"\",\"\",\"approach-retreat\",\"194\",\"1212202\",\"0.0-194.0\",\"\",\"\",\"2-2\",\"4296\",\"37\",\"1\",\"Testing\",\"Stims/Figures/94-J-0-2.bmp\",\"sasaza\",\"Right\",\"37\",\"2\",\"22\",\"3B\",\"C2\",\"J\",\"46\"
\"\",\"\",\"approach-retreat\",\"195\",\"1217953\",\"0.0-195.0\",\"\",\"\",\"2-2\",\"4247\",\"38\",\"0\",\"Testing\",\"Stims/Figures/19-J-10-4.bmp\",\"sasaza\",\"Up\",\"40\",\"2\",\"23\",\"3B\",\"C2\",\"J\",\"47\"
\"\",\"\",\"approach-retreat\",\"196\",\"1224216\",\"0.0-196.0\",\"\",\"\",\"2-2\",\"4759\",\"37\",\"1\",\"Testing\",\"Stims/Figures/7-C-20-4.bmp\",\"fa:fasha\",\"Left\",\"37\",\"2\",\"24\",\"3B\",\"C1\",\"J\",\"48\"
\"\",\"\",\"approach-retreat\",\"197\",\"1229958\",\"0.0-197.0\",\"\",\"\",\"2-2\",\"4238\",\"37\",\"1\",\"Testing\",\"Stims/Figures/144-J-10-3.bmp\",\"sasaza\",\"Right\",\"37\",\"3\",\"1\",\"3B\",\"C2\",\"J\",\"49\"
\"\",\"\",\"approach-retreat\",\"198\",\"1235894\",\"0.0-198.0\",\"\",\"\",\"2-2\",\"4432\",\"40\",\"1\",\"Testing\",\"Stims/Figures/118-J-0-2.bmp\",\"sasaza\",\"Up\",\"40\",\"3\",\"2\",\"3B\",\"C2\",\"J\",\"50\"
\"\",\"\",\"approach-retreat\",\"199\",\"1242101\",\"0.0-199.0\",\"\",\"\",\"2-2\",\"4704\",\"37\",\"1\",\"Testing\",\"Stims/Figures/100-J-10-3.bmp\",\"sasaza\",\"Right\",\"37\",\"3\",\"3\",\"3B\",\"C2\",\"J\",\"51\"
\"\",\"\",\"approach-retreat\",\"200\",\"1247796\",\"0.0-200.0\",\"\",\"\",\"2-2\",\"4189\",\"37\",\"1\",\"Testing\",\"Stims/Figures/7-C-20-4.bmp\",\"fa:fasha\",\"Left\",\"37\",\"3\",\"4\",\"3B\",\"C1\",\"J\",\"52\"
\"\",\"\",\"approach-retreat\",\"201\",\"1253543\",\"0.0-201.0\",\"\",\"\",\"2-2\",\"4245\",\"40\",\"1\",\"Testing\",\"Stims/Figures/94-J-0-2.bmp\",\"sasaza\",\"Up\",\"40\",\"3\",\"5\",\"3B\",\"C2\",\"J\",\"53\"
\"\",\"\",\"approach-retreat\",\"202\",\"1259582\",\"0.0-202.0\",\"\",\"\",\"2-2\",\"4536\",\"39\",\"1\",\"Testing\",\"Stims/Figures/94-C-20-2.bmp\",\"fa:fasha\",\"Right\",\"39\",\"3\",\"6\",\"3B\",\"C1\",\"J\",\"54\"
\"\",\"\",\"approach-retreat\",\"203\",\"1265319\",\"0.0-203.0\",\"\",\"\",\"2-2\",\"4233\",\"38\",\"1\",\"Testing\",\"Stims/Figures/84-J-0-2.bmp\",\"sasaza\",\"Down\",\"38\",\"3\",\"7\",\"3B\",\"C2\",\"J\",\"55\"
\"\",\"\",\"approach-retreat\",\"204\",\"1271566\",\"0.0-204.0\",\"\",\"\",\"2-2\",\"4743\",\"39\",\"1\",\"Testing\",\"Stims/Figures/74-C-20-4.bmp\",\"fa:fasha\",\"Right\",\"39\",\"3\",\"8\",\"3B\",\"C1\",\"J\",\"56\"
\"\",\"\",\"approach-retreat\",\"205\",\"1277313\",\"0.0-205.0\",\"\",\"\",\"2-2\",\"4243\",\"38\",\"1\",\"Testing\",\"Stims/Figures/86-J-0-1.bmp\",\"sasaza\",\"Down\",\"38\",\"3\",\"9\",\"3B\",\"C2\",\"J\",\"57\"
\"\",\"\",\"approach-retreat\",\"206\",\"1283063\",\"0.0-206.0\",\"\",\"\",\"2-2\",\"4247\",\"38\",\"0\",\"Testing\",\"Stims/Figures/19-J-10-4.bmp\",\"sasaza\",\"Up\",\"40\",\"3\",\"10\",\"3B\",\"C2\",\"J\",\"58\"
\"\",\"\",\"approach-retreat\",\"207\",\"1288673\",\"0.0-207.0\",\"\",\"\",\"2-2\",\"4106\",\"37\",\"0\",\"Testing\",\"Stims/Figures/128-J-10-3.bmp\",\"sasaza\",\"Left\",\"39\",\"3\",\"11\",\"3B\",\"C2\",\"J\",\"59\"
\"\",\"\",\"approach-retreat\",\"208\",\"1294249\",\"0.0-208.0\",\"\",\"\",\"2-2\",\"4070\",\"37\",\"1\",\"Testing\",\"Stims/Figures/128-C-30-3.bmp\",\"fa:fasha\",\"Left\",\"37\",\"3\",\"12\",\"3B\",\"C1\",\"J\",\"60\"
\"\",\"\",\"approach-retreat\",\"209\",\"1299796\",\"0.0-209.0\",\"\",\"\",\"2-2\",\"4043\",\"37\",\"1\",\"Testing\",\"Stims/Figures/144-C-30-3.bmp\",\"fa:fasha\",\"Left\",\"37\",\"3\",\"13\",\"3B\",\"C1\",\"J\",\"61\"
\"\",\"\",\"approach-retreat\",\"210\",\"1305408\",\"0.0-210.0\",\"\",\"\",\"2-2\",\"4107\",\"37\",\"1\",\"Testing\",\"Stims/Figures/84-C-20-2.bmp\",\"fa:fasha\",\"Left\",\"37\",\"3\",\"14\",\"3B\",\"C1\",\"J\",\"62\"
\"\",\"\",\"approach-retreat\",\"211\",\"1311159\",\"0.0-211.0\",\"\",\"\",\"2-2\",\"4245\",\"38\",\"1\",\"Testing\",\"Stims/Figures/86-C-30-1.bmp\",\"fa:fasha\",\"Up\",\"38\",\"3\",\"15\",\"3B\",\"C1\",\"J\",\"63\"
\"\",\"\",\"approach-retreat\",\"212\",\"1316977\",\"0.0-212.0\",\"\",\"\",\"2-2\",\"4314\",\"40\",\"1\",\"Testing\",\"Stims/Figures/19-C-20-4.bmp\",\"fa:fasha\",\"Down\",\"40\",\"3\",\"16\",\"3B\",\"C1\",\"J\",\"64\"
\"\",\"\",\"approach-retreat\",\"213\",\"1322758\",\"0.0-213.0\",\"\",\"\",\"2-2\",\"4277\",\"39\",\"1\",\"Testing\",\"Stims/Figures/100-C-30-3.bmp\",\"fa:fasha\",\"Right\",\"39\",\"3\",\"17\",\"3B\",\"C1\",\"J\",\"65\"
\"\",\"\",\"approach-retreat\",\"214\",\"1328728\",\"0.0-214.0\",\"\",\"\",\"2-2\",\"4466\",\"39\",\"1\",\"Testing\",\"Stims/Figures/7-J-10-4.bmp\",\"sasaza\",\"Left\",\"39\",\"3\",\"18\",\"3B\",\"C2\",\"J\",\"66\"
\"\",\"\",\"approach-retreat\",\"215\",\"1334497\",\"0.0-215.0\",\"\",\"\",\"2-2\",\"4263\",\"38\",\"1\",\"Testing\",\"Stims/Figures/57-C-30-1.bmp\",\"fa:fasha\",\"Up\",\"38\",\"3\",\"19\",\"3B\",\"C1\",\"J\",\"67\"
\"\",\"\",\"approach-retreat\",\"216\",\"1340119\",\"0.0-216.0\",\"\",\"\",\"2-2\",\"4118\",\"38\",\"1\",\"Testing\",\"Stims/Figures/93-J-0-1.bmp\",\"sasaza\",\"Down\",\"38\",\"3\",\"20\",\"3B\",\"C2\",\"J\",\"68\"
\"\",\"\",\"approach-retreat\",\"217\",\"1345713\",\"0.0-217.0\",\"\",\"\",\"2-2\",\"4091\",\"37\",\"1\",\"Testing\",\"Stims/Figures/74-J-10-4.bmp\",\"sasaza\",\"Right\",\"37\",\"3\",\"21\",\"3B\",\"C2\",\"J\",\"69\"
\"\",\"\",\"approach-retreat\",\"218\",\"1351533\",\"0.0-218.0\",\"\",\"\",\"2-2\",\"4316\",\"40\",\"1\",\"Testing\",\"Stims/Figures/93-C-30-1.bmp\",\"fa:fasha\",\"Down\",\"40\",\"3\",\"22\",\"3B\",\"C1\",\"J\",\"70\"
\"\",\"\",\"approach-retreat\",\"219\",\"1357426\",\"0.0-219.0\",\"\",\"\",\"2-2\",\"4390\",\"38\",\"1\",\"Testing\",\"Stims/Figures/118-C-20-2.bmp\",\"fa:fasha\",\"Up\",\"38\",\"3\",\"23\",\"3B\",\"C1\",\"J\",\"71\"
\"\",\"\",\"approach-retreat\",\"220\",\"1363071\",\"0.0-220.0\",\"\",\"\",\"2-2\",\"4140\",\"38\",\"1\",\"Testing\",\"Stims/Figures/57-J-0-1.bmp\",\"sasaza\",\"Down\",\"38\",\"3\",\"24\",\"3B\",\"C2\",\"J\",\"72\"
\"\",\"\",\"approach-retreat\",\"221\",\"1368696\",\"0.0-221.0\",\"\",\"\",\"2-2\",\"4120\",\"37\",\"1\",\"Testing\",\"Stims/Figures/118-C-20-2.bmp\",\"fa:fasha\",\"Left\",\"37\",\"4\",\"1\",\"3B\",\"C1\",\"J\",\"73\"
\"\",\"\",\"approach-retreat\",\"222\",\"1374713\",\"0.0-222.0\",\"\",\"\",\"2-2\",\"4512\",\"38\",\"0\",\"Testing\",\"Stims/Figures/144-J-10-3.bmp\",\"sasaza\",\"Up\",\"40\",\"4\",\"2\",\"3B\",\"C2\",\"J\",\"74\"
\"\",\"\",\"approach-retreat\",\"223\",\"1380314\",\"0.0-223.0\",\"\",\"\",\"2-2\",\"4097\",\"38\",\"1\",\"Testing\",\"Stims/Figures/74-J-10-4.bmp\",\"sasaza\",\"Down\",\"38\",\"4\",\"3\",\"3B\",\"C2\",\"J\",\"75\"
\"\",\"\",\"approach-retreat\",\"224\",\"1386025\",\"0.0-224.0\",\"\",\"\",\"2-2\",\"4208\",\"38\",\"1\",\"Testing\",\"Stims/Figures/19-C-20-4.bmp\",\"fa:fasha\",\"Up\",\"38\",\"4\",\"4\",\"3B\",\"C1\",\"J\",\"76\"
\"\",\"\",\"approach-retreat\",\"225\",\"1391784\",\"0.0-225.0\",\"\",\"\",\"2-2\",\"4256\",\"39\",\"1\",\"Testing\",\"Stims/Figures/144-C-30-3.bmp\",\"fa:fasha\",\"Right\",\"39\",\"4\",\"5\",\"3B\",\"C1\",\"J\",\"77\"
\"\",\"\",\"approach-retreat\",\"226\",\"1397335\",\"0.0-226.0\",\"\",\"\",\"2-2\",\"4046\",\"39\",\"1\",\"Testing\",\"Stims/Figures/57-C-30-1.bmp\",\"fa:fasha\",\"Right\",\"39\",\"4\",\"6\",\"3B\",\"C1\",\"J\",\"78\"
\"\",\"\",\"approach-retreat\",\"227\",\"1403088\",\"0.0-227.0\",\"\",\"\",\"2-2\",\"4249\",\"40\",\"1\",\"Testing\",\"Stims/Figures/84-C-20-2.bmp\",\"fa:fasha\",\"Down\",\"40\",\"4\",\"7\",\"3B\",\"C1\",\"J\",\"79\"
\"\",\"\",\"approach-retreat\",\"228\",\"1408649\",\"0.0-228.0\",\"\",\"\",\"2-2\",\"4056\",\"40\",\"1\",\"Testing\",\"Stims/Figures/100-C-30-3.bmp\",\"fa:fasha\",\"Down\",\"40\",\"4\",\"8\",\"3B\",\"C1\",\"J\",\"80\"
\"\",\"\",\"approach-retreat\",\"229\",\"1414136\",\"0.0-229.0\",\"\",\"\",\"2-2\",\"3980\",\"40\",\"1\",\"Testing\",\"Stims/Figures/86-C-30-1.bmp\",\"fa:fasha\",\"Down\",\"40\",\"4\",\"9\",\"3B\",\"C1\",\"J\",\"81\"
\"\",\"\",\"approach-retreat\",\"230\",\"1420033\",\"0.0-230.0\",\"\",\"\",\"2-2\",\"4393\",\"40\",\"1\",\"Testing\",\"Stims/Figures/86-J-0-1.bmp\",\"sasaza\",\"Up\",\"40\",\"4\",\"10\",\"3B\",\"C2\",\"J\",\"82\"
\"\",\"\",\"approach-retreat\",\"231\",\"1425678\",\"0.0-231.0\",\"\",\"\",\"2-2\",\"4140\",\"39\",\"1\",\"Testing\",\"Stims/Figures/93-J-0-1.bmp\",\"sasaza\",\"Left\",\"39\",\"4\",\"11\",\"3B\",\"C2\",\"J\",\"83\"
\"\",\"\",\"approach-retreat\",\"232\",\"1431273\",\"0.0-232.0\",\"\",\"\",\"2-2\",\"4091\",\"40\",\"1\",\"Testing\",\"Stims/Figures/128-J-10-3.bmp\",\"sasaza\",\"Up\",\"40\",\"4\",\"12\",\"3B\",\"C2\",\"J\",\"84\"
\"\",\"\",\"approach-retreat\",\"233\",\"1437598\",\"0.0-233.0\",\"\",\"\",\"2-2\",\"4819\",\"40\",\"1\",\"Testing\",\"Stims/Figures/19-J-10-4.bmp\",\"sasaza\",\"Up\",\"40\",\"4\",\"13\",\"3B\",\"C2\",\"J\",\"85\"
\"\",\"\",\"approach-retreat\",\"234\",\"1443180\",\"0.0-234.0\",\"\",\"\",\"2-2\",\"4075\",\"39\",\"1\",\"Testing\",\"Stims/Figures/118-J-0-2.bmp\",\"sasaza\",\"Left\",\"39\",\"4\",\"14\",\"3B\",\"C2\",\"J\",\"86\"
\"\",\"\",\"approach-retreat\",\"235\",\"1448895\",\"0.0-235.0\",\"\",\"\",\"2-2\",\"4210\",\"39\",\"1\",\"Testing\",\"Stims/Figures/94-C-20-2.bmp\",\"fa:fasha\",\"Right\",\"39\",\"4\",\"15\",\"3B\",\"C1\",\"J\",\"87\"
\"\",\"\",\"approach-retreat\",\"236\",\"1454969\",\"0.0-236.0\",\"\",\"\",\"2-2\",\"4568\",\"38\",\"1\",\"Testing\",\"Stims/Figures/57-J-0-1.bmp\",\"sasaza\",\"Down\",\"38\",\"4\",\"16\",\"3B\",\"C2\",\"J\",\"88\"
\"\",\"\",\"approach-retreat\",\"237\",\"1460630\",\"0.0-237.0\",\"\",\"\",\"2-2\",\"4156\",\"40\",\"1\",\"Testing\",\"Stims/Figures/7-J-10-4.bmp\",\"sasaza\",\"Up\",\"40\",\"4\",\"17\",\"3B\",\"C2\",\"J\",\"89\"
\"\",\"\",\"approach-retreat\",\"238\",\"1466315\",\"0.0-238.0\",\"\",\"\",\"2-2\",\"4178\",\"37\",\"1\",\"Testing\",\"Stims/Figures/7-C-20-4.bmp\",\"fa:fasha\",\"Left\",\"37\",\"4\",\"18\",\"3B\",\"C1\",\"J\",\"90\"
\"\",\"\",\"approach-retreat\",\"239\",\"1471927\",\"0.0-239.0\",\"\",\"\",\"2-2\",\"4108\",\"40\",\"1\",\"Testing\",\"Stims/Figures/74-C-20-4.bmp\",\"fa:fasha\",\"Down\",\"40\",\"4\",\"19\",\"3B\",\"C1\",\"J\",\"91\"
\"\",\"\",\"approach-retreat\",\"240\",\"1477513\",\"0.0-240.0\",\"\",\"\",\"2-2\",\"4081\",\"39\",\"1\",\"Testing\",\"Stims/Figures/94-J-0-2.bmp\",\"sasaza\",\"Left\",\"39\",\"4\",\"20\",\"3B\",\"C2\",\"J\",\"92\"
\"\",\"\",\"approach-retreat\",\"241\",\"1483457\",\"0.0-241.0\",\"\",\"\",\"2-2\",\"4439\",\"39\",\"0\",\"Testing\",\"Stims/Figures/100-J-10-3.bmp\",\"sasaza\",\"Right\",\"37\",\"4\",\"21\",\"3B\",\"C2\",\"J\",\"93\"
\"\",\"\",\"approach-retreat\",\"242\",\"1489056\",\"0.0-242.0\",\"\",\"\",\"2-2\",\"4097\",\"39\",\"1\",\"Testing\",\"Stims/Figures/93-C-30-1.bmp\",\"fa:fasha\",\"Right\",\"39\",\"4\",\"22\",\"3B\",\"C1\",\"J\",\"94\"
\"\",\"\",\"approach-retreat\",\"243\",\"1494743\",\"0.0-243.0\",\"\",\"\",\"2-2\",\"4183\",\"37\",\"1\",\"Testing\",\"Stims/Figures/128-C-30-3.bmp\",\"fa:fasha\",\"Left\",\"37\",\"4\",\"23\",\"3B\",\"C1\",\"J\",\"95\"
\"\",\"\",\"approach-retreat\",\"244\",\"1500358\",\"0.0-244.0\",\"\",\"\",\"2-2\",\"4109\",\"37\",\"1\",\"Testing\",\"Stims/Figures/84-J-0-2.bmp\",\"sasaza\",\"Right\",\"37\",\"4\",\"24\",\"3B\",\"C2\",\"J\",\"96\"
\"21830\",\"\",\"survey-text\",\"245\",\"1522191\",\"0.0-245.0\",\"\",\"{\"\"Q0\"\":\"\"PS150092\"\"}\",\"\",\"\",\"\",\"\",\"\",\"\",\"\",\"\",\"\",\"\",\"\",\"\",\"\",\"\",\"\"
