\"rt\",\"key_press\",\"trial_type\",\"trial_index\",\"time_elapsed\",\"internal_node_id\",\"view_history\",\"responses\",\"Id\",\"Rt\",\"ResKeyCode\",\"ResCorr\",\"TrialType2\",\"Image\",\"Label\",\"Location\",\"CorrectResponse\",\"Block\",\"BlockTrial\",\"Condition\",\"LabelType\",\"Subcondition\",\"trialNum\"
\"2395\",\"32\",\"text\",\"0\",\"2402\",\"0.0-0.0-0.0\",\"\",\"\",\"\",\"\",\"\",\"\",\"\",\"\",\"\",\"\",\"\",\"\",\"\",\"\",\"\",\"\",\"\"
\"77059\",\"\",\"instructions\",\"1\",\"79465\",\"0.0-1.0\",\"[{\"\"page_index\"\":0,\"\"viewing_time\"\":77058}]\",\"\",\"\",\"\",\"\",\"\",\"\",\"\",\"\",\"\",\"\",\"\",\"\",\"\",\"\",\"\",\"\"
\"57942\",\"\",\"survey-multi-choice\",\"2\",\"137460\",\"0.0-2.0\",\"\",\"{\"\"Q0\"\":\"\"Da\"\",\"\"Q1\"\":\"\"Da\"\",\"\"Q2\"\":\"\"Da\"\",\"\"Q3\"\":\"\"Da\"\",\"\"Q4\"\":\"\"Da\"\",\"\"Q5\"\":\"\"Da\"\"}\",\"\",\"\",\"\",\"\",\"\",\"\",\"\",\"\",\"\",\"\",\"\",\"\",\"\",\"\",\"\"
\"\",\"\",\"bio\",\"3\",\"146525\",\"0.0-3.0\",\"\",\"{\"\"age\"\":\"\"19\"\",\"\"gender\"\":\"\"f\"\",\"\"specify\"\":\"\"\"\"}\",\"\",\"\",\"\",\"\",\"\",\"\",\"\",\"\",\"\",\"\",\"\",\"\",\"\",\"\",\"\"
\"\",\"\",\"approach-retreat\",\"4\",\"154461\",\"0.0-4.0\",\"\",\"\",\"1-2\",\"6420\",\"39\",\"0\",\"Training\",\"Stims/Figures/7-C-20-4.bmp\",\"sa:haha\",\"Left\",\"37\",\"1\",\"1\",\"8\",\"C2\",\"J\",\"1\"
\"\",\"\",\"approach-retreat\",\"5\",\"160876\",\"0.0-5.0\",\"\",\"\",\"1-2\",\"4901\",\"38\",\"0\",\"Training\",\"Stims/Figures/94-C-20-2.bmp\",\"fasha:va\",\"Down\",\"40\",\"1\",\"2\",\"8\",\"C1\",\"J\",\"2\"
\"\",\"\",\"approach-retreat\",\"6\",\"166810\",\"0.0-6.0\",\"\",\"\",\"1-2\",\"4424\",\"38\",\"1\",\"Training\",\"Stims/Figures/139-J-0-2.bmp\",\"va:shasha\",\"Down\",\"38\",\"1\",\"3\",\"8\",\"C1\",\"J\",\"3\"
\"\",\"\",\"approach-retreat\",\"7\",\"172764\",\"0.0-7.0\",\"\",\"\",\"1-2\",\"4443\",\"38\",\"1\",\"Training\",\"Stims/Figures/100-J-10-3.bmp\",\"za:saza\",\"Down\",\"38\",\"1\",\"4\",\"8\",\"C2\",\"J\",\"4\"
\"\",\"\",\"approach-retreat\",\"8\",\"178499\",\"0.0-8.0\",\"\",\"\",\"1-2\",\"4224\",\"38\",\"1\",\"Training\",\"Stims/Figures/71-J-0-1.bmp\",\"vafa:sha\",\"Down\",\"38\",\"1\",\"5\",\"8\",\"C1\",\"J\",\"5\"
\"\",\"\",\"approach-retreat\",\"9\",\"185219\",\"0.0-9.0\",\"\",\"\",\"1-2\",\"5210\",\"38\",\"0\",\"Training\",\"Stims/Figures/57-J-0-1.bmp\",\"fafasha\",\"Up\",\"40\",\"1\",\"6\",\"8\",\"C1\",\"J\",\"6\"
\"\",\"\",\"approach-retreat\",\"10\",\"191139\",\"0.0-10.0\",\"\",\"\",\"1-2\",\"4409\",\"38\",\"1\",\"Training\",\"Stims/Figures/100-C-30-3.bmp\",\"sa:saha\",\"Up\",\"38\",\"1\",\"7\",\"8\",\"C2\",\"J\",\"7\"
\"\",\"\",\"approach-retreat\",\"11\",\"198285\",\"0.0-11.0\",\"\",\"\",\"1-2\",\"5636\",\"39\",\"0\",\"Training\",\"Stims/Figures/102-J-10-4.bmp\",\"sa:saza\",\"Right\",\"37\",\"1\",\"8\",\"8\",\"C2\",\"J\",\"8\"
\"\",\"\",\"approach-retreat\",\"12\",\"204242\",\"0.0-12.0\",\"\",\"\",\"1-2\",\"4447\",\"37\",\"1\",\"Training\",\"Stims/Figures/44-J-10-3.bmp\",\"zasa:ha\",\"Right\",\"37\",\"1\",\"9\",\"8\",\"C2\",\"J\",\"9\"
\"\",\"\",\"approach-retreat\",\"13\",\"210220\",\"0.0-13.0\",\"\",\"\",\"1-2\",\"4468\",\"37\",\"0\",\"Training\",\"Stims/Figures/139-C-20-2.bmp\",\"vasha:sha\",\"Right\",\"39\",\"1\",\"10\",\"8\",\"C1\",\"J\",\"10\"
\"\",\"\",\"approach-retreat\",\"14\",\"216203\",\"0.0-14.0\",\"\",\"\",\"1-2\",\"4474\",\"38\",\"1\",\"Training\",\"Stims/Figures/71-C-30-1.bmp\",\"fashava\",\"Up\",\"38\",\"1\",\"11\",\"8\",\"C1\",\"J\",\"11\"
\"\",\"\",\"approach-retreat\",\"15\",\"222155\",\"0.0-15.0\",\"\",\"\",\"1-2\",\"4442\",\"39\",\"0\",\"Training\",\"Stims/Figures/44-C-30-3.bmp\",\"sasa:ha\",\"Left\",\"37\",\"1\",\"12\",\"8\",\"C2\",\"J\",\"12\"
\"\",\"\",\"approach-retreat\",\"16\",\"228338\",\"0.0-16.0\",\"\",\"\",\"1-2\",\"4673\",\"39\",\"0\",\"Training\",\"Stims/Figures/57-C-30-1.bmp\",\"vafa:va\",\"Left\",\"37\",\"1\",\"13\",\"8\",\"C1\",\"J\",\"13\"
\"\",\"\",\"approach-retreat\",\"17\",\"235388\",\"0.0-17.0\",\"\",\"\",\"1-2\",\"5539\",\"40\",\"1\",\"Training\",\"Stims/Figures/7-J-10-4.bmp\",\"sa:sa:za\",\"Up\",\"40\",\"1\",\"14\",\"8\",\"C2\",\"J\",\"14\"
\"\",\"\",\"approach-retreat\",\"18\",\"241978\",\"0.0-18.0\",\"\",\"\",\"1-2\",\"5081\",\"37\",\"1\",\"Training\",\"Stims/Figures/102-C-20-4.bmp\",\"zasaha\",\"Left\",\"37\",\"1\",\"15\",\"8\",\"C2\",\"J\",\"15\"
\"\",\"\",\"approach-retreat\",\"19\",\"247676\",\"0.0-19.0\",\"\",\"\",\"1-2\",\"4188\",\"37\",\"1\",\"Training\",\"Stims/Figures/94-J-0-2.bmp\",\"fashasha\",\"Right\",\"37\",\"1\",\"16\",\"8\",\"C1\",\"J\",\"16\"
\"\",\"\",\"approach-retreat\",\"20\",\"253186\",\"0.0-20.0\",\"\",\"\",\"1-2\",\"3999\",\"39\",\"0\",\"Training\",\"Stims/Figures/100-C-30-3.bmp\",\"sa:saha\",\"Left\",\"37\",\"2\",\"1\",\"8\",\"C2\",\"J\",\"17\"
\"\",\"\",\"approach-retreat\",\"21\",\"259449\",\"0.0-21.0\",\"\",\"\",\"1-2\",\"4754\",\"37\",\"0\",\"Training\",\"Stims/Figures/71-J-0-1.bmp\",\"vafa:sha\",\"Left\",\"39\",\"2\",\"2\",\"8\",\"C1\",\"J\",\"18\"
\"\",\"\",\"approach-retreat\",\"22\",\"272403\",\"0.0-22.0\",\"\",\"\",\"1-2\",\"11444\",\"38\",\"1\",\"Training\",\"Stims/Figures/100-J-10-3.bmp\",\"za:saza\",\"Down\",\"38\",\"2\",\"3\",\"8\",\"C2\",\"J\",\"19\"
\"\",\"\",\"approach-retreat\",\"23\",\"278354\",\"0.0-23.0\",\"\",\"\",\"1-2\",\"4441\",\"38\",\"0\",\"Training\",\"Stims/Figures/57-J-0-1.bmp\",\"fafasha\",\"Up\",\"40\",\"2\",\"4\",\"8\",\"C1\",\"J\",\"20\"
\"\",\"\",\"approach-retreat\",\"24\",\"284099\",\"0.0-24.0\",\"\",\"\",\"1-2\",\"4236\",\"37\",\"0\",\"Training\",\"Stims/Figures/7-C-20-4.bmp\",\"sa:haha\",\"Right\",\"39\",\"2\",\"5\",\"8\",\"C2\",\"J\",\"21\"
\"\",\"\",\"approach-retreat\",\"25\",\"290100\",\"0.0-25.0\",\"\",\"\",\"1-2\",\"4490\",\"38\",\"0\",\"Training\",\"Stims/Figures/102-C-20-4.bmp\",\"zasaha\",\"Down\",\"40\",\"2\",\"6\",\"8\",\"C2\",\"J\",\"22\"
\"\",\"\",\"approach-retreat\",\"26\",\"295772\",\"0.0-26.0\",\"\",\"\",\"1-2\",\"4162\",\"40\",\"1\",\"Training\",\"Stims/Figures/44-C-30-3.bmp\",\"sasa:ha\",\"Down\",\"40\",\"2\",\"7\",\"8\",\"C2\",\"J\",\"23\"
\"\",\"\",\"approach-retreat\",\"27\",\"301738\",\"0.0-27.0\",\"\",\"\",\"1-2\",\"4457\",\"38\",\"1\",\"Training\",\"Stims/Figures/57-C-30-1.bmp\",\"vafa:va\",\"Up\",\"38\",\"2\",\"8\",\"8\",\"C1\",\"J\",\"24\"
\"\",\"\",\"approach-retreat\",\"28\",\"307132\",\"0.0-28.0\",\"\",\"\",\"1-2\",\"3883\",\"40\",\"0\",\"Training\",\"Stims/Figures/71-C-30-1.bmp\",\"fashava\",\"Up\",\"38\",\"2\",\"9\",\"8\",\"C1\",\"J\",\"25\"
\"\",\"\",\"approach-retreat\",\"29\",\"314274\",\"0.0-29.0\",\"\",\"\",\"1-2\",\"5633\",\"40\",\"0\",\"Training\",\"Stims/Figures/139-C-20-2.bmp\",\"vasha:sha\",\"Up\",\"38\",\"2\",\"10\",\"8\",\"C1\",\"J\",\"26\"
\"\",\"\",\"approach-retreat\",\"30\",\"320587\",\"0.0-30.0\",\"\",\"\",\"1-2\",\"4802\",\"37\",\"0\",\"Training\",\"Stims/Figures/94-C-20-2.bmp\",\"fasha:va\",\"Right\",\"39\",\"2\",\"11\",\"8\",\"C1\",\"J\",\"27\"
\"\",\"\",\"approach-retreat\",\"31\",\"326258\",\"0.0-31.0\",\"\",\"\",\"1-2\",\"4160\",\"37\",\"1\",\"Training\",\"Stims/Figures/94-J-0-2.bmp\",\"fashasha\",\"Right\",\"37\",\"2\",\"12\",\"8\",\"C1\",\"J\",\"28\"
\"\",\"\",\"approach-retreat\",\"32\",\"332235\",\"0.0-32.0\",\"\",\"\",\"1-2\",\"4467\",\"37\",\"1\",\"Training\",\"Stims/Figures/139-J-0-2.bmp\",\"va:shasha\",\"Right\",\"37\",\"2\",\"13\",\"8\",\"C1\",\"J\",\"29\"
\"\",\"\",\"approach-retreat\",\"33\",\"338706\",\"0.0-33.0\",\"\",\"\",\"1-2\",\"4961\",\"37\",\"0\",\"Training\",\"Stims/Figures/44-J-10-3.bmp\",\"zasa:ha\",\"Left\",\"39\",\"2\",\"14\",\"8\",\"C2\",\"J\",\"30\"
\"\",\"\",\"approach-retreat\",\"34\",\"344935\",\"0.0-34.0\",\"\",\"\",\"1-2\",\"4719\",\"39\",\"1\",\"Training\",\"Stims/Figures/7-J-10-4.bmp\",\"sa:sa:za\",\"Left\",\"39\",\"2\",\"15\",\"8\",\"C2\",\"J\",\"31\"
\"\",\"\",\"approach-retreat\",\"35\",\"351178\",\"0.0-35.0\",\"\",\"\",\"1-2\",\"4733\",\"40\",\"0\",\"Training\",\"Stims/Figures/102-J-10-4.bmp\",\"sa:saza\",\"Down\",\"38\",\"2\",\"16\",\"8\",\"C2\",\"J\",\"32\"
\"\",\"\",\"approach-retreat\",\"36\",\"356932\",\"0.0-36.0\",\"\",\"\",\"1-2\",\"4250\",\"39\",\"1\",\"Training\",\"Stims/Figures/139-C-20-2.bmp\",\"vasha:sha\",\"Right\",\"39\",\"3\",\"1\",\"8\",\"C1\",\"J\",\"33\"
\"\",\"\",\"approach-retreat\",\"37\",\"362635\",\"0.0-37.0\",\"\",\"\",\"1-2\",\"4192\",\"40\",\"1\",\"Training\",\"Stims/Figures/71-C-30-1.bmp\",\"fashava\",\"Down\",\"40\",\"3\",\"2\",\"8\",\"C1\",\"J\",\"34\"
\"\",\"\",\"approach-retreat\",\"38\",\"368356\",\"0.0-38.0\",\"\",\"\",\"1-2\",\"4210\",\"40\",\"1\",\"Training\",\"Stims/Figures/7-J-10-4.bmp\",\"sa:sa:za\",\"Up\",\"40\",\"3\",\"3\",\"8\",\"C2\",\"J\",\"35\"
\"\",\"\",\"approach-retreat\",\"39\",\"374292\",\"0.0-39.0\",\"\",\"\",\"1-2\",\"4424\",\"39\",\"1\",\"Training\",\"Stims/Figures/57-J-0-1.bmp\",\"fafasha\",\"Left\",\"39\",\"3\",\"4\",\"8\",\"C1\",\"J\",\"36\"
\"\",\"\",\"approach-retreat\",\"40\",\"380595\",\"0.0-40.0\",\"\",\"\",\"1-2\",\"4793\",\"37\",\"0\",\"Training\",\"Stims/Figures/100-C-30-3.bmp\",\"sa:saha\",\"Right\",\"39\",\"3\",\"5\",\"8\",\"C2\",\"J\",\"37\"
\"\",\"\",\"approach-retreat\",\"41\",\"386915\",\"0.0-41.0\",\"\",\"\",\"1-2\",\"4810\",\"40\",\"0\",\"Training\",\"Stims/Figures/44-J-10-3.bmp\",\"zasa:ha\",\"Down\",\"38\",\"3\",\"6\",\"8\",\"C2\",\"J\",\"38\"
\"\",\"\",\"approach-retreat\",\"42\",\"392979\",\"0.0-42.0\",\"\",\"\",\"1-2\",\"4555\",\"37\",\"0\",\"Training\",\"Stims/Figures/71-J-0-1.bmp\",\"vafa:sha\",\"Left\",\"39\",\"3\",\"7\",\"8\",\"C1\",\"J\",\"39\"
\"\",\"\",\"approach-retreat\",\"43\",\"398834\",\"0.0-43.0\",\"\",\"\",\"1-2\",\"4346\",\"37\",\"0\",\"Training\",\"Stims/Figures/57-C-30-1.bmp\",\"vafa:va\",\"Right\",\"39\",\"3\",\"8\",\"8\",\"C1\",\"J\",\"40\"
\"\",\"\",\"approach-retreat\",\"44\",\"404747\",\"0.0-44.0\",\"\",\"\",\"1-2\",\"4403\",\"37\",\"1\",\"Training\",\"Stims/Figures/94-C-20-2.bmp\",\"fasha:va\",\"Left\",\"37\",\"3\",\"9\",\"8\",\"C1\",\"J\",\"41\"
\"\",\"\",\"approach-retreat\",\"45\",\"410972\",\"0.0-45.0\",\"\",\"\",\"1-2\",\"4716\",\"37\",\"1\",\"Training\",\"Stims/Figures/102-C-20-4.bmp\",\"zasaha\",\"Left\",\"37\",\"3\",\"10\",\"8\",\"C2\",\"J\",\"42\"
\"\",\"\",\"approach-retreat\",\"46\",\"416811\",\"0.0-46.0\",\"\",\"\",\"1-2\",\"4329\",\"38\",\"0\",\"Training\",\"Stims/Figures/7-C-20-4.bmp\",\"sa:haha\",\"Down\",\"40\",\"3\",\"11\",\"8\",\"C2\",\"J\",\"43\"
\"\",\"\",\"approach-retreat\",\"47\",\"422620\",\"0.0-47.0\",\"\",\"\",\"1-2\",\"4300\",\"40\",\"1\",\"Training\",\"Stims/Figures/94-J-0-2.bmp\",\"fashasha\",\"Up\",\"40\",\"3\",\"12\",\"8\",\"C1\",\"J\",\"44\"
\"\",\"\",\"approach-retreat\",\"48\",\"428596\",\"0.0-48.0\",\"\",\"\",\"1-2\",\"4467\",\"38\",\"1\",\"Training\",\"Stims/Figures/44-C-30-3.bmp\",\"sasa:ha\",\"Up\",\"38\",\"3\",\"13\",\"8\",\"C2\",\"J\",\"45\"
\"\",\"\",\"approach-retreat\",\"49\",\"434586\",\"0.0-49.0\",\"\",\"\",\"1-2\",\"4481\",\"40\",\"0\",\"Training\",\"Stims/Figures/102-J-10-4.bmp\",\"sa:saza\",\"Down\",\"38\",\"3\",\"14\",\"8\",\"C2\",\"J\",\"46\"
\"\",\"\",\"approach-retreat\",\"50\",\"440939\",\"0.0-50.0\",\"\",\"\",\"1-2\",\"4844\",\"38\",\"0\",\"Training\",\"Stims/Figures/100-J-10-3.bmp\",\"za:saza\",\"Up\",\"40\",\"3\",\"15\",\"8\",\"C2\",\"J\",\"47\"
\"\",\"\",\"approach-retreat\",\"51\",\"447002\",\"0.0-51.0\",\"\",\"\",\"1-2\",\"4554\",\"39\",\"0\",\"Training\",\"Stims/Figures/139-J-0-2.bmp\",\"va:shasha\",\"Right\",\"37\",\"3\",\"16\",\"8\",\"C1\",\"J\",\"48\"
\"\",\"\",\"approach-retreat\",\"52\",\"452972\",\"0.0-52.0\",\"\",\"\",\"1-2\",\"4461\",\"39\",\"1\",\"Training\",\"Stims/Figures/7-C-20-4.bmp\",\"sa:haha\",\"Right\",\"39\",\"4\",\"1\",\"8\",\"C2\",\"J\",\"49\"
\"\",\"\",\"approach-retreat\",\"53\",\"459482\",\"0.0-53.0\",\"\",\"\",\"1-2\",\"5001\",\"38\",\"1\",\"Training\",\"Stims/Figures/44-C-30-3.bmp\",\"sasa:ha\",\"Up\",\"38\",\"4\",\"2\",\"8\",\"C2\",\"J\",\"50\"
\"\",\"\",\"approach-retreat\",\"54\",\"465699\",\"0.0-54.0\",\"\",\"\",\"1-2\",\"4707\",\"38\",\"1\",\"Training\",\"Stims/Figures/100-C-30-3.bmp\",\"sa:saha\",\"Up\",\"38\",\"4\",\"3\",\"8\",\"C2\",\"J\",\"51\"
\"\",\"\",\"approach-retreat\",\"55\",\"471402\",\"0.0-55.0\",\"\",\"\",\"1-2\",\"4193\",\"37\",\"1\",\"Training\",\"Stims/Figures/94-J-0-2.bmp\",\"fashasha\",\"Right\",\"37\",\"4\",\"4\",\"8\",\"C1\",\"J\",\"52\"
\"\",\"\",\"approach-retreat\",\"56\",\"477429\",\"0.0-56.0\",\"\",\"\",\"1-2\",\"4517\",\"38\",\"1\",\"Training\",\"Stims/Figures/7-J-10-4.bmp\",\"sa:sa:za\",\"Down\",\"38\",\"4\",\"5\",\"8\",\"C2\",\"J\",\"53\"
\"\",\"\",\"approach-retreat\",\"57\",\"483210\",\"0.0-57.0\",\"\",\"\",\"1-2\",\"4270\",\"38\",\"1\",\"Training\",\"Stims/Figures/57-J-0-1.bmp\",\"fafasha\",\"Down\",\"38\",\"4\",\"6\",\"8\",\"C1\",\"J\",\"54\"
\"\",\"\",\"approach-retreat\",\"58\",\"489044\",\"0.0-58.0\",\"\",\"\",\"1-2\",\"4330\",\"37\",\"1\",\"Training\",\"Stims/Figures/102-J-10-4.bmp\",\"sa:saza\",\"Right\",\"37\",\"4\",\"7\",\"8\",\"C2\",\"J\",\"55\"
\"\",\"\",\"approach-retreat\",\"59\",\"494860\",\"0.0-59.0\",\"\",\"\",\"1-2\",\"4307\",\"40\",\"1\",\"Training\",\"Stims/Figures/139-C-20-2.bmp\",\"vasha:sha\",\"Down\",\"40\",\"4\",\"8\",\"8\",\"C1\",\"J\",\"56\"
\"\",\"\",\"approach-retreat\",\"60\",\"502131\",\"0.0-60.0\",\"\",\"\",\"1-2\",\"5761\",\"39\",\"0\",\"Training\",\"Stims/Figures/57-C-30-1.bmp\",\"vafa:va\",\"Left\",\"37\",\"4\",\"9\",\"8\",\"C1\",\"J\",\"57\"
\"\",\"\",\"approach-retreat\",\"61\",\"507980\",\"0.0-61.0\",\"\",\"\",\"1-2\",\"4340\",\"39\",\"1\",\"Training\",\"Stims/Figures/71-J-0-1.bmp\",\"vafa:sha\",\"Left\",\"39\",\"4\",\"10\",\"8\",\"C1\",\"J\",\"58\"
\"\",\"\",\"approach-retreat\",\"62\",\"513355\",\"0.0-62.0\",\"\",\"\",\"1-2\",\"3865\",\"37\",\"1\",\"Training\",\"Stims/Figures/71-C-30-1.bmp\",\"fashava\",\"Left\",\"37\",\"4\",\"11\",\"8\",\"C1\",\"J\",\"59\"
\"\",\"\",\"approach-retreat\",\"63\",\"519770\",\"0.0-63.0\",\"\",\"\",\"1-2\",\"4905\",\"39\",\"1\",\"Training\",\"Stims/Figures/100-J-10-3.bmp\",\"za:saza\",\"Left\",\"39\",\"4\",\"12\",\"8\",\"C2\",\"J\",\"60\"
\"\",\"\",\"approach-retreat\",\"64\",\"525324\",\"0.0-64.0\",\"\",\"\",\"1-2\",\"4044\",\"40\",\"1\",\"Training\",\"Stims/Figures/44-J-10-3.bmp\",\"zasa:ha\",\"Up\",\"40\",\"4\",\"13\",\"8\",\"C2\",\"J\",\"61\"
\"\",\"\",\"approach-retreat\",\"65\",\"531539\",\"0.0-65.0\",\"\",\"\",\"1-2\",\"4705\",\"40\",\"1\",\"Training\",\"Stims/Figures/139-J-0-2.bmp\",\"va:shasha\",\"Up\",\"40\",\"4\",\"14\",\"8\",\"C1\",\"J\",\"62\"
\"\",\"\",\"approach-retreat\",\"66\",\"537380\",\"0.0-66.0\",\"\",\"\",\"1-2\",\"4330\",\"39\",\"1\",\"Training\",\"Stims/Figures/94-C-20-2.bmp\",\"fasha:va\",\"Right\",\"39\",\"4\",\"15\",\"8\",\"C1\",\"J\",\"63\"
\"\",\"\",\"approach-retreat\",\"67\",\"543355\",\"0.0-67.0\",\"\",\"\",\"1-2\",\"4465\",\"40\",\"1\",\"Training\",\"Stims/Figures/102-C-20-4.bmp\",\"zasaha\",\"Down\",\"40\",\"4\",\"16\",\"8\",\"C2\",\"J\",\"64\"
\"\",\"\",\"approach-retreat\",\"68\",\"549275\",\"0.0-68.0\",\"\",\"\",\"1-2\",\"4411\",\"37\",\"0\",\"Training\",\"Stims/Figures/139-C-20-2.bmp\",\"vasha:sha\",\"Right\",\"39\",\"5\",\"1\",\"8\",\"C1\",\"J\",\"65\"
\"\",\"\",\"approach-retreat\",\"69\",\"554939\",\"0.0-69.0\",\"\",\"\",\"1-2\",\"4155\",\"39\",\"1\",\"Training\",\"Stims/Figures/139-J-0-2.bmp\",\"va:shasha\",\"Left\",\"39\",\"5\",\"2\",\"8\",\"C1\",\"J\",\"66\"
\"\",\"\",\"approach-retreat\",\"70\",\"560708\",\"0.0-70.0\",\"\",\"\",\"1-2\",\"4256\",\"38\",\"1\",\"Training\",\"Stims/Figures/102-J-10-4.bmp\",\"sa:saza\",\"Down\",\"38\",\"5\",\"3\",\"8\",\"C2\",\"J\",\"67\"
\"\",\"\",\"approach-retreat\",\"71\",\"566498\",\"0.0-71.0\",\"\",\"\",\"1-2\",\"4280\",\"39\",\"0\",\"Training\",\"Stims/Figures/7-C-20-4.bmp\",\"sa:haha\",\"Left\",\"37\",\"5\",\"4\",\"8\",\"C2\",\"J\",\"68\"
\"\",\"\",\"approach-retreat\",\"72\",\"572705\",\"0.0-72.0\",\"\",\"\",\"1-2\",\"4697\",\"39\",\"1\",\"Training\",\"Stims/Figures/100-J-10-3.bmp\",\"za:saza\",\"Left\",\"39\",\"5\",\"5\",\"8\",\"C2\",\"J\",\"69\"
\"\",\"\",\"approach-retreat\",\"73\",\"578499\",\"0.0-73.0\",\"\",\"\",\"1-2\",\"4284\",\"38\",\"1\",\"Training\",\"Stims/Figures/44-J-10-3.bmp\",\"zasa:ha\",\"Down\",\"38\",\"5\",\"6\",\"8\",\"C2\",\"J\",\"70\"
\"\",\"\",\"approach-retreat\",\"74\",\"584219\",\"0.0-74.0\",\"\",\"\",\"1-2\",\"4209\",\"38\",\"0\",\"Training\",\"Stims/Figures/71-C-30-1.bmp\",\"fashava\",\"Down\",\"40\",\"5\",\"7\",\"8\",\"C1\",\"J\",\"71\"
\"\",\"\",\"approach-retreat\",\"75\",\"589955\",\"0.0-75.0\",\"\",\"\",\"1-2\",\"4226\",\"40\",\"1\",\"Training\",\"Stims/Figures/94-J-0-2.bmp\",\"fashasha\",\"Up\",\"40\",\"5\",\"8\",\"8\",\"C1\",\"J\",\"72\"
\"\",\"\",\"approach-retreat\",\"76\",\"595771\",\"0.0-76.0\",\"\",\"\",\"1-2\",\"4307\",\"38\",\"0\",\"Training\",\"Stims/Figures/7-J-10-4.bmp\",\"sa:sa:za\",\"Up\",\"40\",\"5\",\"9\",\"8\",\"C2\",\"J\",\"73\"
\"\",\"\",\"approach-retreat\",\"77\",\"601548\",\"0.0-77.0\",\"\",\"\",\"1-2\",\"4267\",\"39\",\"1\",\"Training\",\"Stims/Figures/44-C-30-3.bmp\",\"sasa:ha\",\"Right\",\"39\",\"5\",\"10\",\"8\",\"C2\",\"J\",\"74\"
\"\",\"\",\"approach-retreat\",\"78\",\"608691\",\"0.0-78.0\",\"\",\"\",\"1-2\",\"5634\",\"39\",\"1\",\"Training\",\"Stims/Figures/57-C-30-1.bmp\",\"vafa:va\",\"Right\",\"39\",\"5\",\"11\",\"8\",\"C1\",\"J\",\"75\"
\"\",\"\",\"approach-retreat\",\"79\",\"615122\",\"0.0-79.0\",\"\",\"\",\"1-2\",\"4922\",\"38\",\"0\",\"Training\",\"Stims/Figures/102-C-20-4.bmp\",\"zasaha\",\"Down\",\"40\",\"5\",\"12\",\"8\",\"C2\",\"J\",\"76\"
\"\",\"\",\"approach-retreat\",\"80\",\"623363\",\"0.0-80.0\",\"\",\"\",\"1-2\",\"6731\",\"40\",\"1\",\"Training\",\"Stims/Figures/57-J-0-1.bmp\",\"fafasha\",\"Up\",\"40\",\"5\",\"13\",\"8\",\"C1\",\"J\",\"77\"
\"\",\"\",\"approach-retreat\",\"81\",\"629332\",\"0.0-81.0\",\"\",\"\",\"1-2\",\"4459\",\"38\",\"1\",\"Training\",\"Stims/Figures/94-C-20-2.bmp\",\"fasha:va\",\"Up\",\"38\",\"5\",\"14\",\"8\",\"C1\",\"J\",\"78\"
\"\",\"\",\"approach-retreat\",\"82\",\"635068\",\"0.0-82.0\",\"\",\"\",\"1-2\",\"4227\",\"39\",\"0\",\"Training\",\"Stims/Figures/71-J-0-1.bmp\",\"vafa:sha\",\"Right\",\"37\",\"5\",\"15\",\"8\",\"C1\",\"J\",\"79\"
\"\",\"\",\"approach-retreat\",\"83\",\"641907\",\"0.0-83.0\",\"\",\"\",\"1-2\",\"5330\",\"37\",\"1\",\"Training\",\"Stims/Figures/100-C-30-3.bmp\",\"sa:saha\",\"Left\",\"37\",\"5\",\"16\",\"8\",\"C2\",\"J\",\"80\"
\"\",\"\",\"approach-retreat\",\"84\",\"647619\",\"0.0-84.0\",\"\",\"\",\"1-2\",\"4203\",\"39\",\"1\",\"Training\",\"Stims/Figures/139-J-0-2.bmp\",\"va:shasha\",\"Left\",\"39\",\"6\",\"1\",\"8\",\"C1\",\"J\",\"81\"
\"\",\"\",\"approach-retreat\",\"85\",\"653318\",\"0.0-85.0\",\"\",\"\",\"1-2\",\"4189\",\"37\",\"0\",\"Training\",\"Stims/Figures/102-C-20-4.bmp\",\"zasaha\",\"Right\",\"39\",\"6\",\"2\",\"8\",\"C2\",\"J\",\"82\"
\"\",\"\",\"approach-retreat\",\"86\",\"659124\",\"0.0-86.0\",\"\",\"\",\"1-2\",\"4297\",\"39\",\"1\",\"Training\",\"Stims/Figures/44-J-10-3.bmp\",\"zasa:ha\",\"Left\",\"39\",\"6\",\"3\",\"8\",\"C2\",\"J\",\"83\"
\"\",\"\",\"approach-retreat\",\"87\",\"665050\",\"0.0-87.0\",\"\",\"\",\"1-2\",\"4416\",\"39\",\"0\",\"Training\",\"Stims/Figures/71-C-30-1.bmp\",\"fashava\",\"Left\",\"37\",\"6\",\"4\",\"8\",\"C1\",\"J\",\"84\"
\"\",\"\",\"approach-retreat\",\"88\",\"670970\",\"0.0-88.0\",\"\",\"\",\"1-2\",\"4411\",\"37\",\"0\",\"Training\",\"Stims/Figures/102-J-10-4.bmp\",\"sa:saza\",\"Left\",\"39\",\"6\",\"5\",\"8\",\"C2\",\"J\",\"85\"
\"\",\"\",\"approach-retreat\",\"89\",\"677474\",\"0.0-89.0\",\"\",\"\",\"1-2\",\"4995\",\"37\",\"0\",\"Training\",\"Stims/Figures/57-C-30-1.bmp\",\"vafa:va\",\"Right\",\"39\",\"6\",\"6\",\"8\",\"C1\",\"J\",\"86\"
\"\",\"\",\"approach-retreat\",\"90\",\"683371\",\"0.0-90.0\",\"\",\"\",\"1-2\",\"4387\",\"38\",\"1\",\"Training\",\"Stims/Figures/100-C-30-3.bmp\",\"sa:saha\",\"Up\",\"38\",\"6\",\"7\",\"8\",\"C2\",\"J\",\"87\"
\"\",\"\",\"approach-retreat\",\"91\",\"690874\",\"0.0-91.0\",\"\",\"\",\"1-2\",\"5993\",\"38\",\"1\",\"Training\",\"Stims/Figures/7-J-10-4.bmp\",\"sa:sa:za\",\"Down\",\"38\",\"6\",\"8\",\"8\",\"C2\",\"J\",\"88\"
\"\",\"\",\"approach-retreat\",\"92\",\"697355\",\"0.0-92.0\",\"\",\"\",\"1-2\",\"4969\",\"38\",\"1\",\"Training\",\"Stims/Figures/71-J-0-1.bmp\",\"vafa:sha\",\"Down\",\"38\",\"6\",\"9\",\"8\",\"C1\",\"J\",\"89\"
\"\",\"\",\"approach-retreat\",\"93\",\"703570\",\"0.0-93.0\",\"\",\"\",\"1-2\",\"4706\",\"40\",\"1\",\"Training\",\"Stims/Figures/139-C-20-2.bmp\",\"vasha:sha\",\"Down\",\"40\",\"6\",\"10\",\"8\",\"C1\",\"J\",\"90\"
\"\",\"\",\"approach-retreat\",\"94\",\"709251\",\"0.0-94.0\",\"\",\"\",\"1-2\",\"4171\",\"38\",\"0\",\"Training\",\"Stims/Figures/7-C-20-4.bmp\",\"sa:haha\",\"Down\",\"40\",\"6\",\"11\",\"8\",\"C2\",\"J\",\"91\"
\"\",\"\",\"approach-retreat\",\"95\",\"715010\",\"0.0-95.0\",\"\",\"\",\"1-2\",\"4250\",\"37\",\"1\",\"Training\",\"Stims/Figures/57-J-0-1.bmp\",\"fafasha\",\"Right\",\"37\",\"6\",\"12\",\"8\",\"C1\",\"J\",\"92\"
\"\",\"\",\"approach-retreat\",\"96\",\"721004\",\"0.0-96.0\",\"\",\"\",\"1-2\",\"4484\",\"40\",\"0\",\"Training\",\"Stims/Figures/94-C-20-2.bmp\",\"fasha:va\",\"Up\",\"38\",\"6\",\"13\",\"8\",\"C1\",\"J\",\"93\"
\"\",\"\",\"approach-retreat\",\"97\",\"727050\",\"0.0-97.0\",\"\",\"\",\"1-2\",\"4536\",\"40\",\"1\",\"Training\",\"Stims/Figures/94-J-0-2.bmp\",\"fashasha\",\"Up\",\"40\",\"6\",\"14\",\"8\",\"C1\",\"J\",\"94\"
\"\",\"\",\"approach-retreat\",\"98\",\"734684\",\"0.0-98.0\",\"\",\"\",\"1-2\",\"6125\",\"38\",\"1\",\"Training\",\"Stims/Figures/44-C-30-3.bmp\",\"sasa:ha\",\"Up\",\"38\",\"6\",\"15\",\"8\",\"C2\",\"J\",\"95\"
\"\",\"\",\"approach-retreat\",\"99\",\"741290\",\"0.0-99.0\",\"\",\"\",\"1-2\",\"5096\",\"37\",\"1\",\"Training\",\"Stims/Figures/100-J-10-3.bmp\",\"za:saza\",\"Right\",\"37\",\"6\",\"16\",\"8\",\"C2\",\"J\",\"96\"
\"\",\"\",\"approach-retreat\",\"100\",\"747628\",\"0.0-100.0\",\"\",\"\",\"1-2\",\"4827\",\"39\",\"1\",\"Training\",\"Stims/Figures/139-C-20-2.bmp\",\"vasha:sha\",\"Right\",\"39\",\"7\",\"1\",\"8\",\"C1\",\"J\",\"97\"
\"\",\"\",\"approach-retreat\",\"101\",\"753299\",\"0.0-101.0\",\"\",\"\",\"1-2\",\"4161\",\"38\",\"1\",\"Training\",\"Stims/Figures/94-C-20-2.bmp\",\"fasha:va\",\"Up\",\"38\",\"7\",\"2\",\"8\",\"C1\",\"J\",\"98\"
\"\",\"\",\"approach-retreat\",\"102\",\"759206\",\"0.0-102.0\",\"\",\"\",\"1-2\",\"4398\",\"39\",\"1\",\"Training\",\"Stims/Figures/7-J-10-4.bmp\",\"sa:sa:za\",\"Left\",\"39\",\"7\",\"3\",\"8\",\"C2\",\"J\",\"99\"
\"\",\"\",\"approach-retreat\",\"103\",\"765675\",\"0.0-103.0\",\"\",\"\",\"1-2\",\"4959\",\"37\",\"1\",\"Training\",\"Stims/Figures/44-J-10-3.bmp\",\"zasa:ha\",\"Right\",\"37\",\"7\",\"4\",\"8\",\"C2\",\"J\",\"100\"
\"\",\"\",\"approach-retreat\",\"104\",\"772027\",\"0.0-104.0\",\"\",\"\",\"1-2\",\"4843\",\"39\",\"0\",\"Training\",\"Stims/Figures/102-C-20-4.bmp\",\"zasaha\",\"Left\",\"37\",\"7\",\"5\",\"8\",\"C2\",\"J\",\"101\"
\"\",\"\",\"approach-retreat\",\"105\",\"777907\",\"0.0-105.0\",\"\",\"\",\"1-2\",\"4371\",\"38\",\"1\",\"Training\",\"Stims/Figures/102-J-10-4.bmp\",\"sa:saza\",\"Down\",\"38\",\"7\",\"6\",\"8\",\"C2\",\"J\",\"102\"
\"\",\"\",\"approach-retreat\",\"106\",\"784315\",\"0.0-106.0\",\"\",\"\",\"1-2\",\"4899\",\"40\",\"1\",\"Training\",\"Stims/Figures/57-C-30-1.bmp\",\"vafa:va\",\"Down\",\"40\",\"7\",\"7\",\"8\",\"C1\",\"J\",\"103\"
\"\",\"\",\"approach-retreat\",\"107\",\"790226\",\"0.0-107.0\",\"\",\"\",\"1-2\",\"4402\",\"39\",\"1\",\"Training\",\"Stims/Figures/44-C-30-3.bmp\",\"sasa:ha\",\"Right\",\"39\",\"7\",\"8\",\"8\",\"C2\",\"J\",\"104\"
\"\",\"\",\"approach-retreat\",\"108\",\"796003\",\"0.0-108.0\",\"\",\"\",\"1-2\",\"4268\",\"40\",\"1\",\"Training\",\"Stims/Figures/100-C-30-3.bmp\",\"sa:saha\",\"Down\",\"40\",\"7\",\"9\",\"8\",\"C2\",\"J\",\"105\"
\"\",\"\",\"approach-retreat\",\"109\",\"801930\",\"0.0-109.0\",\"\",\"\",\"1-2\",\"4418\",\"38\",\"1\",\"Training\",\"Stims/Figures/7-C-20-4.bmp\",\"sa:haha\",\"Up\",\"38\",\"7\",\"10\",\"8\",\"C2\",\"J\",\"106\"
\"\",\"\",\"approach-retreat\",\"110\",\"807628\",\"0.0-110.0\",\"\",\"\",\"1-2\",\"4189\",\"39\",\"1\",\"Training\",\"Stims/Figures/57-J-0-1.bmp\",\"fafasha\",\"Left\",\"39\",\"7\",\"11\",\"8\",\"C1\",\"J\",\"107\"
\"\",\"\",\"approach-retreat\",\"111\",\"813402\",\"0.0-111.0\",\"\",\"\",\"1-2\",\"4265\",\"37\",\"1\",\"Training\",\"Stims/Figures/71-J-0-1.bmp\",\"vafa:sha\",\"Right\",\"37\",\"7\",\"12\",\"8\",\"C1\",\"J\",\"108\"
\"\",\"\",\"approach-retreat\",\"112\",\"819499\",\"0.0-112.0\",\"\",\"\",\"1-2\",\"4588\",\"40\",\"1\",\"Training\",\"Stims/Figures/94-J-0-2.bmp\",\"fashasha\",\"Up\",\"40\",\"7\",\"13\",\"8\",\"C1\",\"J\",\"109\"
\"\",\"\",\"approach-retreat\",\"113\",\"825242\",\"0.0-113.0\",\"\",\"\",\"1-2\",\"4233\",\"39\",\"1\",\"Training\",\"Stims/Figures/139-J-0-2.bmp\",\"va:shasha\",\"Left\",\"39\",\"7\",\"14\",\"8\",\"C1\",\"J\",\"110\"
\"\",\"\",\"approach-retreat\",\"114\",\"831116\",\"0.0-114.0\",\"\",\"\",\"1-2\",\"4365\",\"38\",\"1\",\"Training\",\"Stims/Figures/71-C-30-1.bmp\",\"fashava\",\"Up\",\"38\",\"7\",\"15\",\"8\",\"C1\",\"J\",\"111\"
\"\",\"\",\"approach-retreat\",\"115\",\"836946\",\"0.0-115.0\",\"\",\"\",\"1-2\",\"4321\",\"38\",\"1\",\"Training\",\"Stims/Figures/100-J-10-3.bmp\",\"za:saza\",\"Down\",\"38\",\"7\",\"16\",\"8\",\"C2\",\"J\",\"112\"
\"\",\"\",\"approach-retreat\",\"116\",\"843404\",\"0.0-116.0\",\"\",\"\",\"1-2\",\"4948\",\"37\",\"1\",\"Training\",\"Stims/Figures/94-C-20-2.bmp\",\"fasha:va\",\"Left\",\"37\",\"8\",\"1\",\"8\",\"C1\",\"J\",\"113\"
\"\",\"\",\"approach-retreat\",\"117\",\"851378\",\"0.0-117.0\",\"\",\"\",\"1-2\",\"6465\",\"38\",\"1\",\"Training\",\"Stims/Figures/71-J-0-1.bmp\",\"vafa:sha\",\"Down\",\"38\",\"8\",\"2\",\"8\",\"C1\",\"J\",\"114\"
\"\",\"\",\"approach-retreat\",\"118\",\"858964\",\"0.0-118.0\",\"\",\"\",\"1-2\",\"6077\",\"40\",\"0\",\"Training\",\"Stims/Figures/102-C-20-4.bmp\",\"zasaha\",\"Up\",\"38\",\"8\",\"3\",\"8\",\"C2\",\"J\",\"115\"
\"\",\"\",\"approach-retreat\",\"119\",\"865115\",\"0.0-119.0\",\"\",\"\",\"1-2\",\"4642\",\"40\",\"1\",\"Training\",\"Stims/Figures/44-J-10-3.bmp\",\"zasa:ha\",\"Up\",\"40\",\"8\",\"4\",\"8\",\"C2\",\"J\",\"116\"
\"\",\"\",\"approach-retreat\",\"120\",\"870922\",\"0.0-120.0\",\"\",\"\",\"1-2\",\"4297\",\"37\",\"1\",\"Training\",\"Stims/Figures/139-J-0-2.bmp\",\"va:shasha\",\"Right\",\"37\",\"8\",\"5\",\"8\",\"C1\",\"J\",\"117\"
\"\",\"\",\"approach-retreat\",\"121\",\"877602\",\"0.0-121.0\",\"\",\"\",\"1-2\",\"5170\",\"40\",\"1\",\"Training\",\"Stims/Figures/44-C-30-3.bmp\",\"sasa:ha\",\"Down\",\"40\",\"8\",\"6\",\"8\",\"C2\",\"J\",\"118\"
\"\",\"\",\"approach-retreat\",\"122\",\"883379\",\"0.0-122.0\",\"\",\"\",\"1-2\",\"4268\",\"37\",\"1\",\"Training\",\"Stims/Figures/100-J-10-3.bmp\",\"za:saza\",\"Right\",\"37\",\"8\",\"7\",\"8\",\"C2\",\"J\",\"119\"
\"\",\"\",\"approach-retreat\",\"123\",\"889275\",\"0.0-123.0\",\"\",\"\",\"1-2\",\"4387\",\"39\",\"1\",\"Training\",\"Stims/Figures/100-C-30-3.bmp\",\"sa:saha\",\"Right\",\"39\",\"8\",\"8\",\"8\",\"C2\",\"J\",\"120\"
\"\",\"\",\"approach-retreat\",\"124\",\"895309\",\"0.0-124.0\",\"\",\"\",\"1-2\",\"4525\",\"37\",\"1\",\"Training\",\"Stims/Figures/71-C-30-1.bmp\",\"fashava\",\"Left\",\"37\",\"8\",\"9\",\"8\",\"C1\",\"J\",\"121\"
\"\",\"\",\"approach-retreat\",\"125\",\"901450\",\"0.0-125.0\",\"\",\"\",\"1-2\",\"4632\",\"40\",\"1\",\"Training\",\"Stims/Figures/94-J-0-2.bmp\",\"fashasha\",\"Up\",\"40\",\"8\",\"10\",\"8\",\"C1\",\"J\",\"122\"
\"\",\"\",\"approach-retreat\",\"126\",\"907133\",\"0.0-126.0\",\"\",\"\",\"1-2\",\"4174\",\"39\",\"1\",\"Training\",\"Stims/Figures/102-J-10-4.bmp\",\"sa:saza\",\"Left\",\"39\",\"8\",\"11\",\"8\",\"C2\",\"J\",\"123\"
\"\",\"\",\"approach-retreat\",\"127\",\"912826\",\"0.0-127.0\",\"\",\"\",\"1-2\",\"4184\",\"40\",\"1\",\"Training\",\"Stims/Figures/57-J-0-1.bmp\",\"fafasha\",\"Up\",\"40\",\"8\",\"12\",\"8\",\"C1\",\"J\",\"124\"
\"\",\"\",\"approach-retreat\",\"128\",\"918459\",\"0.0-128.0\",\"\",\"\",\"1-2\",\"4124\",\"39\",\"1\",\"Training\",\"Stims/Figures/139-C-20-2.bmp\",\"vasha:sha\",\"Right\",\"39\",\"8\",\"13\",\"8\",\"C1\",\"J\",\"125\"
\"\",\"\",\"approach-retreat\",\"129\",\"924563\",\"0.0-129.0\",\"\",\"\",\"1-2\",\"4593\",\"40\",\"1\",\"Training\",\"Stims/Figures/57-C-30-1.bmp\",\"vafa:va\",\"Down\",\"40\",\"8\",\"14\",\"8\",\"C1\",\"J\",\"126\"
\"\",\"\",\"approach-retreat\",\"130\",\"930379\",\"0.0-130.0\",\"\",\"\",\"1-2\",\"4306\",\"37\",\"1\",\"Training\",\"Stims/Figures/7-C-20-4.bmp\",\"sa:haha\",\"Left\",\"37\",\"8\",\"15\",\"8\",\"C2\",\"J\",\"127\"
\"\",\"\",\"approach-retreat\",\"131\",\"936130\",\"0.0-131.0\",\"\",\"\",\"1-2\",\"4242\",\"38\",\"1\",\"Training\",\"Stims/Figures/7-J-10-4.bmp\",\"sa:sa:za\",\"Down\",\"38\",\"8\",\"16\",\"8\",\"C2\",\"J\",\"128\"
\"\",\"\",\"approach-retreat\",\"132\",\"942028\",\"0.0-132.0\",\"\",\"\",\"1-2\",\"4388\",\"37\",\"1\",\"Training\",\"Stims/Figures/100-J-10-3.bmp\",\"za:saza\",\"Right\",\"37\",\"9\",\"1\",\"8\",\"C2\",\"J\",\"129\"
\"\",\"\",\"approach-retreat\",\"133\",\"948146\",\"0.0-133.0\",\"\",\"\",\"1-2\",\"4609\",\"37\",\"0\",\"Training\",\"Stims/Figures/102-C-20-4.bmp\",\"zasaha\",\"Right\",\"39\",\"9\",\"2\",\"8\",\"C2\",\"J\",\"130\"
\"\",\"\",\"approach-retreat\",\"134\",\"954499\",\"0.0-134.0\",\"\",\"\",\"1-2\",\"4843\",\"38\",\"1\",\"Training\",\"Stims/Figures/100-C-30-3.bmp\",\"sa:saha\",\"Up\",\"38\",\"9\",\"3\",\"8\",\"C2\",\"J\",\"131\"
\"\",\"\",\"approach-retreat\",\"135\",\"960714\",\"0.0-135.0\",\"\",\"\",\"1-2\",\"4705\",\"38\",\"1\",\"Training\",\"Stims/Figures/57-C-30-1.bmp\",\"vafa:va\",\"Up\",\"38\",\"9\",\"4\",\"8\",\"C1\",\"J\",\"132\"
\"\",\"\",\"approach-retreat\",\"136\",\"966523\",\"0.0-136.0\",\"\",\"\",\"1-2\",\"4299\",\"39\",\"1\",\"Training\",\"Stims/Figures/57-J-0-1.bmp\",\"fafasha\",\"Left\",\"39\",\"9\",\"5\",\"8\",\"C1\",\"J\",\"133\"
\"\",\"\",\"approach-retreat\",\"137\",\"972570\",\"0.0-137.0\",\"\",\"\",\"1-2\",\"4538\",\"40\",\"1\",\"Training\",\"Stims/Figures/71-C-30-1.bmp\",\"fashava\",\"Down\",\"40\",\"9\",\"6\",\"8\",\"C1\",\"J\",\"134\"
\"\",\"\",\"approach-retreat\",\"138\",\"978731\",\"0.0-138.0\",\"\",\"\",\"1-2\",\"4650\",\"40\",\"1\",\"Training\",\"Stims/Figures/94-C-20-2.bmp\",\"fasha:va\",\"Down\",\"40\",\"9\",\"7\",\"8\",\"C1\",\"J\",\"135\"
\"\",\"\",\"approach-retreat\",\"139\",\"984690\",\"0.0-139.0\",\"\",\"\",\"1-2\",\"4450\",\"39\",\"1\",\"Training\",\"Stims/Figures/102-J-10-4.bmp\",\"sa:saza\",\"Left\",\"39\",\"9\",\"8\",\"8\",\"C2\",\"J\",\"136\"
\"\",\"\",\"approach-retreat\",\"140\",\"990468\",\"0.0-140.0\",\"\",\"\",\"1-2\",\"4268\",\"40\",\"1\",\"Training\",\"Stims/Figures/94-J-0-2.bmp\",\"fashasha\",\"Up\",\"40\",\"9\",\"9\",\"8\",\"C1\",\"J\",\"137\"
\"\",\"\",\"approach-retreat\",\"141\",\"996235\",\"0.0-141.0\",\"\",\"\",\"1-2\",\"4257\",\"40\",\"1\",\"Training\",\"Stims/Figures/71-J-0-1.bmp\",\"vafa:sha\",\"Up\",\"40\",\"9\",\"10\",\"8\",\"C1\",\"J\",\"138\"
\"\",\"\",\"approach-retreat\",\"142\",\"1002404\",\"0.0-142.0\",\"\",\"\",\"1-2\",\"4660\",\"38\",\"0\",\"Training\",\"Stims/Figures/139-C-20-2.bmp\",\"vasha:sha\",\"Down\",\"40\",\"9\",\"11\",\"8\",\"C1\",\"J\",\"139\"
\"\",\"\",\"approach-retreat\",\"143\",\"1008482\",\"0.0-143.0\",\"\",\"\",\"1-2\",\"4570\",\"39\",\"1\",\"Training\",\"Stims/Figures/139-J-0-2.bmp\",\"va:shasha\",\"Left\",\"39\",\"9\",\"12\",\"8\",\"C1\",\"J\",\"140\"
\"\",\"\",\"approach-retreat\",\"144\",\"1016699\",\"0.0-144.0\",\"\",\"\",\"1-2\",\"6708\",\"39\",\"1\",\"Training\",\"Stims/Figures/7-C-20-4.bmp\",\"sa:haha\",\"Right\",\"39\",\"9\",\"13\",\"8\",\"C2\",\"J\",\"141\"
\"\",\"\",\"approach-retreat\",\"145\",\"1023404\",\"0.0-145.0\",\"\",\"\",\"1-2\",\"5194\",\"37\",\"1\",\"Training\",\"Stims/Figures/44-C-30-3.bmp\",\"sasa:ha\",\"Left\",\"37\",\"9\",\"14\",\"8\",\"C2\",\"J\",\"142\"
\"\",\"\",\"approach-retreat\",\"146\",\"1030571\",\"0.0-146.0\",\"\",\"\",\"1-2\",\"5658\",\"38\",\"1\",\"Training\",\"Stims/Figures/7-J-10-4.bmp\",\"sa:sa:za\",\"Down\",\"38\",\"9\",\"15\",\"8\",\"C2\",\"J\",\"143\"
\"\",\"\",\"approach-retreat\",\"147\",\"1037258\",\"0.0-147.0\",\"\",\"\",\"1-2\",\"5177\",\"37\",\"1\",\"Training\",\"Stims/Figures/44-J-10-3.bmp\",\"zasa:ha\",\"Right\",\"37\",\"9\",\"16\",\"8\",\"C2\",\"J\",\"144\"
\"64753\",\"\",\"instructions\",\"148\",\"1102011\",\"0.0-148.0\",\"[{\"\"page_index\"\":0,\"\"viewing_time\"\":64752}]\",\"\",\"\",\"\",\"\",\"\",\"\",\"\",\"\",\"\",\"\",\"\",\"\",\"\",\"\",\"\",\"\"
\"\",\"\",\"approach-retreat\",\"149\",\"1110241\",\"0.0-149.0\",\"\",\"\",\"1-2\",\"6724\",\"38\",\"1\",\"Testing\",\"Stims/Figures/71-C-30-1.bmp\",\"fashava\",\"Up\",\"38\",\"1\",\"1\",\"8\",\"C1\",\"J\",\"1\"
\"\",\"\",\"approach-retreat\",\"150\",\"1116082\",\"0.0-150.0\",\"\",\"\",\"1-2\",\"4333\",\"40\",\"1\",\"Testing\",\"Stims/Figures/100-J-10-3.bmp\",\"za:saza\",\"Up\",\"40\",\"1\",\"2\",\"8\",\"C2\",\"J\",\"2\"
\"\",\"\",\"approach-retreat\",\"151\",\"1122169\",\"0.0-151.0\",\"\",\"\",\"1-2\",\"4580\",\"39\",\"1\",\"Testing\",\"Stims/Figures/139-J-0-2.bmp\",\"va:shasha\",\"Left\",\"39\",\"1\",\"3\",\"8\",\"C1\",\"J\",\"3\"
\"\",\"\",\"approach-retreat\",\"152\",\"1128090\",\"0.0-152.0\",\"\",\"\",\"1-2\",\"4414\",\"40\",\"1\",\"Testing\",\"Stims/Figures/94-J-0-2.bmp\",\"fashasha\",\"Up\",\"40\",\"1\",\"4\",\"8\",\"C1\",\"J\",\"4\"
\"\",\"\",\"approach-retreat\",\"153\",\"1134169\",\"0.0-153.0\",\"\",\"\",\"1-2\",\"4570\",\"37\",\"1\",\"Testing\",\"Stims/Figures/85-J-0-2.bmp\",\"va:fa:sha\",\"Right\",\"37\",\"1\",\"5\",\"8\",\"C1\",\"J\",\"5\"
\"\",\"\",\"approach-retreat\",\"154\",\"1141034\",\"0.0-154.0\",\"\",\"\",\"1-2\",\"5358\",\"37\",\"1\",\"Testing\",\"Stims/Figures/94-C-20-2.bmp\",\"fasha:va\",\"Left\",\"37\",\"1\",\"6\",\"8\",\"C1\",\"J\",\"6\"
\"\",\"\",\"approach-retreat\",\"155\",\"1146913\",\"0.0-155.0\",\"\",\"\",\"1-2\",\"4372\",\"39\",\"1\",\"Testing\",\"Stims/Figures/27-J-0-1.bmp\",\"fasha:sha\",\"Left\",\"39\",\"1\",\"7\",\"8\",\"C1\",\"J\",\"7\"
\"\",\"\",\"approach-retreat\",\"156\",\"1154810\",\"0.0-156.0\",\"\",\"\",\"1-2\",\"6390\",\"39\",\"1\",\"Testing\",\"Stims/Figures/74-C-20-4.bmp\",\"za:haza\",\"Right\",\"39\",\"1\",\"8\",\"8\",\"C2\",\"J\",\"8\"
\"\",\"\",\"approach-retreat\",\"157\",\"1165002\",\"0.0-157.0\",\"\",\"\",\"1-2\",\"8685\",\"37\",\"1\",\"Testing\",\"Stims/Figures/85-C-20-2.bmp\",\"fafava\",\"Left\",\"37\",\"1\",\"9\",\"8\",\"C1\",\"J\",\"9\"
\"\",\"\",\"approach-retreat\",\"158\",\"1172185\",\"0.0-158.0\",\"\",\"\",\"1-2\",\"5675\",\"38\",\"1\",\"Testing\",\"Stims/Figures/44-C-30-3.bmp\",\"sasa:ha\",\"Up\",\"38\",\"1\",\"10\",\"8\",\"C2\",\"J\",\"10\"
\"\",\"\",\"approach-retreat\",\"159\",\"1179986\",\"0.0-159.0\",\"\",\"\",\"1-2\",\"6293\",\"37\",\"1\",\"Testing\",\"Stims/Figures/7-J-10-4.bmp\",\"sa:sa:za\",\"Right\",\"37\",\"1\",\"11\",\"8\",\"C2\",\"J\",\"11\"
\"\",\"\",\"approach-retreat\",\"160\",\"1186025\",\"0.0-160.0\",\"\",\"\",\"1-2\",\"4532\",\"39\",\"1\",\"Testing\",\"Stims/Figures/27-C-30-1.bmp\",\"vashava\",\"Right\",\"39\",\"1\",\"12\",\"8\",\"C1\",\"J\",\"12\"
\"\",\"\",\"approach-retreat\",\"161\",\"1192641\",\"0.0-161.0\",\"\",\"\",\"1-2\",\"5108\",\"40\",\"1\",\"Testing\",\"Stims/Figures/44-J-10-3.bmp\",\"zasa:ha\",\"Up\",\"40\",\"1\",\"13\",\"8\",\"C2\",\"J\",\"13\"
\"\",\"\",\"approach-retreat\",\"162\",\"1199529\",\"0.0-162.0\",\"\",\"\",\"1-2\",\"5381\",\"38\",\"1\",\"Testing\",\"Stims/Figures/100-C-30-3.bmp\",\"sa:saha\",\"Up\",\"38\",\"1\",\"14\",\"8\",\"C2\",\"J\",\"14\"
\"\",\"\",\"approach-retreat\",\"163\",\"1205850\",\"0.0-163.0\",\"\",\"\",\"1-2\",\"4813\",\"38\",\"1\",\"Testing\",\"Stims/Figures/71-J-0-1.bmp\",\"vafa:sha\",\"Down\",\"38\",\"1\",\"15\",\"8\",\"C1\",\"J\",\"15\"
\"\",\"\",\"approach-retreat\",\"164\",\"1212737\",\"0.0-164.0\",\"\",\"\",\"1-2\",\"5378\",\"40\",\"1\",\"Testing\",\"Stims/Figures/139-C-20-2.bmp\",\"vasha:sha\",\"Down\",\"40\",\"1\",\"16\",\"8\",\"C1\",\"J\",\"16\"
\"\",\"\",\"approach-retreat\",\"165\",\"1228202\",\"0.0-165.0\",\"\",\"\",\"1-2\",\"13956\",\"39\",\"1\",\"Testing\",\"Stims/Figures/7-C-20-4.bmp\",\"sa:haha\",\"Right\",\"39\",\"1\",\"17\",\"8\",\"C2\",\"J\",\"17\"
\"\",\"\",\"approach-retreat\",\"166\",\"1234832\",\"0.0-166.0\",\"\",\"\",\"1-2\",\"5127\",\"37\",\"1\",\"Testing\",\"Stims/Figures/102-C-20-4.bmp\",\"zasaha\",\"Left\",\"37\",\"1\",\"18\",\"8\",\"C2\",\"J\",\"18\"
\"\",\"\",\"approach-retreat\",\"167\",\"1240649\",\"0.0-167.0\",\"\",\"\",\"1-2\",\"4309\",\"39\",\"1\",\"Testing\",\"Stims/Figures/144-C-30-3.bmp\",\"zaha:za\",\"Right\",\"39\",\"1\",\"19\",\"8\",\"C2\",\"J\",\"19\"
\"\",\"\",\"approach-retreat\",\"168\",\"1247072\",\"0.0-168.0\",\"\",\"\",\"1-2\",\"4914\",\"38\",\"1\",\"Testing\",\"Stims/Figures/102-J-10-4.bmp\",\"sa:saza\",\"Down\",\"38\",\"1\",\"20\",\"8\",\"C2\",\"J\",\"20\"
\"\",\"\",\"approach-retreat\",\"169\",\"1253418\",\"0.0-169.0\",\"\",\"\",\"1-2\",\"4844\",\"40\",\"1\",\"Testing\",\"Stims/Figures/57-C-30-1.bmp\",\"vafa:va\",\"Down\",\"40\",\"1\",\"21\",\"8\",\"C1\",\"J\",\"21\"
\"\",\"\",\"approach-retreat\",\"170\",\"1261313\",\"0.0-170.0\",\"\",\"\",\"1-2\",\"6388\",\"39\",\"1\",\"Testing\",\"Stims/Figures/144-J-10-3.bmp\",\"za:ha:ha\",\"Left\",\"39\",\"1\",\"22\",\"8\",\"C2\",\"J\",\"22\"
\"\",\"\",\"approach-retreat\",\"171\",\"1268034\",\"0.0-171.0\",\"\",\"\",\"1-2\",\"5213\",\"38\",\"1\",\"Testing\",\"Stims/Figures/57-J-0-1.bmp\",\"fafasha\",\"Down\",\"38\",\"1\",\"23\",\"8\",\"C1\",\"J\",\"23\"
\"\",\"\",\"approach-retreat\",\"172\",\"1276089\",\"0.0-172.0\",\"\",\"\",\"1-2\",\"6547\",\"38\",\"1\",\"Testing\",\"Stims/Figures/74-J-10-4.bmp\",\"za:saha\",\"Down\",\"38\",\"1\",\"24\",\"8\",\"C2\",\"J\",\"24\"
\"\",\"\",\"approach-retreat\",\"173\",\"1282274\",\"0.0-173.0\",\"\",\"\",\"1-2\",\"4678\",\"40\",\"1\",\"Testing\",\"Stims/Figures/94-J-0-2.bmp\",\"fashasha\",\"Up\",\"40\",\"2\",\"1\",\"8\",\"C1\",\"J\",\"25\"
\"\",\"\",\"approach-retreat\",\"174\",\"1288097\",\"0.0-174.0\",\"\",\"\",\"1-2\",\"4316\",\"38\",\"1\",\"Testing\",\"Stims/Figures/85-J-0-2.bmp\",\"va:fa:sha\",\"Down\",\"38\",\"2\",\"2\",\"8\",\"C1\",\"J\",\"26\"
\"\",\"\",\"approach-retreat\",\"175\",\"1293914\",\"0.0-175.0\",\"\",\"\",\"1-2\",\"4309\",\"40\",\"1\",\"Testing\",\"Stims/Figures/27-C-30-1.bmp\",\"vashava\",\"Down\",\"40\",\"2\",\"3\",\"8\",\"C1\",\"J\",\"27\"
\"\",\"\",\"approach-retreat\",\"176\",\"1299841\",\"0.0-176.0\",\"\",\"\",\"1-2\",\"4419\",\"39\",\"1\",\"Testing\",\"Stims/Figures/27-J-0-1.bmp\",\"fasha:sha\",\"Left\",\"39\",\"2\",\"4\",\"8\",\"C1\",\"J\",\"28\"
\"\",\"\",\"approach-retreat\",\"177\",\"1305778\",\"0.0-177.0\",\"\",\"\",\"1-2\",\"4430\",\"37\",\"1\",\"Testing\",\"Stims/Figures/57-J-0-1.bmp\",\"fafasha\",\"Right\",\"37\",\"2\",\"5\",\"8\",\"C1\",\"J\",\"29\"
\"\",\"\",\"approach-retreat\",\"178\",\"1311737\",\"0.0-178.0\",\"\",\"\",\"1-2\",\"4451\",\"38\",\"1\",\"Testing\",\"Stims/Figures/71-J-0-1.bmp\",\"vafa:sha\",\"Down\",\"38\",\"2\",\"6\",\"8\",\"C1\",\"J\",\"30\"
\"\",\"\",\"approach-retreat\",\"179\",\"1317570\",\"0.0-179.0\",\"\",\"\",\"1-2\",\"4326\",\"38\",\"1\",\"Testing\",\"Stims/Figures/74-C-20-4.bmp\",\"za:haza\",\"Up\",\"38\",\"2\",\"7\",\"8\",\"C2\",\"J\",\"31\"
\"\",\"\",\"approach-retreat\",\"180\",\"1323337\",\"0.0-180.0\",\"\",\"\",\"1-2\",\"4259\",\"40\",\"1\",\"Testing\",\"Stims/Figures/44-J-10-3.bmp\",\"zasa:ha\",\"Up\",\"40\",\"2\",\"8\",\"8\",\"C2\",\"J\",\"32\"
\"\",\"\",\"approach-retreat\",\"181\",\"1329914\",\"0.0-181.0\",\"\",\"\",\"1-2\",\"5073\",\"39\",\"1\",\"Testing\",\"Stims/Figures/102-C-20-4.bmp\",\"zasaha\",\"Right\",\"39\",\"2\",\"9\",\"8\",\"C2\",\"J\",\"33\"
\"\",\"\",\"approach-retreat\",\"182\",\"1335865\",\"0.0-182.0\",\"\",\"\",\"1-2\",\"4443\",\"37\",\"1\",\"Testing\",\"Stims/Figures/7-C-20-4.bmp\",\"sa:haha\",\"Left\",\"37\",\"2\",\"10\",\"8\",\"C2\",\"J\",\"34\"
\"\",\"\",\"approach-retreat\",\"183\",\"1341994\",\"0.0-183.0\",\"\",\"\",\"1-2\",\"4621\",\"37\",\"1\",\"Testing\",\"Stims/Figures/100-J-10-3.bmp\",\"za:saza\",\"Right\",\"37\",\"2\",\"11\",\"8\",\"C2\",\"J\",\"35\"
\"\",\"\",\"approach-retreat\",\"184\",\"1348434\",\"0.0-184.0\",\"\",\"\",\"1-2\",\"4933\",\"39\",\"1\",\"Testing\",\"Stims/Figures/7-J-10-4.bmp\",\"sa:sa:za\",\"Left\",\"39\",\"2\",\"12\",\"8\",\"C2\",\"J\",\"36\"
\"\",\"\",\"approach-retreat\",\"185\",\"1354538\",\"0.0-185.0\",\"\",\"\",\"1-2\",\"4597\",\"38\",\"1\",\"Testing\",\"Stims/Figures/139-C-20-2.bmp\",\"vasha:sha\",\"Up\",\"38\",\"2\",\"13\",\"8\",\"C1\",\"J\",\"37\"
\"\",\"\",\"approach-retreat\",\"186\",\"1360241\",\"0.0-186.0\",\"\",\"\",\"1-2\",\"4196\",\"39\",\"1\",\"Testing\",\"Stims/Figures/57-C-30-1.bmp\",\"vafa:va\",\"Right\",\"39\",\"2\",\"14\",\"8\",\"C1\",\"J\",\"38\"
\"\",\"\",\"approach-retreat\",\"187\",\"1366682\",\"0.0-187.0\",\"\",\"\",\"1-2\",\"4934\",\"37\",\"1\",\"Testing\",\"Stims/Figures/100-C-30-3.bmp\",\"sa:saha\",\"Left\",\"37\",\"2\",\"15\",\"8\",\"C2\",\"J\",\"39\"
\"\",\"\",\"approach-retreat\",\"188\",\"1375848\",\"0.0-188.0\",\"\",\"\",\"1-2\",\"7659\",\"40\",\"1\",\"Testing\",\"Stims/Figures/94-C-20-2.bmp\",\"fasha:va\",\"Down\",\"40\",\"2\",\"16\",\"8\",\"C1\",\"J\",\"40\"
\"\",\"\",\"approach-retreat\",\"189\",\"1383050\",\"0.0-189.0\",\"\",\"\",\"1-2\",\"5694\",\"40\",\"1\",\"Testing\",\"Stims/Figures/144-J-10-3.bmp\",\"za:ha:ha\",\"Up\",\"40\",\"2\",\"17\",\"8\",\"C2\",\"J\",\"41\"
\"\",\"\",\"approach-retreat\",\"190\",\"1390281\",\"0.0-190.0\",\"\",\"\",\"1-2\",\"5722\",\"38\",\"1\",\"Testing\",\"Stims/Figures/102-J-10-4.bmp\",\"sa:saza\",\"Down\",\"38\",\"2\",\"18\",\"8\",\"C2\",\"J\",\"42\"
\"\",\"\",\"approach-retreat\",\"191\",\"1396842\",\"0.0-191.0\",\"\",\"\",\"1-2\",\"5054\",\"39\",\"1\",\"Testing\",\"Stims/Figures/139-J-0-2.bmp\",\"va:shasha\",\"Left\",\"39\",\"2\",\"19\",\"8\",\"C1\",\"J\",\"43\"
\"\",\"\",\"approach-retreat\",\"192\",\"1403561\",\"0.0-192.0\",\"\",\"\",\"1-2\",\"5212\",\"39\",\"1\",\"Testing\",\"Stims/Figures/74-J-10-4.bmp\",\"za:saha\",\"Left\",\"39\",\"2\",\"20\",\"8\",\"C2\",\"J\",\"44\"
\"\",\"\",\"approach-retreat\",\"193\",\"1412018\",\"0.0-193.0\",\"\",\"\",\"1-2\",\"6949\",\"40\",\"1\",\"Testing\",\"Stims/Figures/44-C-30-3.bmp\",\"sasa:ha\",\"Down\",\"40\",\"2\",\"21\",\"8\",\"C2\",\"J\",\"45\"
\"\",\"\",\"approach-retreat\",\"194\",\"1418793\",\"0.0-194.0\",\"\",\"\",\"1-2\",\"5268\",\"37\",\"0\",\"Testing\",\"Stims/Figures/144-C-30-3.bmp\",\"zaha:za\",\"Right\",\"39\",\"2\",\"22\",\"8\",\"C2\",\"J\",\"46\"
\"\",\"\",\"approach-retreat\",\"195\",\"1424562\",\"0.0-195.0\",\"\",\"\",\"1-2\",\"4261\",\"38\",\"1\",\"Testing\",\"Stims/Figures/85-C-20-2.bmp\",\"fafava\",\"Up\",\"38\",\"2\",\"23\",\"8\",\"C1\",\"J\",\"47\"
\"\",\"\",\"approach-retreat\",\"196\",\"1430393\",\"0.0-196.0\",\"\",\"\",\"1-2\",\"4323\",\"39\",\"1\",\"Testing\",\"Stims/Figures/71-C-30-1.bmp\",\"fashava\",\"Right\",\"39\",\"2\",\"24\",\"8\",\"C1\",\"J\",\"48\"
\"\",\"\",\"approach-retreat\",\"197\",\"1436442\",\"0.0-197.0\",\"\",\"\",\"1-2\",\"4541\",\"38\",\"1\",\"Testing\",\"Stims/Figures/7-J-10-4.bmp\",\"sa:sa:za\",\"Down\",\"38\",\"3\",\"1\",\"8\",\"C2\",\"J\",\"49\"
\"\",\"\",\"approach-retreat\",\"198\",\"1443137\",\"0.0-198.0\",\"\",\"\",\"1-2\",\"5187\",\"37\",\"1\",\"Testing\",\"Stims/Figures/85-C-20-2.bmp\",\"fafava\",\"Left\",\"37\",\"3\",\"2\",\"8\",\"C1\",\"J\",\"50\"
\"\",\"\",\"approach-retreat\",\"199\",\"1449498\",\"0.0-199.0\",\"\",\"\",\"1-2\",\"4854\",\"39\",\"1\",\"Testing\",\"Stims/Figures/94-J-0-2.bmp\",\"fashasha\",\"Left\",\"39\",\"3\",\"3\",\"8\",\"C1\",\"J\",\"51\"
\"\",\"\",\"approach-retreat\",\"200\",\"1455840\",\"0.0-200.0\",\"\",\"\",\"1-2\",\"4834\",\"38\",\"1\",\"Testing\",\"Stims/Figures/139-J-0-2.bmp\",\"va:shasha\",\"Down\",\"38\",\"3\",\"4\",\"8\",\"C1\",\"J\",\"52\"
\"\",\"\",\"approach-retreat\",\"201\",\"1462514\",\"0.0-201.0\",\"\",\"\",\"1-2\",\"5166\",\"37\",\"1\",\"Testing\",\"Stims/Figures/71-C-30-1.bmp\",\"fashava\",\"Left\",\"37\",\"3\",\"5\",\"8\",\"C1\",\"J\",\"53\"
\"\",\"\",\"approach-retreat\",\"202\",\"1469673\",\"0.0-202.0\",\"\",\"\",\"1-2\",\"5652\",\"40\",\"1\",\"Testing\",\"Stims/Figures/102-J-10-4.bmp\",\"sa:saza\",\"Up\",\"40\",\"3\",\"6\",\"8\",\"C2\",\"J\",\"54\"
\"\",\"\",\"approach-retreat\",\"203\",\"1476986\",\"0.0-203.0\",\"\",\"\",\"1-2\",\"5805\",\"40\",\"1\",\"Testing\",\"Stims/Figures/100-C-30-3.bmp\",\"sa:saha\",\"Down\",\"40\",\"3\",\"7\",\"8\",\"C2\",\"J\",\"55\"
\"\",\"\",\"approach-retreat\",\"204\",\"1483505\",\"0.0-204.0\",\"\",\"\",\"1-2\",\"5011\",\"38\",\"1\",\"Testing\",\"Stims/Figures/71-J-0-1.bmp\",\"vafa:sha\",\"Down\",\"38\",\"3\",\"8\",\"8\",\"C1\",\"J\",\"56\"
\"\",\"\",\"approach-retreat\",\"205\",\"1489962\",\"0.0-205.0\",\"\",\"\",\"1-2\",\"4950\",\"37\",\"1\",\"Testing\",\"Stims/Figures/74-J-10-4.bmp\",\"za:saha\",\"Right\",\"37\",\"3\",\"9\",\"8\",\"C2\",\"J\",\"57\"
\"\",\"\",\"approach-retreat\",\"206\",\"1498738\",\"0.0-206.0\",\"\",\"\",\"1-2\",\"7268\",\"38\",\"1\",\"Testing\",\"Stims/Figures/74-C-20-4.bmp\",\"za:haza\",\"Up\",\"38\",\"3\",\"10\",\"8\",\"C2\",\"J\",\"58\"
\"\",\"\",\"approach-retreat\",\"207\",\"1505050\",\"0.0-207.0\",\"\",\"\",\"1-2\",\"4805\",\"37\",\"1\",\"Testing\",\"Stims/Figures/144-C-30-3.bmp\",\"zaha:za\",\"Left\",\"37\",\"3\",\"11\",\"8\",\"C2\",\"J\",\"59\"
\"\",\"\",\"approach-retreat\",\"208\",\"1512169\",\"0.0-208.0\",\"\",\"\",\"1-2\",\"5611\",\"38\",\"1\",\"Testing\",\"Stims/Figures/94-C-20-2.bmp\",\"fasha:va\",\"Up\",\"38\",\"3\",\"12\",\"8\",\"C1\",\"J\",\"60\"
\"\",\"\",\"approach-retreat\",\"209\",\"1519330\",\"0.0-209.0\",\"\",\"\",\"1-2\",\"5654\",\"38\",\"1\",\"Testing\",\"Stims/Figures/57-J-0-1.bmp\",\"fafasha\",\"Down\",\"38\",\"3\",\"13\",\"8\",\"C1\",\"J\",\"61\"
\"\",\"\",\"approach-retreat\",\"210\",\"1526592\",\"0.0-210.0\",\"\",\"\",\"1-2\",\"5755\",\"37\",\"1\",\"Testing\",\"Stims/Figures/44-J-10-3.bmp\",\"zasa:ha\",\"Right\",\"37\",\"3\",\"14\",\"8\",\"C2\",\"J\",\"62\"
\"\",\"\",\"approach-retreat\",\"211\",\"1533627\",\"0.0-211.0\",\"\",\"\",\"1-2\",\"5526\",\"39\",\"1\",\"Testing\",\"Stims/Figures/27-C-30-1.bmp\",\"vashava\",\"Right\",\"39\",\"3\",\"15\",\"8\",\"C1\",\"J\",\"63\"
\"\",\"\",\"approach-retreat\",\"212\",\"1540345\",\"0.0-212.0\",\"\",\"\",\"1-2\",\"5210\",\"37\",\"0\",\"Testing\",\"Stims/Figures/102-C-20-4.bmp\",\"zasaha\",\"Right\",\"39\",\"3\",\"16\",\"8\",\"C2\",\"J\",\"64\"
\"\",\"\",\"approach-retreat\",\"213\",\"1547354\",\"0.0-213.0\",\"\",\"\",\"1-2\",\"5502\",\"38\",\"1\",\"Testing\",\"Stims/Figures/100-J-10-3.bmp\",\"za:saza\",\"Down\",\"38\",\"3\",\"17\",\"8\",\"C2\",\"J\",\"65\"
\"\",\"\",\"approach-retreat\",\"214\",\"1554177\",\"0.0-214.0\",\"\",\"\",\"1-2\",\"5316\",\"39\",\"1\",\"Testing\",\"Stims/Figures/44-C-30-3.bmp\",\"sasa:ha\",\"Right\",\"39\",\"3\",\"18\",\"8\",\"C2\",\"J\",\"66\"
\"\",\"\",\"approach-retreat\",\"215\",\"1560626\",\"0.0-215.0\",\"\",\"\",\"1-2\",\"4946\",\"40\",\"1\",\"Testing\",\"Stims/Figures/85-J-0-2.bmp\",\"va:fa:sha\",\"Up\",\"40\",\"3\",\"19\",\"8\",\"C1\",\"J\",\"67\"
\"\",\"\",\"approach-retreat\",\"216\",\"1569025\",\"0.0-216.0\",\"\",\"\",\"1-2\",\"6891\",\"37\",\"1\",\"Testing\",\"Stims/Figures/7-C-20-4.bmp\",\"sa:haha\",\"Left\",\"37\",\"3\",\"20\",\"8\",\"C2\",\"J\",\"68\"
\"\",\"\",\"approach-retreat\",\"217\",\"1574682\",\"0.0-217.0\",\"\",\"\",\"1-2\",\"4149\",\"40\",\"1\",\"Testing\",\"Stims/Figures/144-J-10-3.bmp\",\"za:ha:ha\",\"Up\",\"40\",\"3\",\"21\",\"8\",\"C2\",\"J\",\"69\"
\"\",\"\",\"approach-retreat\",\"218\",\"1581985\",\"0.0-218.0\",\"\",\"\",\"1-2\",\"5796\",\"38\",\"1\",\"Testing\",\"Stims/Figures/139-C-20-2.bmp\",\"vasha:sha\",\"Up\",\"38\",\"3\",\"22\",\"8\",\"C1\",\"J\",\"70\"
\"\",\"\",\"approach-retreat\",\"219\",\"1589418\",\"0.0-219.0\",\"\",\"\",\"1-2\",\"5925\",\"39\",\"1\",\"Testing\",\"Stims/Figures/27-J-0-1.bmp\",\"fasha:sha\",\"Left\",\"39\",\"3\",\"23\",\"8\",\"C1\",\"J\",\"71\"
\"\",\"\",\"approach-retreat\",\"220\",\"1597001\",\"0.0-220.0\",\"\",\"\",\"1-2\",\"6074\",\"39\",\"1\",\"Testing\",\"Stims/Figures/57-C-30-1.bmp\",\"vafa:va\",\"Right\",\"39\",\"3\",\"24\",\"8\",\"C1\",\"J\",\"72\"
\"\",\"\",\"approach-retreat\",\"221\",\"1604673\",\"0.0-221.0\",\"\",\"\",\"1-2\",\"6164\",\"38\",\"1\",\"Testing\",\"Stims/Figures/144-J-10-3.bmp\",\"za:ha:ha\",\"Down\",\"38\",\"4\",\"1\",\"8\",\"C2\",\"J\",\"73\"
\"\",\"\",\"approach-retreat\",\"222\",\"1612281\",\"0.0-222.0\",\"\",\"\",\"1-2\",\"6100\",\"37\",\"1\",\"Testing\",\"Stims/Figures/94-C-20-2.bmp\",\"fasha:va\",\"Left\",\"37\",\"4\",\"2\",\"8\",\"C1\",\"J\",\"74\"
\"\",\"\",\"approach-retreat\",\"223\",\"1618706\",\"0.0-223.0\",\"\",\"\",\"1-2\",\"4918\",\"40\",\"1\",\"Testing\",\"Stims/Figures/139-J-0-2.bmp\",\"va:shasha\",\"Up\",\"40\",\"4\",\"3\",\"8\",\"C1\",\"J\",\"75\"
\"\",\"\",\"approach-retreat\",\"224\",\"1624641\",\"0.0-224.0\",\"\",\"\",\"1-2\",\"4428\",\"40\",\"1\",\"Testing\",\"Stims/Figures/94-J-0-2.bmp\",\"fashasha\",\"Up\",\"40\",\"4\",\"4\",\"8\",\"C1\",\"J\",\"76\"
\"\",\"\",\"approach-retreat\",\"225\",\"1630898\",\"0.0-225.0\",\"\",\"\",\"1-2\",\"4749\",\"39\",\"1\",\"Testing\",\"Stims/Figures/27-J-0-1.bmp\",\"fasha:sha\",\"Left\",\"39\",\"4\",\"5\",\"8\",\"C1\",\"J\",\"77\"
\"\",\"\",\"approach-retreat\",\"226\",\"1637378\",\"0.0-226.0\",\"\",\"\",\"1-2\",\"4972\",\"40\",\"1\",\"Testing\",\"Stims/Figures/74-C-20-4.bmp\",\"za:haza\",\"Down\",\"40\",\"4\",\"6\",\"8\",\"C2\",\"J\",\"78\"
\"\",\"\",\"approach-retreat\",\"227\",\"1643954\",\"0.0-227.0\",\"\",\"\",\"1-2\",\"5069\",\"40\",\"1\",\"Testing\",\"Stims/Figures/102-J-10-4.bmp\",\"sa:saza\",\"Up\",\"40\",\"4\",\"7\",\"8\",\"C2\",\"J\",\"79\"
\"\",\"\",\"approach-retreat\",\"228\",\"1650169\",\"0.0-228.0\",\"\",\"\",\"1-2\",\"4707\",\"39\",\"1\",\"Testing\",\"Stims/Figures/144-C-30-3.bmp\",\"zaha:za\",\"Right\",\"39\",\"4\",\"8\",\"8\",\"C2\",\"J\",\"80\"
\"\",\"\",\"approach-retreat\",\"229\",\"1657378\",\"0.0-229.0\",\"\",\"\",\"1-2\",\"5701\",\"40\",\"1\",\"Testing\",\"Stims/Figures/100-J-10-3.bmp\",\"za:saza\",\"Up\",\"40\",\"4\",\"9\",\"8\",\"C2\",\"J\",\"81\"
\"\",\"\",\"approach-retreat\",\"230\",\"1667794\",\"0.0-230.0\",\"\",\"\",\"1-2\",\"8909\",\"37\",\"1\",\"Testing\",\"Stims/Figures/102-C-20-4.bmp\",\"zasaha\",\"Left\",\"37\",\"4\",\"10\",\"8\",\"C2\",\"J\",\"82\"
\"\",\"\",\"approach-retreat\",\"231\",\"1674257\",\"0.0-231.0\",\"\",\"\",\"1-2\",\"4955\",\"39\",\"1\",\"Testing\",\"Stims/Figures/139-C-20-2.bmp\",\"vasha:sha\",\"Right\",\"39\",\"4\",\"11\",\"8\",\"C1\",\"J\",\"83\"
\"\",\"\",\"approach-retreat\",\"232\",\"1680635\",\"0.0-232.0\",\"\",\"\",\"1-2\",\"4871\",\"38\",\"1\",\"Testing\",\"Stims/Figures/7-J-10-4.bmp\",\"sa:sa:za\",\"Down\",\"38\",\"4\",\"12\",\"8\",\"C2\",\"J\",\"84\"
\"\",\"\",\"approach-retreat\",\"233\",\"1688009\",\"0.0-233.0\",\"\",\"\",\"1-2\",\"5866\",\"38\",\"0\",\"Testing\",\"Stims/Figures/85-C-20-2.bmp\",\"fafava\",\"Down\",\"40\",\"4\",\"13\",\"8\",\"C1\",\"J\",\"85\"
\"\",\"\",\"approach-retreat\",\"234\",\"1697762\",\"0.0-234.0\",\"\",\"\",\"1-2\",\"8246\",\"38\",\"1\",\"Testing\",\"Stims/Figures/74-J-10-4.bmp\",\"za:saha\",\"Down\",\"38\",\"4\",\"14\",\"8\",\"C2\",\"J\",\"86\"
\"\",\"\",\"approach-retreat\",\"235\",\"1705409\",\"0.0-235.0\",\"\",\"\",\"1-2\",\"6139\",\"37\",\"1\",\"Testing\",\"Stims/Figures/7-C-20-4.bmp\",\"sa:haha\",\"Left\",\"37\",\"4\",\"15\",\"8\",\"C2\",\"J\",\"87\"
\"\",\"\",\"approach-retreat\",\"236\",\"1711514\",\"0.0-236.0\",\"\",\"\",\"1-2\",\"4598\",\"38\",\"1\",\"Testing\",\"Stims/Figures/44-J-10-3.bmp\",\"zasa:ha\",\"Down\",\"38\",\"4\",\"16\",\"8\",\"C2\",\"J\",\"88\"
\"\",\"\",\"approach-retreat\",\"237\",\"1719896\",\"0.0-237.0\",\"\",\"\",\"1-2\",\"6875\",\"39\",\"1\",\"Testing\",\"Stims/Figures/57-C-30-1.bmp\",\"vafa:va\",\"Right\",\"39\",\"4\",\"17\",\"8\",\"C1\",\"J\",\"89\"
\"\",\"\",\"approach-retreat\",\"238\",\"1725690\",\"0.0-238.0\",\"\",\"\",\"1-2\",\"4287\",\"39\",\"1\",\"Testing\",\"Stims/Figures/85-J-0-2.bmp\",\"va:fa:sha\",\"Left\",\"39\",\"4\",\"18\",\"8\",\"C1\",\"J\",\"90\"
\"\",\"\",\"approach-retreat\",\"239\",\"1737018\",\"0.0-239.0\",\"\",\"\",\"1-2\",\"9821\",\"39\",\"1\",\"Testing\",\"Stims/Figures/100-C-30-3.bmp\",\"sa:saha\",\"Right\",\"39\",\"4\",\"19\",\"8\",\"C2\",\"J\",\"91\"
\"\",\"\",\"approach-retreat\",\"240\",\"1743521\",\"0.0-240.0\",\"\",\"\",\"1-2\",\"4996\",\"38\",\"1\",\"Testing\",\"Stims/Figures/27-C-30-1.bmp\",\"vashava\",\"Up\",\"38\",\"4\",\"20\",\"8\",\"C1\",\"J\",\"92\"
\"\",\"\",\"approach-retreat\",\"241\",\"1750954\",\"0.0-241.0\",\"\",\"\",\"1-2\",\"5925\",\"39\",\"1\",\"Testing\",\"Stims/Figures/44-C-30-3.bmp\",\"sasa:ha\",\"Right\",\"39\",\"4\",\"21\",\"8\",\"C2\",\"J\",\"93\"
\"\",\"\",\"approach-retreat\",\"242\",\"1757345\",\"0.0-242.0\",\"\",\"\",\"1-2\",\"4884\",\"38\",\"1\",\"Testing\",\"Stims/Figures/71-C-30-1.bmp\",\"fashava\",\"Up\",\"38\",\"4\",\"22\",\"8\",\"C1\",\"J\",\"94\"
\"\",\"\",\"approach-retreat\",\"243\",\"1763058\",\"0.0-243.0\",\"\",\"\",\"1-2\",\"4210\",\"39\",\"1\",\"Testing\",\"Stims/Figures/57-J-0-1.bmp\",\"fafasha\",\"Left\",\"39\",\"4\",\"23\",\"8\",\"C1\",\"J\",\"95\"
\"\",\"\",\"approach-retreat\",\"244\",\"1769329\",\"0.0-244.0\",\"\",\"\",\"1-2\",\"4764\",\"37\",\"1\",\"Testing\",\"Stims/Figures/71-J-0-1.bmp\",\"vafa:sha\",\"Right\",\"37\",\"4\",\"24\",\"8\",\"C1\",\"J\",\"96\"
\"30927\",\"\",\"survey-text\",\"245\",\"1800261\",\"0.0-245.0\",\"\",\"{\"\"Q0\"\":\"\"PS170062\"\"}\",\"\",\"\",\"\",\"\",\"\",\"\",\"\",\"\",\"\",\"\",\"\",\"\",\"\",\"\",\"\"
