\"rt\",\"key_press\",\"trial_type\",\"trial_index\",\"time_elapsed\",\"internal_node_id\",\"view_history\",\"responses\",\"Id\",\"Rt\",\"ResKeyCode\",\"ResCorr\",\"TrialType2\",\"Image\",\"Label\",\"Location\",\"CorrectResponse\",\"Block\",\"BlockTrial\",\"Condition\",\"LabelType\",\"Subcondition\",\"trialNum\"
\"21590\",\"32\",\"text\",\"0\",\"21604\",\"0.0-0.0-0.0\",\"\",\"\",\"\",\"\",\"\",\"\",\"\",\"\",\"\",\"\",\"\",\"\",\"\",\"\",\"\",\"\",\"\"
\"40436\",\"\",\"instructions\",\"1\",\"62049\",\"0.0-1.0\",\"[{\"\"page_index\"\":0,\"\"viewing_time\"\":40435}]\",\"\",\"\",\"\",\"\",\"\",\"\",\"\",\"\",\"\",\"\",\"\",\"\",\"\",\"\",\"\",\"\"
\"14535\",\"\",\"survey-multi-choice\",\"2\",\"76642\",\"0.0-2.0\",\"\",\"{\"\"Q0\"\":\"\"Da\"\",\"\"Q1\"\":\"\"Da\"\",\"\"Q2\"\":\"\"Da\"\",\"\"Q3\"\":\"\"Da\"\",\"\"Q4\"\":\"\"Da\"\",\"\"Q5\"\":\"\"Da\"\"}\",\"\",\"\",\"\",\"\",\"\",\"\",\"\",\"\",\"\",\"\",\"\",\"\",\"\",\"\",\"\"
\"\",\"\",\"bio\",\"3\",\"82029\",\"0.0-3.0\",\"\",\"{\"\"age\"\":\"\"21\"\",\"\"gender\"\":\"\"f\"\",\"\"specify\"\":\"\"\"\"}\",\"\",\"\",\"\",\"\",\"\",\"\",\"\",\"\",\"\",\"\",\"\",\"\",\"\",\"\",\"\"
\"\",\"\",\"approach-retreat\",\"4\",\"89467\",\"0.0-4.0\",\"\",\"\",\"2-3\",\"5921\",\"37\",\"0\",\"Training\",\"Stims/Figures/7-J-10-4.bmp\",\"na:lana\",\"Right\",\"39\",\"1\",\"1\",\"7\",\"S\",\"C\",\"1\"
\"\",\"\",\"approach-retreat\",\"5\",\"96714\",\"0.0-5.0\",\"\",\"\",\"2-3\",\"5733\",\"37\",\"1\",\"Training\",\"Stims/Figures/44-J-10-3.bmp\",\"ma:ma:na\",\"Left\",\"37\",\"1\",\"2\",\"7\",\"S\",\"C\",\"2\"
\"\",\"\",\"approach-retreat\",\"6\",\"103298\",\"0.0-6.0\",\"\",\"\",\"2-3\",\"5071\",\"37\",\"0\",\"Training\",\"Stims/Figures/7-C-20-4.bmp\",\"mama:na\",\"Left\",\"39\",\"1\",\"3\",\"7\",\"S\",\"C\",\"3\"
\"\",\"\",\"approach-retreat\",\"7\",\"110640\",\"0.0-7.0\",\"\",\"\",\"2-3\",\"5823\",\"38\",\"1\",\"Training\",\"Stims/Figures/93-J-0-1.bmp\",\"tapa:ta\",\"Up\",\"38\",\"1\",\"4\",\"7\",\"P\",\"C\",\"4\"
\"\",\"\",\"approach-retreat\",\"8\",\"116658\",\"0.0-8.0\",\"\",\"\",\"2-3\",\"4493\",\"39\",\"1\",\"Training\",\"Stims/Figures/84-J-0-2.bmp\",\"ta:pa:ta\",\"Right\",\"39\",\"1\",\"5\",\"7\",\"P\",\"C\",\"5\"
\"\",\"\",\"approach-retreat\",\"9\",\"123517\",\"0.0-9.0\",\"\",\"\",\"2-3\",\"5329\",\"40\",\"1\",\"Training\",\"Stims/Figures/118-J-0-2.bmp\",\"pa:kata\",\"Down\",\"40\",\"1\",\"6\",\"7\",\"P\",\"C\",\"6\"
\"\",\"\",\"approach-retreat\",\"10\",\"129478\",\"0.0-10.0\",\"\",\"\",\"2-3\",\"4417\",\"38\",\"0\",\"Training\",\"Stims/Figures/19-J-10-4.bmp\",\"nalana\",\"Down\",\"40\",\"1\",\"7\",\"7\",\"S\",\"C\",\"7\"
\"\",\"\",\"approach-retreat\",\"11\",\"135708\",\"0.0-11.0\",\"\",\"\",\"2-3\",\"4718\",\"40\",\"1\",\"Training\",\"Stims/Figures/19-C-20-4.bmp\",\"ma:ma:la\",\"Up\",\"40\",\"1\",\"8\",\"7\",\"S\",\"C\",\"8\"
\"\",\"\",\"approach-retreat\",\"12\",\"141601\",\"0.0-12.0\",\"\",\"\",\"2-3\",\"4378\",\"37\",\"0\",\"Training\",\"Stims/Figures/71-C-30-1.bmp\",\"ta:ka:ta\",\"Left\",\"39\",\"1\",\"9\",\"7\",\"P\",\"C\",\"9\"
\"\",\"\",\"approach-retreat\",\"13\",\"147784\",\"0.0-13.0\",\"\",\"\",\"2-3\",\"4671\",\"37\",\"0\",\"Training\",\"Stims/Figures/71-J-0-1.bmp\",\"takata\",\"Right\",\"39\",\"1\",\"10\",\"7\",\"P\",\"C\",\"10\"
\"\",\"\",\"approach-retreat\",\"14\",\"153990\",\"0.0-14.0\",\"\",\"\",\"2-3\",\"4653\",\"39\",\"1\",\"Training\",\"Stims/Figures/44-C-30-3.bmp\",\"mama:la\",\"Left\",\"39\",\"1\",\"11\",\"7\",\"S\",\"C\",\"11\"
\"\",\"\",\"approach-retreat\",\"15\",\"160210\",\"0.0-15.0\",\"\",\"\",\"2-3\",\"4663\",\"40\",\"0\",\"Training\",\"Stims/Figures/93-C-30-1.bmp\",\"paka:ka\",\"Down\",\"38\",\"1\",\"12\",\"7\",\"P\",\"C\",\"12\"
\"\",\"\",\"approach-retreat\",\"16\",\"166017\",\"0.0-16.0\",\"\",\"\",\"2-3\",\"4259\",\"37\",\"1\",\"Training\",\"Stims/Figures/128-C-30-3.bmp\",\"namala\",\"Right\",\"37\",\"1\",\"13\",\"7\",\"S\",\"C\",\"13\"
\"\",\"\",\"approach-retreat\",\"17\",\"172745\",\"0.0-17.0\",\"\",\"\",\"2-3\",\"5201\",\"38\",\"0\",\"Training\",\"Stims/Figures/118-C-20-2.bmp\",\"pa:pa:ka\",\"Up\",\"40\",\"1\",\"14\",\"7\",\"P\",\"C\",\"14\"
\"\",\"\",\"approach-retreat\",\"18\",\"178464\",\"0.0-18.0\",\"\",\"\",\"2-3\",\"4195\",\"38\",\"0\",\"Training\",\"Stims/Figures/84-C-20-2.bmp\",\"pa:pata\",\"Up\",\"40\",\"1\",\"15\",\"7\",\"P\",\"C\",\"15\"
\"\",\"\",\"approach-retreat\",\"19\",\"185573\",\"0.0-19.0\",\"\",\"\",\"2-3\",\"5591\",\"40\",\"1\",\"Training\",\"Stims/Figures/128-J-10-3.bmp\",\"na:ma:la\",\"Down\",\"40\",\"1\",\"16\",\"7\",\"S\",\"C\",\"16\"
\"\",\"\",\"approach-retreat\",\"20\",\"191246\",\"0.0-20.0\",\"\",\"\",\"2-3\",\"4160\",\"37\",\"1\",\"Training\",\"Stims/Figures/93-J-0-1.bmp\",\"tapa:ta\",\"Left\",\"37\",\"2\",\"1\",\"7\",\"P\",\"C\",\"17\"
\"\",\"\",\"approach-retreat\",\"21\",\"197454\",\"0.0-21.0\",\"\",\"\",\"2-3\",\"4690\",\"40\",\"1\",\"Training\",\"Stims/Figures/84-J-0-2.bmp\",\"ta:pa:ta\",\"Down\",\"40\",\"2\",\"2\",\"7\",\"P\",\"C\",\"18\"
\"\",\"\",\"approach-retreat\",\"22\",\"203551\",\"0.0-22.0\",\"\",\"\",\"2-3\",\"4584\",\"38\",\"1\",\"Training\",\"Stims/Figures/93-C-30-1.bmp\",\"paka:ka\",\"Down\",\"38\",\"2\",\"3\",\"7\",\"P\",\"C\",\"19\"
\"\",\"\",\"approach-retreat\",\"23\",\"209596\",\"0.0-23.0\",\"\",\"\",\"2-3\",\"4530\",\"37\",\"1\",\"Training\",\"Stims/Figures/7-C-20-4.bmp\",\"mama:na\",\"Right\",\"37\",\"2\",\"4\",\"7\",\"S\",\"C\",\"20\"
\"\",\"\",\"approach-retreat\",\"24\",\"216438\",\"0.0-24.0\",\"\",\"\",\"2-3\",\"5327\",\"38\",\"1\",\"Training\",\"Stims/Figures/71-J-0-1.bmp\",\"takata\",\"Up\",\"38\",\"2\",\"5\",\"7\",\"P\",\"C\",\"21\"
\"\",\"\",\"approach-retreat\",\"25\",\"223008\",\"0.0-25.0\",\"\",\"\",\"2-3\",\"5047\",\"39\",\"0\",\"Training\",\"Stims/Figures/84-C-20-2.bmp\",\"pa:pata\",\"Right\",\"37\",\"2\",\"6\",\"7\",\"P\",\"C\",\"22\"
\"\",\"\",\"approach-retreat\",\"26\",\"228799\",\"0.0-26.0\",\"\",\"\",\"2-3\",\"4279\",\"39\",\"1\",\"Training\",\"Stims/Figures/128-C-30-3.bmp\",\"namala\",\"Left\",\"39\",\"2\",\"7\",\"7\",\"S\",\"C\",\"23\"
\"\",\"\",\"approach-retreat\",\"27\",\"234656\",\"0.0-27.0\",\"\",\"\",\"2-3\",\"4345\",\"38\",\"0\",\"Training\",\"Stims/Figures/128-J-10-3.bmp\",\"na:ma:la\",\"Down\",\"40\",\"2\",\"8\",\"7\",\"S\",\"C\",\"24\"
\"\",\"\",\"approach-retreat\",\"28\",\"240538\",\"0.0-28.0\",\"\",\"\",\"2-3\",\"4371\",\"40\",\"0\",\"Training\",\"Stims/Figures/118-J-0-2.bmp\",\"pa:kata\",\"Up\",\"38\",\"2\",\"9\",\"7\",\"P\",\"C\",\"25\"
\"\",\"\",\"approach-retreat\",\"29\",\"247067\",\"0.0-29.0\",\"\",\"\",\"2-3\",\"5015\",\"40\",\"1\",\"Training\",\"Stims/Figures/118-C-20-2.bmp\",\"pa:pa:ka\",\"Up\",\"40\",\"2\",\"10\",\"7\",\"P\",\"C\",\"26\"
\"\",\"\",\"approach-retreat\",\"30\",\"253623\",\"0.0-30.0\",\"\",\"\",\"2-3\",\"5041\",\"37\",\"1\",\"Training\",\"Stims/Figures/44-C-30-3.bmp\",\"mama:la\",\"Right\",\"37\",\"2\",\"11\",\"7\",\"S\",\"C\",\"27\"
\"\",\"\",\"approach-retreat\",\"31\",\"259498\",\"0.0-31.0\",\"\",\"\",\"2-3\",\"4360\",\"39\",\"0\",\"Training\",\"Stims/Figures/19-J-10-4.bmp\",\"nalana\",\"Left\",\"37\",\"2\",\"12\",\"7\",\"S\",\"C\",\"28\"
\"\",\"\",\"approach-retreat\",\"32\",\"265075\",\"0.0-32.0\",\"\",\"\",\"2-3\",\"4067\",\"39\",\"1\",\"Training\",\"Stims/Figures/71-C-30-1.bmp\",\"ta:ka:ta\",\"Left\",\"39\",\"2\",\"13\",\"7\",\"P\",\"C\",\"29\"
\"\",\"\",\"approach-retreat\",\"33\",\"270958\",\"0.0-33.0\",\"\",\"\",\"2-3\",\"4368\",\"38\",\"0\",\"Training\",\"Stims/Figures/44-J-10-3.bmp\",\"ma:ma:na\",\"Down\",\"40\",\"2\",\"14\",\"7\",\"S\",\"C\",\"30\"
\"\",\"\",\"approach-retreat\",\"34\",\"276786\",\"0.0-34.0\",\"\",\"\",\"2-3\",\"4304\",\"40\",\"1\",\"Training\",\"Stims/Figures/19-C-20-4.bmp\",\"ma:ma:la\",\"Up\",\"40\",\"2\",\"15\",\"7\",\"S\",\"C\",\"31\"
\"\",\"\",\"approach-retreat\",\"35\",\"282411\",\"0.0-35.0\",\"\",\"\",\"2-3\",\"4113\",\"37\",\"0\",\"Training\",\"Stims/Figures/7-J-10-4.bmp\",\"na:lana\",\"Right\",\"39\",\"2\",\"16\",\"7\",\"S\",\"C\",\"32\"
\"\",\"\",\"approach-retreat\",\"36\",\"288497\",\"0.0-36.0\",\"\",\"\",\"2-3\",\"4572\",\"40\",\"1\",\"Training\",\"Stims/Figures/118-J-0-2.bmp\",\"pa:kata\",\"Down\",\"40\",\"3\",\"1\",\"7\",\"P\",\"C\",\"33\"
\"\",\"\",\"approach-retreat\",\"37\",\"294308\",\"0.0-37.0\",\"\",\"\",\"2-3\",\"4295\",\"38\",\"0\",\"Training\",\"Stims/Figures/44-J-10-3.bmp\",\"ma:ma:na\",\"Down\",\"40\",\"3\",\"2\",\"7\",\"S\",\"C\",\"34\"
\"\",\"\",\"approach-retreat\",\"38\",\"300443\",\"0.0-38.0\",\"\",\"\",\"2-3\",\"4610\",\"39\",\"0\",\"Training\",\"Stims/Figures/84-C-20-2.bmp\",\"pa:pata\",\"Right\",\"37\",\"3\",\"3\",\"7\",\"P\",\"C\",\"35\"
\"\",\"\",\"approach-retreat\",\"39\",\"306417\",\"0.0-39.0\",\"\",\"\",\"2-3\",\"4464\",\"39\",\"1\",\"Training\",\"Stims/Figures/84-J-0-2.bmp\",\"ta:pa:ta\",\"Right\",\"39\",\"3\",\"4\",\"7\",\"P\",\"C\",\"36\"
\"\",\"\",\"approach-retreat\",\"40\",\"312114\",\"0.0-40.0\",\"\",\"\",\"2-3\",\"4182\",\"40\",\"0\",\"Training\",\"Stims/Figures/7-J-10-4.bmp\",\"na:lana\",\"Up\",\"38\",\"3\",\"5\",\"7\",\"S\",\"C\",\"37\"
\"\",\"\",\"approach-retreat\",\"41\",\"318261\",\"0.0-41.0\",\"\",\"\",\"2-3\",\"4617\",\"37\",\"0\",\"Training\",\"Stims/Figures/7-C-20-4.bmp\",\"mama:na\",\"Left\",\"39\",\"3\",\"6\",\"7\",\"S\",\"C\",\"38\"
\"\",\"\",\"approach-retreat\",\"42\",\"324152\",\"0.0-42.0\",\"\",\"\",\"2-3\",\"4377\",\"40\",\"1\",\"Training\",\"Stims/Figures/128-C-30-3.bmp\",\"namala\",\"Up\",\"40\",\"3\",\"7\",\"7\",\"S\",\"C\",\"39\"
\"\",\"\",\"approach-retreat\",\"43\",\"329848\",\"0.0-43.0\",\"\",\"\",\"2-3\",\"4185\",\"38\",\"1\",\"Training\",\"Stims/Figures/19-C-20-4.bmp\",\"ma:ma:la\",\"Down\",\"38\",\"3\",\"8\",\"7\",\"S\",\"C\",\"40\"
\"\",\"\",\"approach-retreat\",\"44\",\"335851\",\"0.0-44.0\",\"\",\"\",\"2-3\",\"4485\",\"38\",\"0\",\"Training\",\"Stims/Figures/93-C-30-1.bmp\",\"paka:ka\",\"Up\",\"40\",\"3\",\"9\",\"7\",\"P\",\"C\",\"41\"
\"\",\"\",\"approach-retreat\",\"45\",\"341672\",\"0.0-45.0\",\"\",\"\",\"2-3\",\"4301\",\"40\",\"0\",\"Training\",\"Stims/Figures/44-C-30-3.bmp\",\"mama:la\",\"Down\",\"38\",\"3\",\"10\",\"7\",\"S\",\"C\",\"42\"
\"\",\"\",\"approach-retreat\",\"46\",\"347729\",\"0.0-46.0\",\"\",\"\",\"2-3\",\"4540\",\"39\",\"0\",\"Training\",\"Stims/Figures/71-C-30-1.bmp\",\"ta:ka:ta\",\"Right\",\"37\",\"3\",\"11\",\"7\",\"P\",\"C\",\"43\"
\"\",\"\",\"approach-retreat\",\"47\",\"352853\",\"0.0-47.0\",\"\",\"\",\"2-3\",\"3611\",\"39\",\"1\",\"Training\",\"Stims/Figures/118-C-20-2.bmp\",\"pa:pa:ka\",\"Left\",\"39\",\"3\",\"12\",\"7\",\"P\",\"C\",\"44\"
\"\",\"\",\"approach-retreat\",\"48\",\"359068\",\"0.0-48.0\",\"\",\"\",\"2-3\",\"4700\",\"39\",\"1\",\"Training\",\"Stims/Figures/71-J-0-1.bmp\",\"takata\",\"Right\",\"39\",\"3\",\"13\",\"7\",\"P\",\"C\",\"45\"
\"\",\"\",\"approach-retreat\",\"49\",\"365421\",\"0.0-49.0\",\"\",\"\",\"2-3\",\"4833\",\"39\",\"0\",\"Training\",\"Stims/Figures/19-J-10-4.bmp\",\"nalana\",\"Left\",\"37\",\"3\",\"14\",\"7\",\"S\",\"C\",\"46\"
\"\",\"\",\"approach-retreat\",\"50\",\"371419\",\"0.0-50.0\",\"\",\"\",\"2-3\",\"4488\",\"40\",\"0\",\"Training\",\"Stims/Figures/128-J-10-3.bmp\",\"na:ma:la\",\"Up\",\"38\",\"3\",\"15\",\"7\",\"S\",\"C\",\"47\"
\"\",\"\",\"approach-retreat\",\"51\",\"377117\",\"0.0-51.0\",\"\",\"\",\"2-3\",\"4186\",\"37\",\"1\",\"Training\",\"Stims/Figures/93-J-0-1.bmp\",\"tapa:ta\",\"Left\",\"37\",\"3\",\"16\",\"7\",\"P\",\"C\",\"48\"
\"\",\"\",\"approach-retreat\",\"52\",\"382876\",\"0.0-52.0\",\"\",\"\",\"2-3\",\"4246\",\"37\",\"1\",\"Training\",\"Stims/Figures/118-J-0-2.bmp\",\"pa:kata\",\"Left\",\"37\",\"4\",\"1\",\"7\",\"P\",\"C\",\"49\"
\"\",\"\",\"approach-retreat\",\"53\",\"389289\",\"0.0-53.0\",\"\",\"\",\"2-3\",\"4898\",\"38\",\"1\",\"Training\",\"Stims/Figures/7-C-20-4.bmp\",\"mama:na\",\"Down\",\"38\",\"4\",\"2\",\"7\",\"S\",\"C\",\"50\"
\"\",\"\",\"approach-retreat\",\"54\",\"395323\",\"0.0-54.0\",\"\",\"\",\"2-3\",\"4512\",\"38\",\"0\",\"Training\",\"Stims/Figures/93-C-30-1.bmp\",\"paka:ka\",\"Up\",\"40\",\"4\",\"3\",\"7\",\"P\",\"C\",\"51\"
\"\",\"\",\"approach-retreat\",\"55\",\"401235\",\"0.0-55.0\",\"\",\"\",\"2-3\",\"4396\",\"38\",\"1\",\"Training\",\"Stims/Figures/128-J-10-3.bmp\",\"na:ma:la\",\"Up\",\"38\",\"4\",\"4\",\"7\",\"S\",\"C\",\"52\"
\"\",\"\",\"approach-retreat\",\"56\",\"407176\",\"0.0-56.0\",\"\",\"\",\"2-3\",\"4430\",\"40\",\"1\",\"Training\",\"Stims/Figures/19-C-20-4.bmp\",\"ma:ma:la\",\"Up\",\"40\",\"4\",\"5\",\"7\",\"S\",\"C\",\"53\"
\"\",\"\",\"approach-retreat\",\"57\",\"412927\",\"0.0-57.0\",\"\",\"\",\"2-3\",\"4238\",\"40\",\"0\",\"Training\",\"Stims/Figures/44-C-30-3.bmp\",\"mama:la\",\"Down\",\"38\",\"4\",\"6\",\"7\",\"S\",\"C\",\"54\"
\"\",\"\",\"approach-retreat\",\"58\",\"418975\",\"0.0-58.0\",\"\",\"\",\"2-3\",\"4533\",\"37\",\"0\",\"Training\",\"Stims/Figures/118-C-20-2.bmp\",\"pa:pa:ka\",\"Left\",\"39\",\"4\",\"7\",\"7\",\"P\",\"C\",\"55\"
\"\",\"\",\"approach-retreat\",\"59\",\"425191\",\"0.0-59.0\",\"\",\"\",\"2-3\",\"4691\",\"39\",\"1\",\"Training\",\"Stims/Figures/7-J-10-4.bmp\",\"na:lana\",\"Right\",\"39\",\"4\",\"8\",\"7\",\"S\",\"C\",\"56\"
\"\",\"\",\"approach-retreat\",\"60\",\"430815\",\"0.0-60.0\",\"\",\"\",\"2-3\",\"4097\",\"37\",\"0\",\"Training\",\"Stims/Figures/71-C-30-1.bmp\",\"ta:ka:ta\",\"Left\",\"39\",\"4\",\"9\",\"7\",\"P\",\"C\",\"57\"
\"\",\"\",\"approach-retreat\",\"61\",\"436555\",\"0.0-61.0\",\"\",\"\",\"2-3\",\"4229\",\"40\",\"0\",\"Training\",\"Stims/Figures/84-J-0-2.bmp\",\"ta:pa:ta\",\"Up\",\"38\",\"4\",\"10\",\"7\",\"P\",\"C\",\"58\"
\"\",\"\",\"approach-retreat\",\"62\",\"442296\",\"0.0-62.0\",\"\",\"\",\"2-3\",\"4229\",\"39\",\"1\",\"Training\",\"Stims/Figures/84-C-20-2.bmp\",\"pa:pata\",\"Left\",\"39\",\"4\",\"11\",\"7\",\"P\",\"C\",\"59\"
\"\",\"\",\"approach-retreat\",\"63\",\"448001\",\"0.0-63.0\",\"\",\"\",\"2-3\",\"4195\",\"37\",\"0\",\"Training\",\"Stims/Figures/19-J-10-4.bmp\",\"nalana\",\"Right\",\"39\",\"4\",\"12\",\"7\",\"S\",\"C\",\"60\"
\"\",\"\",\"approach-retreat\",\"64\",\"453597\",\"0.0-64.0\",\"\",\"\",\"2-3\",\"4083\",\"39\",\"1\",\"Training\",\"Stims/Figures/71-J-0-1.bmp\",\"takata\",\"Right\",\"39\",\"4\",\"13\",\"7\",\"P\",\"C\",\"61\"
\"\",\"\",\"approach-retreat\",\"65\",\"459886\",\"0.0-65.0\",\"\",\"\",\"2-3\",\"4777\",\"38\",\"0\",\"Training\",\"Stims/Figures/44-J-10-3.bmp\",\"ma:ma:na\",\"Down\",\"40\",\"4\",\"14\",\"7\",\"S\",\"C\",\"62\"
\"\",\"\",\"approach-retreat\",\"66\",\"465555\",\"0.0-66.0\",\"\",\"\",\"2-3\",\"4156\",\"39\",\"0\",\"Training\",\"Stims/Figures/128-C-30-3.bmp\",\"namala\",\"Right\",\"37\",\"4\",\"15\",\"7\",\"S\",\"C\",\"63\"
\"\",\"\",\"approach-retreat\",\"67\",\"471333\",\"0.0-67.0\",\"\",\"\",\"2-3\",\"4259\",\"38\",\"0\",\"Training\",\"Stims/Figures/93-J-0-1.bmp\",\"tapa:ta\",\"Down\",\"40\",\"4\",\"16\",\"7\",\"P\",\"C\",\"64\"
\"\",\"\",\"approach-retreat\",\"68\",\"477693\",\"0.0-68.0\",\"\",\"\",\"2-3\",\"4849\",\"37\",\"0\",\"Training\",\"Stims/Figures/7-J-10-4.bmp\",\"na:lana\",\"Right\",\"39\",\"5\",\"1\",\"7\",\"S\",\"C\",\"65\"
\"\",\"\",\"approach-retreat\",\"69\",\"483518\",\"0.0-69.0\",\"\",\"\",\"2-3\",\"4313\",\"38\",\"1\",\"Training\",\"Stims/Figures/118-J-0-2.bmp\",\"pa:kata\",\"Up\",\"38\",\"5\",\"2\",\"7\",\"P\",\"C\",\"66\"
\"\",\"\",\"approach-retreat\",\"70\",\"489238\",\"0.0-70.0\",\"\",\"\",\"2-3\",\"4203\",\"38\",\"0\",\"Training\",\"Stims/Figures/84-J-0-2.bmp\",\"ta:pa:ta\",\"Down\",\"40\",\"5\",\"3\",\"7\",\"P\",\"C\",\"67\"
\"\",\"\",\"approach-retreat\",\"71\",\"494880\",\"0.0-71.0\",\"\",\"\",\"2-3\",\"4131\",\"38\",\"1\",\"Training\",\"Stims/Figures/44-C-30-3.bmp\",\"mama:la\",\"Down\",\"38\",\"5\",\"4\",\"7\",\"S\",\"C\",\"68\"
\"\",\"\",\"approach-retreat\",\"72\",\"500972\",\"0.0-72.0\",\"\",\"\",\"2-3\",\"4581\",\"37\",\"1\",\"Training\",\"Stims/Figures/118-C-20-2.bmp\",\"pa:pa:ka\",\"Right\",\"37\",\"5\",\"5\",\"7\",\"P\",\"C\",\"69\"
\"\",\"\",\"approach-retreat\",\"73\",\"506709\",\"0.0-73.0\",\"\",\"\",\"2-3\",\"4226\",\"37\",\"1\",\"Training\",\"Stims/Figures/93-C-30-1.bmp\",\"paka:ka\",\"Right\",\"37\",\"5\",\"6\",\"7\",\"P\",\"C\",\"70\"
\"\",\"\",\"approach-retreat\",\"74\",\"512697\",\"0.0-74.0\",\"\",\"\",\"2-3\",\"4477\",\"37\",\"1\",\"Training\",\"Stims/Figures/93-J-0-1.bmp\",\"tapa:ta\",\"Left\",\"37\",\"5\",\"7\",\"7\",\"P\",\"C\",\"71\"
\"\",\"\",\"approach-retreat\",\"75\",\"518865\",\"0.0-75.0\",\"\",\"\",\"2-3\",\"4656\",\"38\",\"0\",\"Training\",\"Stims/Figures/19-C-20-4.bmp\",\"ma:ma:la\",\"Up\",\"40\",\"5\",\"8\",\"7\",\"S\",\"C\",\"72\"
\"\",\"\",\"approach-retreat\",\"76\",\"525014\",\"0.0-76.0\",\"\",\"\",\"2-3\",\"4638\",\"37\",\"0\",\"Training\",\"Stims/Figures/84-C-20-2.bmp\",\"pa:pata\",\"Left\",\"39\",\"5\",\"9\",\"7\",\"P\",\"C\",\"73\"
\"\",\"\",\"approach-retreat\",\"77\",\"530859\",\"0.0-77.0\",\"\",\"\",\"2-3\",\"4333\",\"38\",\"0\",\"Training\",\"Stims/Figures/19-J-10-4.bmp\",\"nalana\",\"Down\",\"40\",\"5\",\"10\",\"7\",\"S\",\"C\",\"74\"
\"\",\"\",\"approach-retreat\",\"78\",\"536965\",\"0.0-78.0\",\"\",\"\",\"2-3\",\"4595\",\"37\",\"0\",\"Training\",\"Stims/Figures/71-C-30-1.bmp\",\"ta:ka:ta\",\"Left\",\"39\",\"5\",\"11\",\"7\",\"P\",\"C\",\"75\"
\"\",\"\",\"approach-retreat\",\"79\",\"542973\",\"0.0-79.0\",\"\",\"\",\"2-3\",\"4498\",\"39\",\"1\",\"Training\",\"Stims/Figures/44-J-10-3.bmp\",\"ma:ma:na\",\"Right\",\"39\",\"5\",\"12\",\"7\",\"S\",\"C\",\"76\"
\"\",\"\",\"approach-retreat\",\"80\",\"549121\",\"0.0-80.0\",\"\",\"\",\"2-3\",\"4635\",\"40\",\"1\",\"Training\",\"Stims/Figures/128-C-30-3.bmp\",\"namala\",\"Up\",\"40\",\"5\",\"13\",\"7\",\"S\",\"C\",\"77\"
\"\",\"\",\"approach-retreat\",\"81\",\"555207\",\"0.0-81.0\",\"\",\"\",\"2-3\",\"4575\",\"37\",\"1\",\"Training\",\"Stims/Figures/128-J-10-3.bmp\",\"na:ma:la\",\"Left\",\"37\",\"5\",\"14\",\"7\",\"S\",\"C\",\"78\"
\"\",\"\",\"approach-retreat\",\"82\",\"561734\",\"0.0-82.0\",\"\",\"\",\"2-3\",\"5014\",\"40\",\"1\",\"Training\",\"Stims/Figures/71-J-0-1.bmp\",\"takata\",\"Down\",\"40\",\"5\",\"15\",\"7\",\"P\",\"C\",\"79\"
\"\",\"\",\"approach-retreat\",\"83\",\"567635\",\"0.0-83.0\",\"\",\"\",\"2-3\",\"4390\",\"40\",\"1\",\"Training\",\"Stims/Figures/7-C-20-4.bmp\",\"mama:na\",\"Up\",\"40\",\"5\",\"16\",\"7\",\"S\",\"C\",\"80\"
\"\",\"\",\"approach-retreat\",\"84\",\"573560\",\"0.0-84.0\",\"\",\"\",\"2-3\",\"4414\",\"37\",\"1\",\"Training\",\"Stims/Figures/84-C-20-2.bmp\",\"pa:pata\",\"Right\",\"37\",\"6\",\"1\",\"7\",\"P\",\"C\",\"81\"
\"\",\"\",\"approach-retreat\",\"85\",\"579476\",\"0.0-85.0\",\"\",\"\",\"2-3\",\"4405\",\"38\",\"1\",\"Training\",\"Stims/Figures/93-C-30-1.bmp\",\"paka:ka\",\"Down\",\"38\",\"6\",\"2\",\"7\",\"P\",\"C\",\"82\"
\"\",\"\",\"approach-retreat\",\"86\",\"586326\",\"0.0-86.0\",\"\",\"\",\"2-3\",\"5340\",\"39\",\"1\",\"Training\",\"Stims/Figures/44-C-30-3.bmp\",\"mama:la\",\"Left\",\"39\",\"6\",\"3\",\"7\",\"S\",\"C\",\"83\"
\"\",\"\",\"approach-retreat\",\"87\",\"591987\",\"0.0-87.0\",\"\",\"\",\"2-3\",\"4149\",\"39\",\"1\",\"Training\",\"Stims/Figures/84-J-0-2.bmp\",\"ta:pa:ta\",\"Right\",\"39\",\"6\",\"4\",\"7\",\"P\",\"C\",\"84\"
\"\",\"\",\"approach-retreat\",\"88\",\"597216\",\"0.0-88.0\",\"\",\"\",\"2-3\",\"3716\",\"39\",\"0\",\"Training\",\"Stims/Figures/118-C-20-2.bmp\",\"pa:pa:ka\",\"Right\",\"37\",\"6\",\"5\",\"7\",\"P\",\"C\",\"85\"
\"\",\"\",\"approach-retreat\",\"89\",\"603255\",\"0.0-89.0\",\"\",\"\",\"2-3\",\"4526\",\"40\",\"0\",\"Training\",\"Stims/Figures/71-J-0-1.bmp\",\"takata\",\"Up\",\"38\",\"6\",\"6\",\"7\",\"P\",\"C\",\"86\"
\"\",\"\",\"approach-retreat\",\"90\",\"609081\",\"0.0-90.0\",\"\",\"\",\"2-3\",\"4315\",\"38\",\"0\",\"Training\",\"Stims/Figures/7-J-10-4.bmp\",\"na:lana\",\"Down\",\"40\",\"6\",\"7\",\"7\",\"S\",\"C\",\"87\"
\"\",\"\",\"approach-retreat\",\"91\",\"614914\",\"0.0-91.0\",\"\",\"\",\"2-3\",\"4322\",\"40\",\"1\",\"Training\",\"Stims/Figures/19-C-20-4.bmp\",\"ma:ma:la\",\"Up\",\"40\",\"6\",\"8\",\"7\",\"S\",\"C\",\"88\"
\"\",\"\",\"approach-retreat\",\"92\",\"620708\",\"0.0-92.0\",\"\",\"\",\"2-3\",\"4284\",\"37\",\"1\",\"Training\",\"Stims/Figures/44-J-10-3.bmp\",\"ma:ma:na\",\"Left\",\"37\",\"6\",\"9\",\"7\",\"S\",\"C\",\"89\"
\"\",\"\",\"approach-retreat\",\"93\",\"626185\",\"0.0-93.0\",\"\",\"\",\"2-3\",\"3965\",\"38\",\"0\",\"Training\",\"Stims/Figures/93-J-0-1.bmp\",\"tapa:ta\",\"Down\",\"40\",\"6\",\"10\",\"7\",\"P\",\"C\",\"90\"
\"\",\"\",\"approach-retreat\",\"94\",\"632150\",\"0.0-94.0\",\"\",\"\",\"2-3\",\"4454\",\"39\",\"0\",\"Training\",\"Stims/Figures/118-J-0-2.bmp\",\"pa:kata\",\"Left\",\"37\",\"6\",\"11\",\"7\",\"P\",\"C\",\"91\"
\"\",\"\",\"approach-retreat\",\"95\",\"638955\",\"0.0-95.0\",\"\",\"\",\"2-3\",\"5294\",\"39\",\"1\",\"Training\",\"Stims/Figures/19-J-10-4.bmp\",\"nalana\",\"Right\",\"39\",\"6\",\"12\",\"7\",\"S\",\"C\",\"92\"
\"\",\"\",\"approach-retreat\",\"96\",\"644570\",\"0.0-96.0\",\"\",\"\",\"2-3\",\"4101\",\"39\",\"1\",\"Training\",\"Stims/Figures/7-C-20-4.bmp\",\"mama:na\",\"Left\",\"39\",\"6\",\"13\",\"7\",\"S\",\"C\",\"93\"
\"\",\"\",\"approach-retreat\",\"97\",\"650493\",\"0.0-97.0\",\"\",\"\",\"2-3\",\"4412\",\"38\",\"0\",\"Training\",\"Stims/Figures/128-J-10-3.bmp\",\"na:ma:la\",\"Down\",\"40\",\"6\",\"14\",\"7\",\"S\",\"C\",\"94\"
\"\",\"\",\"approach-retreat\",\"98\",\"656687\",\"0.0-98.0\",\"\",\"\",\"2-3\",\"4682\",\"40\",\"1\",\"Training\",\"Stims/Figures/128-C-30-3.bmp\",\"namala\",\"Up\",\"40\",\"6\",\"15\",\"7\",\"S\",\"C\",\"95\"
\"\",\"\",\"approach-retreat\",\"99\",\"663665\",\"0.0-99.0\",\"\",\"\",\"2-3\",\"5467\",\"38\",\"0\",\"Training\",\"Stims/Figures/71-C-30-1.bmp\",\"ta:ka:ta\",\"Up\",\"40\",\"6\",\"16\",\"7\",\"P\",\"C\",\"96\"
\"\",\"\",\"approach-retreat\",\"100\",\"669690\",\"0.0-100.0\",\"\",\"\",\"2-3\",\"4513\",\"37\",\"0\",\"Training\",\"Stims/Figures/7-J-10-4.bmp\",\"na:lana\",\"Right\",\"39\",\"7\",\"1\",\"7\",\"S\",\"C\",\"97\"
\"\",\"\",\"approach-retreat\",\"101\",\"675459\",\"0.0-101.0\",\"\",\"\",\"2-3\",\"4256\",\"38\",\"1\",\"Training\",\"Stims/Figures/128-C-30-3.bmp\",\"namala\",\"Down\",\"38\",\"7\",\"2\",\"7\",\"S\",\"C\",\"98\"
\"\",\"\",\"approach-retreat\",\"102\",\"681022\",\"0.0-102.0\",\"\",\"\",\"2-3\",\"4050\",\"40\",\"1\",\"Training\",\"Stims/Figures/71-C-30-1.bmp\",\"ta:ka:ta\",\"Up\",\"40\",\"7\",\"3\",\"7\",\"P\",\"C\",\"99\"
\"\",\"\",\"approach-retreat\",\"103\",\"686732\",\"0.0-103.0\",\"\",\"\",\"2-3\",\"4197\",\"39\",\"0\",\"Training\",\"Stims/Figures/84-J-0-2.bmp\",\"ta:pa:ta\",\"Left\",\"37\",\"7\",\"4\",\"7\",\"P\",\"C\",\"100\"
\"\",\"\",\"approach-retreat\",\"104\",\"692573\",\"0.0-104.0\",\"\",\"\",\"2-3\",\"4330\",\"39\",\"0\",\"Training\",\"Stims/Figures/128-J-10-3.bmp\",\"na:ma:la\",\"Left\",\"37\",\"7\",\"5\",\"7\",\"S\",\"C\",\"101\"
\"\",\"\",\"approach-retreat\",\"105\",\"698203\",\"0.0-105.0\",\"\",\"\",\"2-3\",\"4118\",\"40\",\"1\",\"Training\",\"Stims/Figures/84-C-20-2.bmp\",\"pa:pata\",\"Up\",\"40\",\"7\",\"6\",\"7\",\"P\",\"C\",\"102\"
\"\",\"\",\"approach-retreat\",\"106\",\"704267\",\"0.0-106.0\",\"\",\"\",\"2-3\",\"4553\",\"37\",\"1\",\"Training\",\"Stims/Figures/118-J-0-2.bmp\",\"pa:kata\",\"Left\",\"37\",\"7\",\"7\",\"7\",\"P\",\"C\",\"103\"
\"\",\"\",\"approach-retreat\",\"107\",\"710247\",\"0.0-107.0\",\"\",\"\",\"2-3\",\"4467\",\"40\",\"1\",\"Training\",\"Stims/Figures/71-J-0-1.bmp\",\"takata\",\"Down\",\"40\",\"7\",\"8\",\"7\",\"P\",\"C\",\"104\"
\"\",\"\",\"approach-retreat\",\"108\",\"716646\",\"0.0-108.0\",\"\",\"\",\"2-3\",\"4890\",\"40\",\"1\",\"Training\",\"Stims/Figures/19-C-20-4.bmp\",\"ma:ma:la\",\"Up\",\"40\",\"7\",\"9\",\"7\",\"S\",\"C\",\"105\"
\"\",\"\",\"approach-retreat\",\"109\",\"722234\",\"0.0-109.0\",\"\",\"\",\"2-3\",\"4076\",\"40\",\"0\",\"Training\",\"Stims/Figures/93-J-0-1.bmp\",\"tapa:ta\",\"Up\",\"38\",\"7\",\"10\",\"7\",\"P\",\"C\",\"106\"
\"\",\"\",\"approach-retreat\",\"110\",\"728282\",\"0.0-110.0\",\"\",\"\",\"2-3\",\"4536\",\"39\",\"0\",\"Training\",\"Stims/Figures/118-C-20-2.bmp\",\"pa:pa:ka\",\"Right\",\"37\",\"7\",\"11\",\"7\",\"P\",\"C\",\"107\"
\"\",\"\",\"approach-retreat\",\"111\",\"734047\",\"0.0-111.0\",\"\",\"\",\"2-3\",\"4254\",\"37\",\"1\",\"Training\",\"Stims/Figures/7-C-20-4.bmp\",\"mama:na\",\"Right\",\"37\",\"7\",\"12\",\"7\",\"S\",\"C\",\"108\"
\"\",\"\",\"approach-retreat\",\"112\",\"739871\",\"0.0-112.0\",\"\",\"\",\"2-3\",\"4308\",\"37\",\"0\",\"Training\",\"Stims/Figures/93-C-30-1.bmp\",\"paka:ka\",\"Left\",\"39\",\"7\",\"13\",\"7\",\"P\",\"C\",\"109\"
\"\",\"\",\"approach-retreat\",\"113\",\"745707\",\"0.0-113.0\",\"\",\"\",\"2-3\",\"4326\",\"38\",\"0\",\"Training\",\"Stims/Figures/19-J-10-4.bmp\",\"nalana\",\"Down\",\"40\",\"7\",\"14\",\"7\",\"S\",\"C\",\"110\"
\"\",\"\",\"approach-retreat\",\"114\",\"751408\",\"0.0-114.0\",\"\",\"\",\"2-3\",\"4189\",\"37\",\"0\",\"Training\",\"Stims/Figures/44-J-10-3.bmp\",\"ma:ma:na\",\"Right\",\"39\",\"7\",\"15\",\"7\",\"S\",\"C\",\"111\"
\"\",\"\",\"approach-retreat\",\"115\",\"757135\",\"0.0-115.0\",\"\",\"\",\"2-3\",\"4214\",\"38\",\"1\",\"Training\",\"Stims/Figures/44-C-30-3.bmp\",\"mama:la\",\"Down\",\"38\",\"7\",\"16\",\"7\",\"S\",\"C\",\"112\"
\"\",\"\",\"approach-retreat\",\"116\",\"762824\",\"0.0-116.0\",\"\",\"\",\"2-3\",\"4175\",\"37\",\"1\",\"Training\",\"Stims/Figures/93-J-0-1.bmp\",\"tapa:ta\",\"Left\",\"37\",\"8\",\"1\",\"7\",\"P\",\"C\",\"113\"
\"\",\"\",\"approach-retreat\",\"117\",\"768876\",\"0.0-117.0\",\"\",\"\",\"2-3\",\"4540\",\"39\",\"0\",\"Training\",\"Stims/Figures/84-C-20-2.bmp\",\"pa:pata\",\"Right\",\"37\",\"8\",\"2\",\"7\",\"P\",\"C\",\"114\"
\"\",\"\",\"approach-retreat\",\"118\",\"775192\",\"0.0-118.0\",\"\",\"\",\"2-3\",\"4805\",\"37\",\"0\",\"Training\",\"Stims/Figures/118-C-20-2.bmp\",\"pa:pa:ka\",\"Left\",\"39\",\"8\",\"3\",\"7\",\"P\",\"C\",\"115\"
\"\",\"\",\"approach-retreat\",\"119\",\"781070\",\"0.0-119.0\",\"\",\"\",\"2-3\",\"4367\",\"40\",\"0\",\"Training\",\"Stims/Figures/128-C-30-3.bmp\",\"namala\",\"Down\",\"38\",\"8\",\"4\",\"7\",\"S\",\"C\",\"116\"
\"\",\"\",\"approach-retreat\",\"120\",\"787369\",\"0.0-120.0\",\"\",\"\",\"2-3\",\"4786\",\"37\",\"0\",\"Training\",\"Stims/Figures/19-C-20-4.bmp\",\"ma:ma:la\",\"Left\",\"39\",\"8\",\"5\",\"7\",\"S\",\"C\",\"117\"
\"\",\"\",\"approach-retreat\",\"121\",\"794281\",\"0.0-121.0\",\"\",\"\",\"2-3\",\"5398\",\"38\",\"0\",\"Training\",\"Stims/Figures/71-C-30-1.bmp\",\"ta:ka:ta\",\"Up\",\"40\",\"8\",\"6\",\"7\",\"P\",\"C\",\"118\"
\"\",\"\",\"approach-retreat\",\"122\",\"800573\",\"0.0-122.0\",\"\",\"\",\"2-3\",\"4766\",\"39\",\"0\",\"Training\",\"Stims/Figures/93-C-30-1.bmp\",\"paka:ka\",\"Right\",\"37\",\"8\",\"7\",\"7\",\"P\",\"C\",\"119\"
\"\",\"\",\"approach-retreat\",\"123\",\"806866\",\"0.0-123.0\",\"\",\"\",\"2-3\",\"4751\",\"37\",\"1\",\"Training\",\"Stims/Figures/19-J-10-4.bmp\",\"nalana\",\"Left\",\"37\",\"8\",\"8\",\"7\",\"S\",\"C\",\"120\"
\"\",\"\",\"approach-retreat\",\"124\",\"812879\",\"0.0-124.0\",\"\",\"\",\"2-3\",\"4501\",\"37\",\"0\",\"Training\",\"Stims/Figures/128-J-10-3.bmp\",\"na:ma:la\",\"Right\",\"39\",\"8\",\"9\",\"7\",\"S\",\"C\",\"121\"
\"\",\"\",\"approach-retreat\",\"125\",\"819059\",\"0.0-125.0\",\"\",\"\",\"2-3\",\"4671\",\"39\",\"1\",\"Training\",\"Stims/Figures/7-J-10-4.bmp\",\"na:lana\",\"Right\",\"39\",\"8\",\"10\",\"7\",\"S\",\"C\",\"122\"
\"\",\"\",\"approach-retreat\",\"126\",\"825411\",\"0.0-126.0\",\"\",\"\",\"2-3\",\"4839\",\"40\",\"0\",\"Training\",\"Stims/Figures/84-J-0-2.bmp\",\"ta:pa:ta\",\"Up\",\"38\",\"8\",\"11\",\"7\",\"P\",\"C\",\"123\"
\"\",\"\",\"approach-retreat\",\"127\",\"831303\",\"0.0-127.0\",\"\",\"\",\"2-3\",\"4381\",\"38\",\"0\",\"Training\",\"Stims/Figures/118-J-0-2.bmp\",\"pa:kata\",\"Down\",\"40\",\"8\",\"12\",\"7\",\"P\",\"C\",\"124\"
\"\",\"\",\"approach-retreat\",\"128\",\"837964\",\"0.0-128.0\",\"\",\"\",\"2-3\",\"5149\",\"38\",\"0\",\"Training\",\"Stims/Figures/71-J-0-1.bmp\",\"takata\",\"Down\",\"40\",\"8\",\"13\",\"7\",\"P\",\"C\",\"125\"
\"\",\"\",\"approach-retreat\",\"129\",\"844821\",\"0.0-129.0\",\"\",\"\",\"2-3\",\"5343\",\"38\",\"0\",\"Training\",\"Stims/Figures/44-C-30-3.bmp\",\"mama:la\",\"Up\",\"40\",\"8\",\"14\",\"7\",\"S\",\"C\",\"126\"
\"\",\"\",\"approach-retreat\",\"130\",\"851044\",\"0.0-130.0\",\"\",\"\",\"2-3\",\"4712\",\"40\",\"1\",\"Training\",\"Stims/Figures/44-J-10-3.bmp\",\"ma:ma:na\",\"Down\",\"40\",\"8\",\"15\",\"7\",\"S\",\"C\",\"127\"
\"\",\"\",\"approach-retreat\",\"131\",\"856779\",\"0.0-131.0\",\"\",\"\",\"2-3\",\"4221\",\"40\",\"1\",\"Training\",\"Stims/Figures/7-C-20-4.bmp\",\"mama:na\",\"Up\",\"40\",\"8\",\"16\",\"7\",\"S\",\"C\",\"128\"
\"\",\"\",\"approach-retreat\",\"132\",\"862576\",\"0.0-132.0\",\"\",\"\",\"2-3\",\"4284\",\"37\",\"0\",\"Training\",\"Stims/Figures/7-J-10-4.bmp\",\"na:lana\",\"Right\",\"39\",\"9\",\"1\",\"7\",\"S\",\"C\",\"129\"
\"\",\"\",\"approach-retreat\",\"133\",\"868695\",\"0.0-133.0\",\"\",\"\",\"2-3\",\"4607\",\"37\",\"1\",\"Training\",\"Stims/Figures/44-C-30-3.bmp\",\"mama:la\",\"Right\",\"37\",\"9\",\"2\",\"7\",\"S\",\"C\",\"130\"
\"\",\"\",\"approach-retreat\",\"134\",\"874932\",\"0.0-134.0\",\"\",\"\",\"2-3\",\"4726\",\"37\",\"1\",\"Training\",\"Stims/Figures/7-C-20-4.bmp\",\"mama:na\",\"Right\",\"37\",\"9\",\"3\",\"7\",\"S\",\"C\",\"131\"
\"\",\"\",\"approach-retreat\",\"135\",\"881042\",\"0.0-135.0\",\"\",\"\",\"2-3\",\"4597\",\"38\",\"0\",\"Training\",\"Stims/Figures/128-J-10-3.bmp\",\"na:ma:la\",\"Down\",\"40\",\"9\",\"4\",\"7\",\"S\",\"C\",\"132\"
\"\",\"\",\"approach-retreat\",\"136\",\"887191\",\"0.0-136.0\",\"\",\"\",\"2-3\",\"4638\",\"37\",\"1\",\"Training\",\"Stims/Figures/44-J-10-3.bmp\",\"ma:ma:na\",\"Left\",\"37\",\"9\",\"5\",\"7\",\"S\",\"C\",\"133\"
\"\",\"\",\"approach-retreat\",\"137\",\"893004\",\"0.0-137.0\",\"\",\"\",\"2-3\",\"4299\",\"38\",\"0\",\"Training\",\"Stims/Figures/128-C-30-3.bmp\",\"namala\",\"Up\",\"40\",\"9\",\"6\",\"7\",\"S\",\"C\",\"134\"
\"\",\"\",\"approach-retreat\",\"138\",\"898729\",\"0.0-138.0\",\"\",\"\",\"2-3\",\"4199\",\"37\",\"0\",\"Training\",\"Stims/Figures/71-C-30-1.bmp\",\"ta:ka:ta\",\"Left\",\"39\",\"9\",\"7\",\"7\",\"P\",\"C\",\"135\"
\"\",\"\",\"approach-retreat\",\"139\",\"904501\",\"0.0-139.0\",\"\",\"\",\"2-3\",\"4259\",\"38\",\"1\",\"Training\",\"Stims/Figures/71-J-0-1.bmp\",\"takata\",\"Up\",\"38\",\"9\",\"8\",\"7\",\"P\",\"C\",\"136\"
\"\",\"\",\"approach-retreat\",\"140\",\"910627\",\"0.0-140.0\",\"\",\"\",\"2-3\",\"4614\",\"39\",\"1\",\"Training\",\"Stims/Figures/93-J-0-1.bmp\",\"tapa:ta\",\"Right\",\"39\",\"9\",\"9\",\"7\",\"P\",\"C\",\"137\"
\"\",\"\",\"approach-retreat\",\"141\",\"916759\",\"0.0-141.0\",\"\",\"\",\"2-3\",\"4623\",\"37\",\"0\",\"Training\",\"Stims/Figures/84-C-20-2.bmp\",\"pa:pata\",\"Left\",\"39\",\"9\",\"10\",\"7\",\"P\",\"C\",\"138\"
\"\",\"\",\"approach-retreat\",\"142\",\"922775\",\"0.0-142.0\",\"\",\"\",\"2-3\",\"4506\",\"38\",\"1\",\"Training\",\"Stims/Figures/19-C-20-4.bmp\",\"ma:ma:la\",\"Down\",\"38\",\"9\",\"11\",\"7\",\"S\",\"C\",\"139\"
\"\",\"\",\"approach-retreat\",\"143\",\"928846\",\"0.0-143.0\",\"\",\"\",\"2-3\",\"4559\",\"39\",\"1\",\"Training\",\"Stims/Figures/118-C-20-2.bmp\",\"pa:pa:ka\",\"Left\",\"39\",\"9\",\"12\",\"7\",\"P\",\"C\",\"140\"
\"\",\"\",\"approach-retreat\",\"144\",\"934761\",\"0.0-144.0\",\"\",\"\",\"2-3\",\"4404\",\"38\",\"0\",\"Training\",\"Stims/Figures/19-J-10-4.bmp\",\"nalana\",\"Down\",\"40\",\"9\",\"13\",\"7\",\"S\",\"C\",\"141\"
\"\",\"\",\"approach-retreat\",\"145\",\"940749\",\"0.0-145.0\",\"\",\"\",\"2-3\",\"4477\",\"40\",\"0\",\"Training\",\"Stims/Figures/84-J-0-2.bmp\",\"ta:pa:ta\",\"Up\",\"38\",\"9\",\"14\",\"7\",\"P\",\"C\",\"142\"
\"\",\"\",\"approach-retreat\",\"146\",\"946791\",\"0.0-146.0\",\"\",\"\",\"2-3\",\"4528\",\"40\",\"1\",\"Training\",\"Stims/Figures/118-J-0-2.bmp\",\"pa:kata\",\"Down\",\"40\",\"9\",\"15\",\"7\",\"P\",\"C\",\"143\"
\"\",\"\",\"approach-retreat\",\"147\",\"952570\",\"0.0-147.0\",\"\",\"\",\"2-3\",\"4270\",\"38\",\"0\",\"Training\",\"Stims/Figures/93-C-30-1.bmp\",\"paka:ka\",\"Up\",\"40\",\"9\",\"16\",\"7\",\"P\",\"C\",\"144\"
\"9424\",\"\",\"instructions\",\"148\",\"961996\",\"0.0-148.0\",\"[{\"\"page_index\"\":0,\"\"viewing_time\"\":9423}]\",\"\",\"\",\"\",\"\",\"\",\"\",\"\",\"\",\"\",\"\",\"\",\"\",\"\",\"\",\"\",\"\"
\"\",\"\",\"approach-retreat\",\"149\",\"968154\",\"0.0-149.0\",\"\",\"\",\"2-3\",\"4649\",\"40\",\"1\",\"Testing\",\"Stims/Figures/118-J-0-2.bmp\",\"pa:kata\",\"Down\",\"40\",\"1\",\"1\",\"7\",\"P\",\"C\",\"1\"
\"\",\"\",\"approach-retreat\",\"150\",\"974371\",\"0.0-150.0\",\"\",\"\",\"2-3\",\"4707\",\"37\",\"1\",\"Testing\",\"Stims/Figures/19-C-20-4.bmp\",\"ma:ma:la\",\"Right\",\"37\",\"1\",\"2\",\"7\",\"S\",\"C\",\"2\"
\"\",\"\",\"approach-retreat\",\"151\",\"981097\",\"0.0-151.0\",\"\",\"\",\"2-3\",\"5216\",\"37\",\"1\",\"Testing\",\"Stims/Figures/84-J-0-2.bmp\",\"ta:pa:ta\",\"Left\",\"37\",\"1\",\"3\",\"7\",\"P\",\"C\",\"3\"
\"\",\"\",\"approach-retreat\",\"152\",\"988568\",\"0.0-152.0\",\"\",\"\",\"2-3\",\"5963\",\"37\",\"1\",\"Testing\",\"Stims/Figures/102-C-20-4.bmp\",\"nama:la\",\"Right\",\"37\",\"1\",\"4\",\"7\",\"S\",\"C\",\"4\"
\"\",\"\",\"approach-retreat\",\"153\",\"994880\",\"0.0-153.0\",\"\",\"\",\"2-3\",\"4801\",\"37\",\"1\",\"Testing\",\"Stims/Figures/102-J-10-4.bmp\",\"na:mana\",\"Left\",\"37\",\"1\",\"5\",\"7\",\"S\",\"C\",\"5\"
\"\",\"\",\"approach-retreat\",\"154\",\"1001287\",\"0.0-154.0\",\"\",\"\",\"2-3\",\"4898\",\"37\",\"0\",\"Testing\",\"Stims/Figures/19-J-10-4.bmp\",\"nalana\",\"Right\",\"39\",\"1\",\"6\",\"7\",\"S\",\"C\",\"6\"
\"\",\"\",\"approach-retreat\",\"155\",\"1008658\",\"0.0-155.0\",\"\",\"\",\"2-3\",\"5864\",\"40\",\"1\",\"Testing\",\"Stims/Figures/71-J-0-1.bmp\",\"takata\",\"Down\",\"40\",\"1\",\"7\",\"7\",\"P\",\"C\",\"7\"
\"\",\"\",\"approach-retreat\",\"156\",\"1014613\",\"0.0-156.0\",\"\",\"\",\"2-3\",\"4447\",\"37\",\"0\",\"Testing\",\"Stims/Figures/85-C-20-2.bmp\",\"ta:ka:ka\",\"Left\",\"39\",\"1\",\"8\",\"7\",\"P\",\"C\",\"8\"
\"\",\"\",\"approach-retreat\",\"157\",\"1020600\",\"0.0-157.0\",\"\",\"\",\"2-3\",\"4478\",\"40\",\"1\",\"Testing\",\"Stims/Figures/128-J-10-3.bmp\",\"na:ma:la\",\"Down\",\"40\",\"1\",\"9\",\"7\",\"S\",\"C\",\"9\"
\"\",\"\",\"approach-retreat\",\"158\",\"1026625\",\"0.0-158.0\",\"\",\"\",\"2-3\",\"4516\",\"40\",\"0\",\"Testing\",\"Stims/Figures/118-C-20-2.bmp\",\"pa:pa:ka\",\"Down\",\"38\",\"1\",\"10\",\"7\",\"P\",\"C\",\"10\"
\"\",\"\",\"approach-retreat\",\"159\",\"1032579\",\"0.0-159.0\",\"\",\"\",\"2-3\",\"4446\",\"37\",\"0\",\"Testing\",\"Stims/Figures/71-C-30-1.bmp\",\"ta:ka:ta\",\"Left\",\"39\",\"1\",\"11\",\"7\",\"P\",\"C\",\"11\"
\"\",\"\",\"approach-retreat\",\"160\",\"1038647\",\"0.0-160.0\",\"\",\"\",\"2-3\",\"4558\",\"40\",\"0\",\"Testing\",\"Stims/Figures/100-C-30-3.bmp\",\"na:la:la\",\"Down\",\"38\",\"1\",\"12\",\"7\",\"S\",\"C\",\"12\"
\"\",\"\",\"approach-retreat\",\"161\",\"1045491\",\"0.0-161.0\",\"\",\"\",\"2-3\",\"5334\",\"38\",\"1\",\"Testing\",\"Stims/Figures/100-J-10-3.bmp\",\"mala:la\",\"Up\",\"38\",\"1\",\"13\",\"7\",\"S\",\"C\",\"13\"
\"\",\"\",\"approach-retreat\",\"162\",\"1057335\",\"0.0-162.0\",\"\",\"\",\"2-3\",\"10336\",\"37\",\"1\",\"Testing\",\"Stims/Figures/57-J-0-1.bmp\",\"ta:kaka\",\"Left\",\"37\",\"1\",\"14\",\"7\",\"P\",\"C\",\"14\"
\"\",\"\",\"approach-retreat\",\"163\",\"1070818\",\"0.0-163.0\",\"\",\"\",\"2-3\",\"11973\",\"39\",\"0\",\"Testing\",\"Stims/Figures/57-C-30-1.bmp\",\"taka:ta\",\"Right\",\"37\",\"1\",\"15\",\"7\",\"P\",\"C\",\"15\"
\"\",\"\",\"approach-retreat\",\"164\",\"1077005\",\"0.0-164.0\",\"\",\"\",\"2-3\",\"4679\",\"38\",\"1\",\"Testing\",\"Stims/Figures/93-C-30-1.bmp\",\"paka:ka\",\"Down\",\"38\",\"1\",\"16\",\"7\",\"P\",\"C\",\"16\"
\"\",\"\",\"approach-retreat\",\"165\",\"1090250\",\"0.0-165.0\",\"\",\"\",\"2-3\",\"11724\",\"38\",\"1\",\"Testing\",\"Stims/Figures/85-J-0-2.bmp\",\"ta:pata\",\"Up\",\"38\",\"1\",\"17\",\"7\",\"P\",\"C\",\"17\"
\"\",\"\",\"approach-retreat\",\"166\",\"1096271\",\"0.0-166.0\",\"\",\"\",\"2-3\",\"4513\",\"38\",\"0\",\"Testing\",\"Stims/Figures/7-C-20-4.bmp\",\"mama:na\",\"Up\",\"40\",\"1\",\"18\",\"7\",\"S\",\"C\",\"18\"
\"\",\"\",\"approach-retreat\",\"167\",\"1102123\",\"0.0-167.0\",\"\",\"\",\"2-3\",\"4337\",\"39\",\"1\",\"Testing\",\"Stims/Figures/93-J-0-1.bmp\",\"tapa:ta\",\"Right\",\"39\",\"1\",\"19\",\"7\",\"P\",\"C\",\"19\"
\"\",\"\",\"approach-retreat\",\"168\",\"1107953\",\"0.0-168.0\",\"\",\"\",\"2-3\",\"4321\",\"38\",\"1\",\"Testing\",\"Stims/Figures/7-J-10-4.bmp\",\"na:lana\",\"Up\",\"38\",\"1\",\"20\",\"7\",\"S\",\"C\",\"20\"
\"\",\"\",\"approach-retreat\",\"169\",\"1114451\",\"0.0-169.0\",\"\",\"\",\"2-3\",\"4988\",\"37\",\"0\",\"Testing\",\"Stims/Figures/44-C-30-3.bmp\",\"mama:la\",\"Left\",\"39\",\"1\",\"21\",\"7\",\"S\",\"C\",\"21\"
\"\",\"\",\"approach-retreat\",\"170\",\"1120983\",\"0.0-170.0\",\"\",\"\",\"2-3\",\"5020\",\"37\",\"0\",\"Testing\",\"Stims/Figures/44-J-10-3.bmp\",\"ma:ma:na\",\"Right\",\"39\",\"1\",\"22\",\"7\",\"S\",\"C\",\"22\"
\"\",\"\",\"approach-retreat\",\"171\",\"1132376\",\"0.0-171.0\",\"\",\"\",\"2-3\",\"9875\",\"38\",\"0\",\"Testing\",\"Stims/Figures/128-C-30-3.bmp\",\"namala\",\"Up\",\"40\",\"1\",\"23\",\"7\",\"S\",\"C\",\"23\"
\"\",\"\",\"approach-retreat\",\"172\",\"1138815\",\"0.0-172.0\",\"\",\"\",\"2-3\",\"4928\",\"40\",\"1\",\"Testing\",\"Stims/Figures/84-C-20-2.bmp\",\"pa:pata\",\"Up\",\"40\",\"1\",\"24\",\"7\",\"P\",\"C\",\"24\"
\"\",\"\",\"approach-retreat\",\"173\",\"1144884\",\"0.0-173.0\",\"\",\"\",\"2-3\",\"4559\",\"37\",\"1\",\"Testing\",\"Stims/Figures/57-J-0-1.bmp\",\"ta:kaka\",\"Left\",\"37\",\"2\",\"1\",\"7\",\"P\",\"C\",\"25\"
\"\",\"\",\"approach-retreat\",\"174\",\"1152049\",\"0.0-174.0\",\"\",\"\",\"2-3\",\"5656\",\"38\",\"0\",\"Testing\",\"Stims/Figures/100-C-30-3.bmp\",\"na:la:la\",\"Up\",\"40\",\"2\",\"2\",\"7\",\"S\",\"C\",\"26\"
\"\",\"\",\"approach-retreat\",\"175\",\"1157992\",\"0.0-175.0\",\"\",\"\",\"2-3\",\"4434\",\"38\",\"1\",\"Testing\",\"Stims/Figures/102-C-20-4.bmp\",\"nama:la\",\"Down\",\"38\",\"2\",\"3\",\"7\",\"S\",\"C\",\"27\"
\"\",\"\",\"approach-retreat\",\"176\",\"1164383\",\"0.0-176.0\",\"\",\"\",\"2-3\",\"4883\",\"40\",\"0\",\"Testing\",\"Stims/Figures/93-C-30-1.bmp\",\"paka:ka\",\"Down\",\"38\",\"2\",\"4\",\"7\",\"P\",\"C\",\"28\"
\"\",\"\",\"approach-retreat\",\"177\",\"1171917\",\"0.0-177.0\",\"\",\"\",\"2-3\",\"6025\",\"40\",\"1\",\"Testing\",\"Stims/Figures/102-J-10-4.bmp\",\"na:mana\",\"Down\",\"40\",\"2\",\"5\",\"7\",\"S\",\"C\",\"29\"
\"\",\"\",\"approach-retreat\",\"178\",\"1178920\",\"0.0-178.0\",\"\",\"\",\"2-3\",\"5492\",\"39\",\"1\",\"Testing\",\"Stims/Figures/93-J-0-1.bmp\",\"tapa:ta\",\"Right\",\"39\",\"2\",\"6\",\"7\",\"P\",\"C\",\"30\"
\"\",\"\",\"approach-retreat\",\"179\",\"1187999\",\"0.0-179.0\",\"\",\"\",\"2-3\",\"7569\",\"39\",\"0\",\"Testing\",\"Stims/Figures/84-J-0-2.bmp\",\"ta:pa:ta\",\"Left\",\"37\",\"2\",\"7\",\"7\",\"P\",\"C\",\"31\"
\"\",\"\",\"approach-retreat\",\"180\",\"1194061\",\"0.0-180.0\",\"\",\"\",\"2-3\",\"4553\",\"38\",\"1\",\"Testing\",\"Stims/Figures/100-J-10-3.bmp\",\"mala:la\",\"Up\",\"38\",\"2\",\"8\",\"7\",\"S\",\"C\",\"32\"
\"\",\"\",\"approach-retreat\",\"181\",\"1200143\",\"0.0-181.0\",\"\",\"\",\"2-3\",\"4572\",\"38\",\"1\",\"Testing\",\"Stims/Figures/19-J-10-4.bmp\",\"nalana\",\"Up\",\"38\",\"2\",\"9\",\"7\",\"S\",\"C\",\"33\"
\"\",\"\",\"approach-retreat\",\"182\",\"1206110\",\"0.0-182.0\",\"\",\"\",\"2-3\",\"4457\",\"39\",\"1\",\"Testing\",\"Stims/Figures/44-C-30-3.bmp\",\"mama:la\",\"Left\",\"39\",\"2\",\"10\",\"7\",\"S\",\"C\",\"34\"
\"\",\"\",\"approach-retreat\",\"183\",\"1212286\",\"0.0-183.0\",\"\",\"\",\"2-3\",\"4668\",\"39\",\"1\",\"Testing\",\"Stims/Figures/85-J-0-2.bmp\",\"ta:pata\",\"Right\",\"39\",\"2\",\"11\",\"7\",\"P\",\"C\",\"35\"
\"\",\"\",\"approach-retreat\",\"184\",\"1218250\",\"0.0-184.0\",\"\",\"\",\"2-3\",\"4454\",\"38\",\"1\",\"Testing\",\"Stims/Figures/128-C-30-3.bmp\",\"namala\",\"Down\",\"38\",\"2\",\"12\",\"7\",\"S\",\"C\",\"36\"
\"\",\"\",\"approach-retreat\",\"185\",\"1224561\",\"0.0-185.0\",\"\",\"\",\"2-3\",\"4802\",\"37\",\"1\",\"Testing\",\"Stims/Figures/128-J-10-3.bmp\",\"na:ma:la\",\"Left\",\"37\",\"2\",\"13\",\"7\",\"S\",\"C\",\"37\"
\"\",\"\",\"approach-retreat\",\"186\",\"1230745\",\"0.0-186.0\",\"\",\"\",\"2-3\",\"4675\",\"38\",\"0\",\"Testing\",\"Stims/Figures/85-C-20-2.bmp\",\"ta:ka:ka\",\"Up\",\"40\",\"2\",\"14\",\"7\",\"P\",\"C\",\"38\"
\"\",\"\",\"approach-retreat\",\"187\",\"1237224\",\"0.0-187.0\",\"\",\"\",\"2-3\",\"4972\",\"40\",\"0\",\"Testing\",\"Stims/Figures/118-C-20-2.bmp\",\"pa:pa:ka\",\"Down\",\"38\",\"2\",\"15\",\"7\",\"P\",\"C\",\"39\"
\"\",\"\",\"approach-retreat\",\"188\",\"1244383\",\"0.0-188.0\",\"\",\"\",\"2-3\",\"5650\",\"38\",\"0\",\"Testing\",\"Stims/Figures/71-C-30-1.bmp\",\"ta:ka:ta\",\"Up\",\"40\",\"2\",\"16\",\"7\",\"P\",\"C\",\"40\"
\"\",\"\",\"approach-retreat\",\"189\",\"1250228\",\"0.0-189.0\",\"\",\"\",\"2-3\",\"4336\",\"39\",\"0\",\"Testing\",\"Stims/Figures/57-C-30-1.bmp\",\"taka:ta\",\"Right\",\"37\",\"2\",\"17\",\"7\",\"P\",\"C\",\"41\"
\"\",\"\",\"approach-retreat\",\"190\",\"1256181\",\"0.0-190.0\",\"\",\"\",\"2-3\",\"4445\",\"39\",\"1\",\"Testing\",\"Stims/Figures/118-J-0-2.bmp\",\"pa:kata\",\"Right\",\"39\",\"2\",\"18\",\"7\",\"P\",\"C\",\"42\"
\"\",\"\",\"approach-retreat\",\"191\",\"1261939\",\"0.0-191.0\",\"\",\"\",\"2-3\",\"4248\",\"40\",\"0\",\"Testing\",\"Stims/Figures/71-J-0-1.bmp\",\"takata\",\"Up\",\"38\",\"2\",\"19\",\"7\",\"P\",\"C\",\"43\"
\"\",\"\",\"approach-retreat\",\"192\",\"1267961\",\"0.0-192.0\",\"\",\"\",\"2-3\",\"4513\",\"37\",\"1\",\"Testing\",\"Stims/Figures/7-J-10-4.bmp\",\"na:lana\",\"Left\",\"37\",\"2\",\"20\",\"7\",\"S\",\"C\",\"44\"
\"\",\"\",\"approach-retreat\",\"193\",\"1275340\",\"0.0-193.0\",\"\",\"\",\"2-3\",\"5870\",\"37\",\"0\",\"Testing\",\"Stims/Figures/7-C-20-4.bmp\",\"mama:na\",\"Left\",\"39\",\"2\",\"21\",\"7\",\"S\",\"C\",\"45\"
\"\",\"\",\"approach-retreat\",\"194\",\"1284456\",\"0.0-194.0\",\"\",\"\",\"2-3\",\"7606\",\"40\",\"0\",\"Testing\",\"Stims/Figures/84-C-20-2.bmp\",\"pa:pata\",\"Down\",\"38\",\"2\",\"22\",\"7\",\"P\",\"C\",\"46\"
\"\",\"\",\"approach-retreat\",\"195\",\"1290817\",\"0.0-195.0\",\"\",\"\",\"2-3\",\"4850\",\"37\",\"0\",\"Testing\",\"Stims/Figures/44-J-10-3.bmp\",\"ma:ma:na\",\"Right\",\"39\",\"2\",\"23\",\"7\",\"S\",\"C\",\"47\"
\"\",\"\",\"approach-retreat\",\"196\",\"1297440\",\"0.0-196.0\",\"\",\"\",\"2-3\",\"5113\",\"37\",\"1\",\"Testing\",\"Stims/Figures/19-C-20-4.bmp\",\"ma:ma:la\",\"Right\",\"37\",\"2\",\"24\",\"7\",\"S\",\"C\",\"48\"
\"\",\"\",\"approach-retreat\",\"197\",\"1303442\",\"0.0-197.0\",\"\",\"\",\"2-3\",\"4492\",\"40\",\"1\",\"Testing\",\"Stims/Figures/71-J-0-1.bmp\",\"takata\",\"Down\",\"40\",\"3\",\"1\",\"7\",\"P\",\"C\",\"49\"
\"\",\"\",\"approach-retreat\",\"198\",\"1309553\",\"0.0-198.0\",\"\",\"\",\"2-3\",\"4601\",\"38\",\"1\",\"Testing\",\"Stims/Figures/44-C-30-3.bmp\",\"mama:la\",\"Down\",\"38\",\"3\",\"2\",\"7\",\"S\",\"C\",\"50\"
\"\",\"\",\"approach-retreat\",\"199\",\"1315557\",\"0.0-199.0\",\"\",\"\",\"2-3\",\"4496\",\"38\",\"1\",\"Testing\",\"Stims/Figures/128-J-10-3.bmp\",\"na:ma:la\",\"Up\",\"38\",\"3\",\"3\",\"7\",\"S\",\"C\",\"51\"
\"\",\"\",\"approach-retreat\",\"200\",\"1322256\",\"0.0-200.0\",\"\",\"\",\"2-3\",\"5191\",\"39\",\"1\",\"Testing\",\"Stims/Figures/93-J-0-1.bmp\",\"tapa:ta\",\"Right\",\"39\",\"3\",\"4\",\"7\",\"P\",\"C\",\"52\"
\"\",\"\",\"approach-retreat\",\"201\",\"1328420\",\"0.0-201.0\",\"\",\"\",\"2-3\",\"4654\",\"39\",\"0\",\"Testing\",\"Stims/Figures/85-C-20-2.bmp\",\"ta:ka:ka\",\"Right\",\"37\",\"3\",\"5\",\"7\",\"P\",\"C\",\"53\"
\"\",\"\",\"approach-retreat\",\"202\",\"1335294\",\"0.0-202.0\",\"\",\"\",\"2-3\",\"5365\",\"37\",\"1\",\"Testing\",\"Stims/Figures/100-J-10-3.bmp\",\"mala:la\",\"Left\",\"37\",\"3\",\"6\",\"7\",\"S\",\"C\",\"54\"
\"\",\"\",\"approach-retreat\",\"203\",\"1342720\",\"0.0-203.0\",\"\",\"\",\"2-3\",\"5916\",\"40\",\"0\",\"Testing\",\"Stims/Figures/7-C-20-4.bmp\",\"mama:na\",\"Down\",\"38\",\"3\",\"7\",\"7\",\"S\",\"C\",\"55\"
\"\",\"\",\"approach-retreat\",\"204\",\"1349498\",\"0.0-204.0\",\"\",\"\",\"2-3\",\"5268\",\"38\",\"0\",\"Testing\",\"Stims/Figures/118-C-20-2.bmp\",\"pa:pa:ka\",\"Up\",\"40\",\"3\",\"8\",\"7\",\"P\",\"C\",\"56\"
\"\",\"\",\"approach-retreat\",\"205\",\"1355165\",\"0.0-205.0\",\"\",\"\",\"2-3\",\"4158\",\"40\",\"0\",\"Testing\",\"Stims/Figures/19-J-10-4.bmp\",\"nalana\",\"Up\",\"38\",\"3\",\"9\",\"7\",\"S\",\"C\",\"57\"
\"\",\"\",\"approach-retreat\",\"206\",\"1361699\",\"0.0-206.0\",\"\",\"\",\"2-3\",\"5024\",\"39\",\"0\",\"Testing\",\"Stims/Figures/128-C-30-3.bmp\",\"namala\",\"Right\",\"37\",\"3\",\"10\",\"7\",\"S\",\"C\",\"58\"
\"\",\"\",\"approach-retreat\",\"207\",\"1369425\",\"0.0-207.0\",\"\",\"\",\"2-3\",\"6218\",\"38\",\"0\",\"Testing\",\"Stims/Figures/102-J-10-4.bmp\",\"na:mana\",\"Down\",\"40\",\"3\",\"11\",\"7\",\"S\",\"C\",\"59\"
\"\",\"\",\"approach-retreat\",\"208\",\"1375361\",\"0.0-208.0\",\"\",\"\",\"2-3\",\"4427\",\"40\",\"1\",\"Testing\",\"Stims/Figures/93-C-30-1.bmp\",\"paka:ka\",\"Up\",\"40\",\"3\",\"12\",\"7\",\"P\",\"C\",\"60\"
\"\",\"\",\"approach-retreat\",\"209\",\"1381660\",\"0.0-209.0\",\"\",\"\",\"2-3\",\"4790\",\"37\",\"1\",\"Testing\",\"Stims/Figures/85-J-0-2.bmp\",\"ta:pata\",\"Left\",\"37\",\"3\",\"13\",\"7\",\"P\",\"C\",\"61\"
\"\",\"\",\"approach-retreat\",\"210\",\"1388199\",\"0.0-210.0\",\"\",\"\",\"2-3\",\"5029\",\"39\",\"0\",\"Testing\",\"Stims/Figures/100-C-30-3.bmp\",\"na:la:la\",\"Right\",\"37\",\"3\",\"14\",\"7\",\"S\",\"C\",\"62\"
\"\",\"\",\"approach-retreat\",\"211\",\"1394813\",\"0.0-211.0\",\"\",\"\",\"2-3\",\"5105\",\"37\",\"0\",\"Testing\",\"Stims/Figures/44-J-10-3.bmp\",\"ma:ma:na\",\"Right\",\"39\",\"3\",\"15\",\"7\",\"S\",\"C\",\"63\"
\"\",\"\",\"approach-retreat\",\"212\",\"1400662\",\"0.0-212.0\",\"\",\"\",\"2-3\",\"4341\",\"40\",\"0\",\"Testing\",\"Stims/Figures/84-C-20-2.bmp\",\"pa:pata\",\"Down\",\"38\",\"3\",\"16\",\"7\",\"P\",\"C\",\"64\"
\"\",\"\",\"approach-retreat\",\"213\",\"1406482\",\"0.0-213.0\",\"\",\"\",\"2-3\",\"4310\",\"39\",\"1\",\"Testing\",\"Stims/Figures/57-C-30-1.bmp\",\"taka:ta\",\"Left\",\"39\",\"3\",\"17\",\"7\",\"P\",\"C\",\"65\"
\"\",\"\",\"approach-retreat\",\"214\",\"1412488\",\"0.0-214.0\",\"\",\"\",\"2-3\",\"4496\",\"37\",\"0\",\"Testing\",\"Stims/Figures/71-C-30-1.bmp\",\"ta:ka:ta\",\"Left\",\"39\",\"3\",\"18\",\"7\",\"P\",\"C\",\"66\"
\"\",\"\",\"approach-retreat\",\"215\",\"1418318\",\"0.0-215.0\",\"\",\"\",\"2-3\",\"4322\",\"40\",\"0\",\"Testing\",\"Stims/Figures/102-C-20-4.bmp\",\"nama:la\",\"Down\",\"38\",\"3\",\"19\",\"7\",\"S\",\"C\",\"67\"
\"\",\"\",\"approach-retreat\",\"216\",\"1424837\",\"0.0-216.0\",\"\",\"\",\"2-3\",\"5011\",\"38\",\"1\",\"Testing\",\"Stims/Figures/118-J-0-2.bmp\",\"pa:kata\",\"Up\",\"38\",\"3\",\"20\",\"7\",\"P\",\"C\",\"68\"
\"\",\"\",\"approach-retreat\",\"217\",\"1430648\",\"0.0-217.0\",\"\",\"\",\"2-3\",\"4302\",\"38\",\"1\",\"Testing\",\"Stims/Figures/57-J-0-1.bmp\",\"ta:kaka\",\"Up\",\"38\",\"3\",\"21\",\"7\",\"P\",\"C\",\"69\"
\"\",\"\",\"approach-retreat\",\"218\",\"1436881\",\"0.0-218.0\",\"\",\"\",\"2-3\",\"4723\",\"37\",\"1\",\"Testing\",\"Stims/Figures/7-J-10-4.bmp\",\"na:lana\",\"Left\",\"37\",\"3\",\"22\",\"7\",\"S\",\"C\",\"70\"
\"\",\"\",\"approach-retreat\",\"219\",\"1444139\",\"0.0-219.0\",\"\",\"\",\"2-3\",\"5749\",\"37\",\"0\",\"Testing\",\"Stims/Figures/84-J-0-2.bmp\",\"ta:pa:ta\",\"Right\",\"39\",\"3\",\"23\",\"7\",\"P\",\"C\",\"71\"
\"\",\"\",\"approach-retreat\",\"220\",\"1450139\",\"0.0-220.0\",\"\",\"\",\"2-3\",\"4490\",\"39\",\"1\",\"Testing\",\"Stims/Figures/19-C-20-4.bmp\",\"ma:ma:la\",\"Left\",\"39\",\"3\",\"24\",\"7\",\"S\",\"C\",\"72\"
\"\",\"\",\"approach-retreat\",\"221\",\"1455888\",\"0.0-221.0\",\"\",\"\",\"2-3\",\"4240\",\"37\",\"0\",\"Testing\",\"Stims/Figures/71-J-0-1.bmp\",\"takata\",\"Right\",\"39\",\"4\",\"1\",\"7\",\"P\",\"C\",\"73\"
\"\",\"\",\"approach-retreat\",\"222\",\"1463335\",\"0.0-222.0\",\"\",\"\",\"2-3\",\"5938\",\"40\",\"1\",\"Testing\",\"Stims/Figures/85-J-0-2.bmp\",\"ta:pata\",\"Down\",\"40\",\"4\",\"2\",\"7\",\"P\",\"C\",\"74\"
\"\",\"\",\"approach-retreat\",\"223\",\"1469102\",\"0.0-223.0\",\"\",\"\",\"2-3\",\"4258\",\"38\",\"1\",\"Testing\",\"Stims/Figures/71-C-30-1.bmp\",\"ta:ka:ta\",\"Down\",\"38\",\"4\",\"3\",\"7\",\"P\",\"C\",\"75\"
\"\",\"\",\"approach-retreat\",\"224\",\"1474792\",\"0.0-224.0\",\"\",\"\",\"2-3\",\"4182\",\"39\",\"1\",\"Testing\",\"Stims/Figures/44-C-30-3.bmp\",\"mama:la\",\"Left\",\"39\",\"4\",\"4\",\"7\",\"S\",\"C\",\"76\"
\"\",\"\",\"approach-retreat\",\"225\",\"1480486\",\"0.0-225.0\",\"\",\"\",\"2-3\",\"4186\",\"40\",\"1\",\"Testing\",\"Stims/Figures/57-J-0-1.bmp\",\"ta:kaka\",\"Down\",\"40\",\"4\",\"5\",\"7\",\"P\",\"C\",\"77\"
\"\",\"\",\"approach-retreat\",\"226\",\"1486893\",\"0.0-226.0\",\"\",\"\",\"2-3\",\"4898\",\"37\",\"1\",\"Testing\",\"Stims/Figures/19-C-20-4.bmp\",\"ma:ma:la\",\"Right\",\"37\",\"4\",\"6\",\"7\",\"S\",\"C\",\"78\"
\"\",\"\",\"approach-retreat\",\"227\",\"1493412\",\"0.0-227.0\",\"\",\"\",\"2-3\",\"5011\",\"39\",\"0\",\"Testing\",\"Stims/Figures/85-C-20-2.bmp\",\"ta:ka:ka\",\"Right\",\"37\",\"4\",\"7\",\"7\",\"P\",\"C\",\"79\"
\"\",\"\",\"approach-retreat\",\"228\",\"1500062\",\"0.0-228.0\",\"\",\"\",\"2-3\",\"5139\",\"40\",\"1\",\"Testing\",\"Stims/Figures/7-J-10-4.bmp\",\"na:lana\",\"Down\",\"40\",\"4\",\"8\",\"7\",\"S\",\"C\",\"80\"
\"\",\"\",\"approach-retreat\",\"229\",\"1506902\",\"0.0-229.0\",\"\",\"\",\"2-3\",\"5331\",\"40\",\"0\",\"Testing\",\"Stims/Figures/93-J-0-1.bmp\",\"tapa:ta\",\"Up\",\"38\",\"4\",\"9\",\"7\",\"P\",\"C\",\"81\"
\"\",\"\",\"approach-retreat\",\"230\",\"1512814\",\"0.0-230.0\",\"\",\"\",\"2-3\",\"4402\",\"38\",\"1\",\"Testing\",\"Stims/Figures/84-C-20-2.bmp\",\"pa:pata\",\"Down\",\"38\",\"4\",\"10\",\"7\",\"P\",\"C\",\"82\"
\"\",\"\",\"approach-retreat\",\"231\",\"1518744\",\"0.0-231.0\",\"\",\"\",\"2-3\",\"4419\",\"38\",\"0\",\"Testing\",\"Stims/Figures/102-C-20-4.bmp\",\"nama:la\",\"Up\",\"40\",\"4\",\"11\",\"7\",\"S\",\"C\",\"83\"
\"\",\"\",\"approach-retreat\",\"232\",\"1524975\",\"0.0-232.0\",\"\",\"\",\"2-3\",\"4716\",\"40\",\"1\",\"Testing\",\"Stims/Figures/100-J-10-3.bmp\",\"mala:la\",\"Down\",\"40\",\"4\",\"12\",\"7\",\"S\",\"C\",\"84\"
\"\",\"\",\"approach-retreat\",\"233\",\"1531226\",\"0.0-233.0\",\"\",\"\",\"2-3\",\"4741\",\"38\",\"0\",\"Testing\",\"Stims/Figures/100-C-30-3.bmp\",\"na:la:la\",\"Up\",\"40\",\"4\",\"13\",\"7\",\"S\",\"C\",\"85\"
\"\",\"\",\"approach-retreat\",\"234\",\"1536957\",\"0.0-234.0\",\"\",\"\",\"2-3\",\"4219\",\"38\",\"0\",\"Testing\",\"Stims/Figures/57-C-30-1.bmp\",\"taka:ta\",\"Up\",\"40\",\"4\",\"14\",\"7\",\"P\",\"C\",\"86\"
\"\",\"\",\"approach-retreat\",\"235\",\"1543577\",\"0.0-235.0\",\"\",\"\",\"2-3\",\"5113\",\"37\",\"1\",\"Testing\",\"Stims/Figures/118-J-0-2.bmp\",\"pa:kata\",\"Left\",\"37\",\"4\",\"15\",\"7\",\"P\",\"C\",\"87\"
\"\",\"\",\"approach-retreat\",\"236\",\"1549266\",\"0.0-236.0\",\"\",\"\",\"2-3\",\"4180\",\"39\",\"0\",\"Testing\",\"Stims/Figures/128-J-10-3.bmp\",\"na:ma:la\",\"Left\",\"37\",\"4\",\"16\",\"7\",\"S\",\"C\",\"88\"
\"\",\"\",\"approach-retreat\",\"237\",\"1555651\",\"0.0-237.0\",\"\",\"\",\"2-3\",\"4874\",\"39\",\"0\",\"Testing\",\"Stims/Figures/44-J-10-3.bmp\",\"ma:ma:na\",\"Left\",\"37\",\"4\",\"17\",\"7\",\"S\",\"C\",\"89\"
\"\",\"\",\"approach-retreat\",\"238\",\"1561441\",\"0.0-238.0\",\"\",\"\",\"2-3\",\"4282\",\"39\",\"1\",\"Testing\",\"Stims/Figures/93-C-30-1.bmp\",\"paka:ka\",\"Left\",\"39\",\"4\",\"18\",\"7\",\"P\",\"C\",\"90\"
\"\",\"\",\"approach-retreat\",\"239\",\"1567481\",\"0.0-239.0\",\"\",\"\",\"2-3\",\"4531\",\"40\",\"0\",\"Testing\",\"Stims/Figures/19-J-10-4.bmp\",\"nalana\",\"Up\",\"38\",\"4\",\"19\",\"7\",\"S\",\"C\",\"91\"
\"\",\"\",\"approach-retreat\",\"240\",\"1574106\",\"0.0-240.0\",\"\",\"\",\"2-3\",\"5116\",\"40\",\"1\",\"Testing\",\"Stims/Figures/118-C-20-2.bmp\",\"pa:pa:ka\",\"Up\",\"40\",\"4\",\"20\",\"7\",\"P\",\"C\",\"92\"
\"\",\"\",\"approach-retreat\",\"241\",\"1580047\",\"0.0-241.0\",\"\",\"\",\"2-3\",\"4432\",\"37\",\"1\",\"Testing\",\"Stims/Figures/102-J-10-4.bmp\",\"na:mana\",\"Left\",\"37\",\"4\",\"21\",\"7\",\"S\",\"C\",\"93\"
\"\",\"\",\"approach-retreat\",\"242\",\"1586974\",\"0.0-242.0\",\"\",\"\",\"2-3\",\"5418\",\"39\",\"0\",\"Testing\",\"Stims/Figures/128-C-30-3.bmp\",\"namala\",\"Right\",\"37\",\"4\",\"22\",\"7\",\"S\",\"C\",\"94\"
\"\",\"\",\"approach-retreat\",\"243\",\"1593506\",\"0.0-243.0\",\"\",\"\",\"2-3\",\"5022\",\"39\",\"1\",\"Testing\",\"Stims/Figures/84-J-0-2.bmp\",\"ta:pa:ta\",\"Right\",\"39\",\"4\",\"23\",\"7\",\"P\",\"C\",\"95\"
\"\",\"\",\"approach-retreat\",\"244\",\"1600746\",\"0.0-244.0\",\"\",\"\",\"2-3\",\"5731\",\"37\",\"1\",\"Testing\",\"Stims/Figures/7-C-20-4.bmp\",\"mama:na\",\"Right\",\"37\",\"4\",\"24\",\"7\",\"S\",\"C\",\"96\"
\"12760\",\"\",\"survey-text\",\"245\",\"1613515\",\"0.0-245.0\",\"\",\"{\"\"Q0\"\":\"\"PS150011\"\"}\",\"\",\"\",\"\",\"\",\"\",\"\",\"\",\"\",\"\",\"\",\"\",\"\",\"\",\"\",\"\"
