\"rt\",\"key_press\",\"trial_type\",\"trial_index\",\"time_elapsed\",\"internal_node_id\",\"view_history\",\"responses\",\"Id\",\"Rt\",\"ResKeyCode\",\"ResCorr\",\"TrialType2\",\"Image\",\"Label\",\"Location\",\"CorrectResponse\",\"Block\",\"BlockTrial\",\"Condition\",\"LabelType\",\"Subcondition\",\"trialNum\"
\"72622\",\"32\",\"text\",\"0\",\"72626\",\"0.0-0.0-0.0\",\"\",\"\",\"\",\"\",\"\",\"\",\"\",\"\",\"\",\"\",\"\",\"\",\"\",\"\",\"\",\"\",\"\"
\"5191\",\"\",\"instructions\",\"1\",\"77820\",\"0.0-1.0\",\"[{\"\"page_index\"\":0,\"\"viewing_time\"\":5191}]\",\"\",\"\",\"\",\"\",\"\",\"\",\"\",\"\",\"\",\"\",\"\",\"\",\"\",\"\",\"\",\"\"
\"76262\",\"\",\"survey-multi-choice\",\"2\",\"154119\",\"0.0-2.0\",\"\",\"{\"\"Q0\"\":\"\"Da\"\",\"\"Q1\"\":\"\"Da\"\",\"\"Q2\"\":\"\"Da\"\",\"\"Q3\"\":\"\"Da\"\",\"\"Q4\"\":\"\"Da\"\",\"\"Q5\"\":\"\"Da\"\"}\",\"\",\"\",\"\",\"\",\"\",\"\",\"\",\"\",\"\",\"\",\"\",\"\",\"\",\"\",\"\"
\"\",\"\",\"bio\",\"3\",\"164266\",\"0.0-3.0\",\"\",\"{\"\"age\"\":\"\"19\"\",\"\"gender\"\":\"\"f\"\",\"\"specify\"\":\"\"\"\"}\",\"\",\"\",\"\",\"\",\"\",\"\",\"\",\"\",\"\",\"\",\"\",\"\",\"\",\"\",\"\"
\"\",\"\",\"approach-retreat\",\"4\",\"183743\",\"0.0-4.0\",\"\",\"\",\"1-3\",\"17964\",\"39\",\"0\",\"Training\",\"Stims/Figures/44-C-30-3.bmp\",\"zaha:za\",\"Left\",\"37\",\"1\",\"1\",\"9\",\"C2\",\"J\",\"1\"
\"\",\"\",\"approach-retreat\",\"5\",\"189608\",\"0.0-5.0\",\"\",\"\",\"1-3\",\"4358\",\"37\",\"0\",\"Training\",\"Stims/Figures/94-C-20-2.bmp\",\"ta:pa:ta\",\"Right\",\"39\",\"1\",\"2\",\"9\",\"P\",\"J\",\"2\"
\"\",\"\",\"approach-retreat\",\"6\",\"206256\",\"0.0-6.0\",\"\",\"\",\"1-3\",\"15138\",\"38\",\"0\",\"Training\",\"Stims/Figures/27-J-0-1.bmp\",\"fafa:sha\",\"Up\",\"40\",\"1\",\"3\",\"9\",\"C1\",\"J\",\"3\"
\"\",\"\",\"approach-retreat\",\"7\",\"212185\",\"0.0-7.0\",\"\",\"\",\"1-3\",\"4420\",\"40\",\"0\",\"Training\",\"Stims/Figures/7-J-10-4.bmp\",\"vafa:va\",\"Down\",\"38\",\"1\",\"4\",\"9\",\"C1\",\"J\",\"4\"
\"\",\"\",\"approach-retreat\",\"8\",\"222913\",\"0.0-8.0\",\"\",\"\",\"1-3\",\"9220\",\"37\",\"1\",\"Training\",\"Stims/Figures/27-C-30-1.bmp\",\"pa:ka:ka\",\"Left\",\"37\",\"1\",\"5\",\"9\",\"P\",\"J\",\"5\"
\"\",\"\",\"approach-retreat\",\"9\",\"229933\",\"0.0-9.0\",\"\",\"\",\"1-3\",\"5512\",\"40\",\"1\",\"Training\",\"Stims/Figures/44-J-10-3.bmp\",\"saha:ha\",\"Up\",\"40\",\"1\",\"6\",\"9\",\"C2\",\"J\",\"6\"
\"\",\"\",\"approach-retreat\",\"10\",\"238190\",\"0.0-10.0\",\"\",\"\",\"1-3\",\"6750\",\"39\",\"0\",\"Training\",\"Stims/Figures/85-C-20-2.bmp\",\"papa:ta\",\"Left\",\"37\",\"1\",\"7\",\"9\",\"P\",\"J\",\"7\"
\"\",\"\",\"approach-retreat\",\"11\",\"248095\",\"0.0-11.0\",\"\",\"\",\"1-3\",\"8397\",\"37\",\"0\",\"Training\",\"Stims/Figures/102-J-10-4.bmp\",\"fasha:sha\",\"Left\",\"39\",\"1\",\"8\",\"9\",\"C1\",\"J\",\"8\"
\"\",\"\",\"approach-retreat\",\"12\",\"260745\",\"0.0-12.0\",\"\",\"\",\"1-3\",\"11142\",\"40\",\"1\",\"Training\",\"Stims/Figures/85-J-0-2.bmp\",\"pa:kata\",\"Up\",\"40\",\"1\",\"9\",\"9\",\"P\",\"J\",\"9\"
\"\",\"\",\"approach-retreat\",\"13\",\"267583\",\"0.0-13.0\",\"\",\"\",\"1-3\",\"5329\",\"40\",\"1\",\"Training\",\"Stims/Figures/7-C-20-4.bmp\",\"mala:la\",\"Down\",\"40\",\"1\",\"10\",\"9\",\"S\",\"J\",\"10\"
\"\",\"\",\"approach-retreat\",\"14\",\"279397\",\"0.0-14.0\",\"\",\"\",\"1-3\",\"10307\",\"38\",\"1\",\"Training\",\"Stims/Figures/102-C-20-4.bmp\",\"namala\",\"Up\",\"38\",\"1\",\"11\",\"9\",\"S\",\"J\",\"11\"
\"\",\"\",\"approach-retreat\",\"15\",\"285855\",\"0.0-15.0\",\"\",\"\",\"1-3\",\"4948\",\"39\",\"0\",\"Training\",\"Stims/Figures/94-J-0-2.bmp\",\"saha:za\",\"Right\",\"37\",\"1\",\"12\",\"9\",\"C2\",\"J\",\"12\"
\"\",\"\",\"approach-retreat\",\"16\",\"293084\",\"0.0-16.0\",\"\",\"\",\"1-3\",\"5722\",\"38\",\"1\",\"Training\",\"Stims/Figures/86-J-0-1.bmp\",\"zahaha\",\"Down\",\"38\",\"1\",\"13\",\"9\",\"C2\",\"J\",\"13\"
\"\",\"\",\"approach-retreat\",\"17\",\"300394\",\"0.0-17.0\",\"\",\"\",\"1-3\",\"5801\",\"40\",\"1\",\"Training\",\"Stims/Figures/128-C-30-3.bmp\",\"malala\",\"Down\",\"40\",\"1\",\"14\",\"9\",\"S\",\"J\",\"14\"
\"\",\"\",\"approach-retreat\",\"18\",\"311050\",\"0.0-18.0\",\"\",\"\",\"1-3\",\"9147\",\"39\",\"0\",\"Training\",\"Stims/Figures/128-J-10-3.bmp\",\"tapata\",\"Right\",\"37\",\"1\",\"15\",\"9\",\"P\",\"J\",\"15\"
\"\",\"\",\"approach-retreat\",\"19\",\"324062\",\"0.0-19.0\",\"\",\"\",\"1-3\",\"11504\",\"37\",\"0\",\"Training\",\"Stims/Figures/86-C-30-1.bmp\",\"fa:shasha\",\"Right\",\"39\",\"1\",\"16\",\"9\",\"C1\",\"J\",\"16\"
\"\",\"\",\"approach-retreat\",\"20\",\"331818\",\"0.0-20.0\",\"\",\"\",\"1-3\",\"6244\",\"39\",\"0\",\"Training\",\"Stims/Figures/85-J-0-2.bmp\",\"pa:kata\",\"Right\",\"37\",\"2\",\"1\",\"9\",\"P\",\"J\",\"17\"
\"\",\"\",\"approach-retreat\",\"21\",\"340977\",\"0.0-21.0\",\"\",\"\",\"1-3\",\"7651\",\"38\",\"1\",\"Training\",\"Stims/Figures/44-J-10-3.bmp\",\"saha:ha\",\"Down\",\"38\",\"2\",\"2\",\"9\",\"C2\",\"J\",\"18\"
\"\",\"\",\"approach-retreat\",\"22\",\"349140\",\"0.0-22.0\",\"\",\"\",\"1-3\",\"6653\",\"40\",\"1\",\"Training\",\"Stims/Figures/7-J-10-4.bmp\",\"vafa:va\",\"Up\",\"40\",\"2\",\"3\",\"9\",\"C1\",\"J\",\"19\"
\"\",\"\",\"approach-retreat\",\"23\",\"359212\",\"0.0-23.0\",\"\",\"\",\"1-3\",\"8563\",\"37\",\"1\",\"Training\",\"Stims/Figures/128-J-10-3.bmp\",\"tapata\",\"Right\",\"37\",\"2\",\"4\",\"9\",\"P\",\"J\",\"20\"
\"\",\"\",\"approach-retreat\",\"24\",\"368632\",\"0.0-24.0\",\"\",\"\",\"1-3\",\"7912\",\"39\",\"0\",\"Training\",\"Stims/Figures/102-J-10-4.bmp\",\"fasha:sha\",\"Right\",\"37\",\"2\",\"5\",\"9\",\"C1\",\"J\",\"21\"
\"\",\"\",\"approach-retreat\",\"25\",\"376281\",\"0.0-25.0\",\"\",\"\",\"1-3\",\"6141\",\"40\",\"1\",\"Training\",\"Stims/Figures/85-C-20-2.bmp\",\"papa:ta\",\"Down\",\"40\",\"2\",\"6\",\"9\",\"P\",\"J\",\"22\"
\"\",\"\",\"approach-retreat\",\"26\",\"382333\",\"0.0-26.0\",\"\",\"\",\"1-3\",\"4544\",\"40\",\"1\",\"Training\",\"Stims/Figures/102-C-20-4.bmp\",\"namala\",\"Down\",\"40\",\"2\",\"7\",\"9\",\"S\",\"J\",\"23\"
\"\",\"\",\"approach-retreat\",\"27\",\"388839\",\"0.0-27.0\",\"\",\"\",\"1-3\",\"4996\",\"38\",\"0\",\"Training\",\"Stims/Figures/94-J-0-2.bmp\",\"saha:za\",\"Up\",\"40\",\"2\",\"8\",\"9\",\"C2\",\"J\",\"24\"
\"\",\"\",\"approach-retreat\",\"28\",\"396249\",\"0.0-28.0\",\"\",\"\",\"1-3\",\"5899\",\"40\",\"0\",\"Training\",\"Stims/Figures/44-C-30-3.bmp\",\"zaha:za\",\"Up\",\"38\",\"2\",\"9\",\"9\",\"C2\",\"J\",\"25\"
\"\",\"\",\"approach-retreat\",\"29\",\"411461\",\"0.0-29.0\",\"\",\"\",\"1-3\",\"13703\",\"39\",\"0\",\"Training\",\"Stims/Figures/27-C-30-1.bmp\",\"pa:ka:ka\",\"Left\",\"37\",\"2\",\"10\",\"9\",\"P\",\"J\",\"26\"
\"\",\"\",\"approach-retreat\",\"30\",\"422278\",\"0.0-30.0\",\"\",\"\",\"1-3\",\"9309\",\"37\",\"0\",\"Training\",\"Stims/Figures/94-C-20-2.bmp\",\"ta:pa:ta\",\"Right\",\"39\",\"2\",\"11\",\"9\",\"P\",\"J\",\"27\"
\"\",\"\",\"approach-retreat\",\"31\",\"427958\",\"0.0-31.0\",\"\",\"\",\"1-3\",\"4173\",\"37\",\"1\",\"Training\",\"Stims/Figures/7-C-20-4.bmp\",\"mala:la\",\"Left\",\"37\",\"2\",\"12\",\"9\",\"S\",\"J\",\"28\"
\"\",\"\",\"approach-retreat\",\"32\",\"434360\",\"0.0-32.0\",\"\",\"\",\"1-3\",\"4893\",\"39\",\"1\",\"Training\",\"Stims/Figures/27-J-0-1.bmp\",\"fafa:sha\",\"Left\",\"39\",\"2\",\"13\",\"9\",\"C1\",\"J\",\"29\"
\"\",\"\",\"approach-retreat\",\"33\",\"441912\",\"0.0-33.0\",\"\",\"\",\"1-3\",\"6045\",\"37\",\"1\",\"Training\",\"Stims/Figures/128-C-30-3.bmp\",\"malala\",\"Left\",\"37\",\"2\",\"14\",\"9\",\"S\",\"J\",\"30\"
\"\",\"\",\"approach-retreat\",\"34\",\"448284\",\"0.0-34.0\",\"\",\"\",\"1-3\",\"4863\",\"40\",\"0\",\"Training\",\"Stims/Figures/86-J-0-1.bmp\",\"zahaha\",\"Down\",\"38\",\"2\",\"15\",\"9\",\"C2\",\"J\",\"31\"
\"\",\"\",\"approach-retreat\",\"35\",\"454767\",\"0.0-35.0\",\"\",\"\",\"1-3\",\"4974\",\"38\",\"1\",\"Training\",\"Stims/Figures/86-C-30-1.bmp\",\"fa:shasha\",\"Up\",\"38\",\"2\",\"16\",\"9\",\"C1\",\"J\",\"32\"
\"\",\"\",\"approach-retreat\",\"36\",\"462000\",\"0.0-36.0\",\"\",\"\",\"1-3\",\"5724\",\"39\",\"1\",\"Training\",\"Stims/Figures/7-J-10-4.bmp\",\"vafa:va\",\"Left\",\"39\",\"3\",\"1\",\"9\",\"C1\",\"J\",\"33\"
\"\",\"\",\"approach-retreat\",\"37\",\"468362\",\"0.0-37.0\",\"\",\"\",\"1-3\",\"4854\",\"40\",\"0\",\"Training\",\"Stims/Figures/44-C-30-3.bmp\",\"zaha:za\",\"Up\",\"38\",\"3\",\"2\",\"9\",\"C2\",\"J\",\"34\"
\"\",\"\",\"approach-retreat\",\"38\",\"474501\",\"0.0-38.0\",\"\",\"\",\"1-3\",\"4629\",\"37\",\"1\",\"Training\",\"Stims/Figures/86-C-30-1.bmp\",\"fa:shasha\",\"Left\",\"37\",\"3\",\"3\",\"9\",\"C1\",\"J\",\"35\"
\"\",\"\",\"approach-retreat\",\"39\",\"484329\",\"0.0-39.0\",\"\",\"\",\"1-3\",\"8320\",\"39\",\"1\",\"Training\",\"Stims/Figures/94-C-20-2.bmp\",\"ta:pa:ta\",\"Right\",\"39\",\"3\",\"4\",\"9\",\"P\",\"J\",\"36\"
\"\",\"\",\"approach-retreat\",\"40\",\"491882\",\"0.0-40.0\",\"\",\"\",\"1-3\",\"6046\",\"40\",\"0\",\"Training\",\"Stims/Figures/102-C-20-4.bmp\",\"namala\",\"Up\",\"38\",\"3\",\"5\",\"9\",\"S\",\"J\",\"37\"
\"\",\"\",\"approach-retreat\",\"41\",\"501068\",\"0.0-41.0\",\"\",\"\",\"1-3\",\"7677\",\"40\",\"1\",\"Training\",\"Stims/Figures/128-J-10-3.bmp\",\"tapata\",\"Up\",\"40\",\"3\",\"6\",\"9\",\"P\",\"J\",\"38\"
\"\",\"\",\"approach-retreat\",\"42\",\"507230\",\"0.0-42.0\",\"\",\"\",\"1-3\",\"4655\",\"37\",\"1\",\"Training\",\"Stims/Figures/94-J-0-2.bmp\",\"saha:za\",\"Right\",\"37\",\"3\",\"7\",\"9\",\"C2\",\"J\",\"39\"
\"\",\"\",\"approach-retreat\",\"43\",\"513432\",\"0.0-43.0\",\"\",\"\",\"1-3\",\"4693\",\"39\",\"1\",\"Training\",\"Stims/Figures/44-J-10-3.bmp\",\"saha:ha\",\"Left\",\"39\",\"3\",\"8\",\"9\",\"C2\",\"J\",\"40\"
\"\",\"\",\"approach-retreat\",\"44\",\"519537\",\"0.0-44.0\",\"\",\"\",\"1-3\",\"4597\",\"38\",\"0\",\"Training\",\"Stims/Figures/27-C-30-1.bmp\",\"pa:ka:ka\",\"Down\",\"40\",\"3\",\"9\",\"9\",\"P\",\"J\",\"41\"
\"\",\"\",\"approach-retreat\",\"45\",\"525895\",\"0.0-45.0\",\"\",\"\",\"1-3\",\"4850\",\"38\",\"1\",\"Training\",\"Stims/Figures/27-J-0-1.bmp\",\"fafa:sha\",\"Down\",\"38\",\"3\",\"10\",\"9\",\"C1\",\"J\",\"42\"
\"\",\"\",\"approach-retreat\",\"46\",\"531635\",\"0.0-46.0\",\"\",\"\",\"1-3\",\"4232\",\"37\",\"0\",\"Training\",\"Stims/Figures/85-C-20-2.bmp\",\"papa:ta\",\"Right\",\"39\",\"3\",\"11\",\"9\",\"P\",\"J\",\"43\"
\"\",\"\",\"approach-retreat\",\"47\",\"537321\",\"0.0-47.0\",\"\",\"\",\"1-3\",\"4180\",\"37\",\"0\",\"Training\",\"Stims/Figures/128-C-30-3.bmp\",\"malala\",\"Right\",\"39\",\"3\",\"12\",\"9\",\"S\",\"J\",\"44\"
\"\",\"\",\"approach-retreat\",\"48\",\"543241\",\"0.0-48.0\",\"\",\"\",\"1-3\",\"4412\",\"38\",\"0\",\"Training\",\"Stims/Figures/102-J-10-4.bmp\",\"fasha:sha\",\"Up\",\"40\",\"3\",\"13\",\"9\",\"C1\",\"J\",\"45\"
\"\",\"\",\"approach-retreat\",\"49\",\"549012\",\"0.0-49.0\",\"\",\"\",\"1-3\",\"4263\",\"39\",\"1\",\"Training\",\"Stims/Figures/86-J-0-1.bmp\",\"zahaha\",\"Left\",\"39\",\"3\",\"14\",\"9\",\"C2\",\"J\",\"46\"
\"\",\"\",\"approach-retreat\",\"50\",\"555182\",\"0.0-50.0\",\"\",\"\",\"1-3\",\"4661\",\"40\",\"0\",\"Training\",\"Stims/Figures/85-J-0-2.bmp\",\"pa:kata\",\"Down\",\"38\",\"3\",\"15\",\"9\",\"P\",\"J\",\"47\"
\"\",\"\",\"approach-retreat\",\"51\",\"561109\",\"0.0-51.0\",\"\",\"\",\"1-3\",\"4419\",\"40\",\"1\",\"Training\",\"Stims/Figures/7-C-20-4.bmp\",\"mala:la\",\"Down\",\"40\",\"3\",\"16\",\"9\",\"S\",\"J\",\"48\"
\"\",\"\",\"approach-retreat\",\"52\",\"569240\",\"0.0-52.0\",\"\",\"\",\"1-3\",\"6621\",\"39\",\"1\",\"Training\",\"Stims/Figures/128-J-10-3.bmp\",\"tapata\",\"Left\",\"39\",\"4\",\"1\",\"9\",\"P\",\"J\",\"49\"
\"\",\"\",\"approach-retreat\",\"53\",\"575434\",\"0.0-53.0\",\"\",\"\",\"1-3\",\"4686\",\"38\",\"1\",\"Training\",\"Stims/Figures/86-J-0-1.bmp\",\"zahaha\",\"Down\",\"38\",\"4\",\"2\",\"9\",\"C2\",\"J\",\"50\"
\"\",\"\",\"approach-retreat\",\"54\",\"584206\",\"0.0-54.0\",\"\",\"\",\"1-3\",\"7265\",\"37\",\"0\",\"Training\",\"Stims/Figures/44-J-10-3.bmp\",\"saha:ha\",\"Left\",\"39\",\"4\",\"3\",\"9\",\"C2\",\"J\",\"51\"
\"\",\"\",\"approach-retreat\",\"55\",\"590421\",\"0.0-55.0\",\"\",\"\",\"1-3\",\"4707\",\"37\",\"1\",\"Training\",\"Stims/Figures/85-J-0-2.bmp\",\"pa:kata\",\"Right\",\"37\",\"4\",\"4\",\"9\",\"P\",\"J\",\"52\"
\"\",\"\",\"approach-retreat\",\"56\",\"596501\",\"0.0-56.0\",\"\",\"\",\"1-3\",\"4570\",\"39\",\"1\",\"Training\",\"Stims/Figures/7-J-10-4.bmp\",\"vafa:va\",\"Left\",\"39\",\"4\",\"5\",\"9\",\"C1\",\"J\",\"53\"
\"\",\"\",\"approach-retreat\",\"57\",\"602664\",\"0.0-57.0\",\"\",\"\",\"1-3\",\"4653\",\"40\",\"0\",\"Training\",\"Stims/Figures/7-C-20-4.bmp\",\"mala:la\",\"Up\",\"38\",\"4\",\"6\",\"9\",\"S\",\"J\",\"54\"
\"\",\"\",\"approach-retreat\",\"58\",\"608279\",\"0.0-58.0\",\"\",\"\",\"1-3\",\"4107\",\"39\",\"0\",\"Training\",\"Stims/Figures/85-C-20-2.bmp\",\"papa:ta\",\"Left\",\"37\",\"4\",\"7\",\"9\",\"P\",\"J\",\"55\"
\"\",\"\",\"approach-retreat\",\"59\",\"614859\",\"0.0-59.0\",\"\",\"\",\"1-3\",\"5074\",\"39\",\"1\",\"Training\",\"Stims/Figures/128-C-30-3.bmp\",\"malala\",\"Right\",\"39\",\"4\",\"8\",\"9\",\"S\",\"J\",\"56\"
\"\",\"\",\"approach-retreat\",\"60\",\"621224\",\"0.0-60.0\",\"\",\"\",\"1-3\",\"4856\",\"40\",\"1\",\"Training\",\"Stims/Figures/94-C-20-2.bmp\",\"ta:pa:ta\",\"Down\",\"40\",\"4\",\"9\",\"9\",\"P\",\"J\",\"57\"
\"\",\"\",\"approach-retreat\",\"61\",\"627197\",\"0.0-61.0\",\"\",\"\",\"1-3\",\"4465\",\"37\",\"0\",\"Training\",\"Stims/Figures/86-C-30-1.bmp\",\"fa:shasha\",\"Right\",\"39\",\"4\",\"10\",\"9\",\"C1\",\"J\",\"58\"
\"\",\"\",\"approach-retreat\",\"62\",\"633371\",\"0.0-62.0\",\"\",\"\",\"1-3\",\"4666\",\"38\",\"0\",\"Training\",\"Stims/Figures/27-J-0-1.bmp\",\"fafa:sha\",\"Up\",\"40\",\"4\",\"11\",\"9\",\"C1\",\"J\",\"59\"
\"\",\"\",\"approach-retreat\",\"63\",\"639819\",\"0.0-63.0\",\"\",\"\",\"1-3\",\"4941\",\"40\",\"1\",\"Training\",\"Stims/Figures/44-C-30-3.bmp\",\"zaha:za\",\"Down\",\"40\",\"4\",\"12\",\"9\",\"C2\",\"J\",\"60\"
\"\",\"\",\"approach-retreat\",\"64\",\"647126\",\"0.0-64.0\",\"\",\"\",\"1-3\",\"5800\",\"38\",\"1\",\"Training\",\"Stims/Figures/94-J-0-2.bmp\",\"saha:za\",\"Down\",\"38\",\"4\",\"13\",\"9\",\"C2\",\"J\",\"61\"
\"\",\"\",\"approach-retreat\",\"65\",\"654237\",\"0.0-65.0\",\"\",\"\",\"1-3\",\"5601\",\"38\",\"1\",\"Training\",\"Stims/Figures/102-C-20-4.bmp\",\"namala\",\"Up\",\"38\",\"4\",\"14\",\"9\",\"S\",\"J\",\"62\"
\"\",\"\",\"approach-retreat\",\"66\",\"659864\",\"0.0-66.0\",\"\",\"\",\"1-3\",\"4119\",\"37\",\"0\",\"Training\",\"Stims/Figures/27-C-30-1.bmp\",\"pa:ka:ka\",\"Right\",\"39\",\"4\",\"15\",\"9\",\"P\",\"J\",\"63\"
\"\",\"\",\"approach-retreat\",\"67\",\"666063\",\"0.0-67.0\",\"\",\"\",\"1-3\",\"4691\",\"40\",\"1\",\"Training\",\"Stims/Figures/102-J-10-4.bmp\",\"fasha:sha\",\"Up\",\"40\",\"4\",\"16\",\"9\",\"C1\",\"J\",\"64\"
\"\",\"\",\"approach-retreat\",\"68\",\"673256\",\"0.0-68.0\",\"\",\"\",\"1-3\",\"5683\",\"37\",\"1\",\"Training\",\"Stims/Figures/102-J-10-4.bmp\",\"fasha:sha\",\"Right\",\"37\",\"5\",\"1\",\"9\",\"C1\",\"J\",\"65\"
\"\",\"\",\"approach-retreat\",\"69\",\"679589\",\"0.0-69.0\",\"\",\"\",\"1-3\",\"4825\",\"37\",\"0\",\"Training\",\"Stims/Figures/128-J-10-3.bmp\",\"tapata\",\"Left\",\"39\",\"5\",\"2\",\"9\",\"P\",\"J\",\"66\"
\"\",\"\",\"approach-retreat\",\"70\",\"689154\",\"0.0-70.0\",\"\",\"\",\"1-3\",\"8057\",\"39\",\"1\",\"Training\",\"Stims/Figures/94-J-0-2.bmp\",\"saha:za\",\"Left\",\"39\",\"5\",\"3\",\"9\",\"C2\",\"J\",\"67\"
\"\",\"\",\"approach-retreat\",\"71\",\"696765\",\"0.0-71.0\",\"\",\"\",\"1-3\",\"6104\",\"40\",\"0\",\"Training\",\"Stims/Figures/7-J-10-4.bmp\",\"vafa:va\",\"Down\",\"38\",\"5\",\"4\",\"9\",\"C1\",\"J\",\"68\"
\"\",\"\",\"approach-retreat\",\"72\",\"703771\",\"0.0-72.0\",\"\",\"\",\"1-3\",\"5498\",\"39\",\"0\",\"Training\",\"Stims/Figures/27-C-30-1.bmp\",\"pa:ka:ka\",\"Left\",\"37\",\"5\",\"5\",\"9\",\"P\",\"J\",\"69\"
\"\",\"\",\"approach-retreat\",\"73\",\"709511\",\"0.0-73.0\",\"\",\"\",\"1-3\",\"4233\",\"37\",\"1\",\"Training\",\"Stims/Figures/85-J-0-2.bmp\",\"pa:kata\",\"Right\",\"37\",\"5\",\"6\",\"9\",\"P\",\"J\",\"70\"
\"\",\"\",\"approach-retreat\",\"74\",\"715533\",\"0.0-74.0\",\"\",\"\",\"1-3\",\"4514\",\"37\",\"1\",\"Training\",\"Stims/Figures/85-C-20-2.bmp\",\"papa:ta\",\"Left\",\"37\",\"5\",\"7\",\"9\",\"P\",\"J\",\"71\"
\"\",\"\",\"approach-retreat\",\"75\",\"724413\",\"0.0-75.0\",\"\",\"\",\"1-3\",\"7373\",\"38\",\"1\",\"Training\",\"Stims/Figures/44-C-30-3.bmp\",\"zaha:za\",\"Up\",\"38\",\"5\",\"8\",\"9\",\"C2\",\"J\",\"72\"
\"\",\"\",\"approach-retreat\",\"76\",\"730096\",\"0.0-76.0\",\"\",\"\",\"1-3\",\"4174\",\"40\",\"1\",\"Training\",\"Stims/Figures/86-J-0-1.bmp\",\"zahaha\",\"Up\",\"40\",\"5\",\"9\",\"9\",\"C2\",\"J\",\"73\"
\"\",\"\",\"approach-retreat\",\"77\",\"736107\",\"0.0-77.0\",\"\",\"\",\"1-3\",\"4504\",\"38\",\"0\",\"Training\",\"Stims/Figures/27-J-0-1.bmp\",\"fafa:sha\",\"Up\",\"40\",\"5\",\"10\",\"9\",\"C1\",\"J\",\"74\"
\"\",\"\",\"approach-retreat\",\"78\",\"742142\",\"0.0-78.0\",\"\",\"\",\"1-3\",\"4529\",\"39\",\"1\",\"Training\",\"Stims/Figures/86-C-30-1.bmp\",\"fa:shasha\",\"Right\",\"39\",\"5\",\"11\",\"9\",\"C1\",\"J\",\"75\"
\"\",\"\",\"approach-retreat\",\"79\",\"748397\",\"0.0-79.0\",\"\",\"\",\"1-3\",\"4747\",\"38\",\"1\",\"Training\",\"Stims/Figures/102-C-20-4.bmp\",\"namala\",\"Up\",\"38\",\"5\",\"12\",\"9\",\"S\",\"J\",\"76\"
\"\",\"\",\"approach-retreat\",\"80\",\"754336\",\"0.0-80.0\",\"\",\"\",\"1-3\",\"4429\",\"37\",\"0\",\"Training\",\"Stims/Figures/7-C-20-4.bmp\",\"mala:la\",\"Right\",\"39\",\"5\",\"13\",\"9\",\"S\",\"J\",\"77\"
\"\",\"\",\"approach-retreat\",\"81\",\"760829\",\"0.0-81.0\",\"\",\"\",\"1-3\",\"4984\",\"40\",\"0\",\"Training\",\"Stims/Figures/44-J-10-3.bmp\",\"saha:ha\",\"Down\",\"38\",\"5\",\"14\",\"9\",\"C2\",\"J\",\"78\"
\"\",\"\",\"approach-retreat\",\"82\",\"768006\",\"0.0-82.0\",\"\",\"\",\"1-3\",\"5670\",\"38\",\"0\",\"Training\",\"Stims/Figures/128-C-30-3.bmp\",\"malala\",\"Down\",\"40\",\"5\",\"15\",\"9\",\"S\",\"J\",\"79\"
\"\",\"\",\"approach-retreat\",\"83\",\"773554\",\"0.0-83.0\",\"\",\"\",\"1-3\",\"4038\",\"38\",\"0\",\"Training\",\"Stims/Figures/94-C-20-2.bmp\",\"ta:pa:ta\",\"Down\",\"40\",\"5\",\"16\",\"9\",\"P\",\"J\",\"80\"
\"\",\"\",\"approach-retreat\",\"84\",\"779908\",\"0.0-84.0\",\"\",\"\",\"1-3\",\"4845\",\"37\",\"1\",\"Training\",\"Stims/Figures/128-C-30-3.bmp\",\"malala\",\"Left\",\"37\",\"6\",\"1\",\"9\",\"S\",\"J\",\"81\"
\"\",\"\",\"approach-retreat\",\"85\",\"786071\",\"0.0-85.0\",\"\",\"\",\"1-3\",\"4653\",\"38\",\"0\",\"Training\",\"Stims/Figures/128-J-10-3.bmp\",\"tapata\",\"Up\",\"40\",\"6\",\"2\",\"9\",\"P\",\"J\",\"82\"
\"\",\"\",\"approach-retreat\",\"86\",\"791481\",\"0.0-86.0\",\"\",\"\",\"1-3\",\"3901\",\"38\",\"0\",\"Training\",\"Stims/Figures/94-J-0-2.bmp\",\"saha:za\",\"Up\",\"40\",\"6\",\"3\",\"9\",\"C2\",\"J\",\"83\"
\"\",\"\",\"approach-retreat\",\"87\",\"797566\",\"0.0-87.0\",\"\",\"\",\"1-3\",\"4577\",\"39\",\"0\",\"Training\",\"Stims/Figures/102-C-20-4.bmp\",\"namala\",\"Left\",\"37\",\"6\",\"4\",\"9\",\"S\",\"J\",\"84\"
\"\",\"\",\"approach-retreat\",\"88\",\"803348\",\"0.0-88.0\",\"\",\"\",\"1-3\",\"4273\",\"38\",\"1\",\"Training\",\"Stims/Figures/85-J-0-2.bmp\",\"pa:kata\",\"Down\",\"38\",\"6\",\"5\",\"9\",\"P\",\"J\",\"85\"
\"\",\"\",\"approach-retreat\",\"89\",\"809188\",\"0.0-89.0\",\"\",\"\",\"1-3\",\"4331\",\"37\",\"0\",\"Training\",\"Stims/Figures/85-C-20-2.bmp\",\"papa:ta\",\"Right\",\"39\",\"6\",\"6\",\"9\",\"P\",\"J\",\"86\"
\"\",\"\",\"approach-retreat\",\"90\",\"815570\",\"0.0-90.0\",\"\",\"\",\"1-3\",\"4874\",\"39\",\"1\",\"Training\",\"Stims/Figures/86-C-30-1.bmp\",\"fa:shasha\",\"Right\",\"39\",\"6\",\"7\",\"9\",\"C1\",\"J\",\"87\"
\"\",\"\",\"approach-retreat\",\"91\",\"821805\",\"0.0-91.0\",\"\",\"\",\"1-3\",\"4725\",\"39\",\"1\",\"Training\",\"Stims/Figures/27-C-30-1.bmp\",\"pa:ka:ka\",\"Right\",\"39\",\"6\",\"8\",\"9\",\"P\",\"J\",\"88\"
\"\",\"\",\"approach-retreat\",\"92\",\"827953\",\"0.0-92.0\",\"\",\"\",\"1-3\",\"4637\",\"37\",\"0\",\"Training\",\"Stims/Figures/44-J-10-3.bmp\",\"saha:ha\",\"Left\",\"39\",\"6\",\"9\",\"9\",\"C2\",\"J\",\"89\"
\"\",\"\",\"approach-retreat\",\"93\",\"834145\",\"0.0-93.0\",\"\",\"\",\"1-3\",\"4684\",\"38\",\"1\",\"Training\",\"Stims/Figures/27-J-0-1.bmp\",\"fafa:sha\",\"Down\",\"38\",\"6\",\"10\",\"9\",\"C1\",\"J\",\"90\"
\"\",\"\",\"approach-retreat\",\"94\",\"840558\",\"0.0-94.0\",\"\",\"\",\"1-3\",\"4903\",\"37\",\"0\",\"Training\",\"Stims/Figures/7-J-10-4.bmp\",\"vafa:va\",\"Left\",\"39\",\"6\",\"11\",\"9\",\"C1\",\"J\",\"91\"
\"\",\"\",\"approach-retreat\",\"95\",\"846257\",\"0.0-95.0\",\"\",\"\",\"1-3\",\"4191\",\"38\",\"1\",\"Training\",\"Stims/Figures/44-C-30-3.bmp\",\"zaha:za\",\"Up\",\"38\",\"6\",\"12\",\"9\",\"C2\",\"J\",\"92\"
\"\",\"\",\"approach-retreat\",\"96\",\"852287\",\"0.0-96.0\",\"\",\"\",\"1-3\",\"4522\",\"38\",\"1\",\"Training\",\"Stims/Figures/94-C-20-2.bmp\",\"ta:pa:ta\",\"Up\",\"38\",\"6\",\"13\",\"9\",\"P\",\"J\",\"93\"
\"\",\"\",\"approach-retreat\",\"97\",\"858633\",\"0.0-97.0\",\"\",\"\",\"1-3\",\"4839\",\"40\",\"0\",\"Training\",\"Stims/Figures/102-J-10-4.bmp\",\"fasha:sha\",\"Down\",\"38\",\"6\",\"14\",\"9\",\"C1\",\"J\",\"94\"
\"\",\"\",\"approach-retreat\",\"98\",\"864746\",\"0.0-98.0\",\"\",\"\",\"1-3\",\"4603\",\"40\",\"1\",\"Training\",\"Stims/Figures/7-C-20-4.bmp\",\"mala:la\",\"Down\",\"40\",\"6\",\"15\",\"9\",\"S\",\"J\",\"95\"
\"\",\"\",\"approach-retreat\",\"99\",\"871175\",\"0.0-99.0\",\"\",\"\",\"1-3\",\"4920\",\"39\",\"0\",\"Training\",\"Stims/Figures/86-J-0-1.bmp\",\"zahaha\",\"Right\",\"37\",\"6\",\"16\",\"9\",\"C2\",\"J\",\"96\"
\"\",\"\",\"approach-retreat\",\"100\",\"877305\",\"0.0-100.0\",\"\",\"\",\"1-3\",\"4620\",\"39\",\"0\",\"Training\",\"Stims/Figures/94-C-20-2.bmp\",\"ta:pa:ta\",\"Left\",\"37\",\"7\",\"1\",\"9\",\"P\",\"J\",\"97\"
\"\",\"\",\"approach-retreat\",\"101\",\"882763\",\"0.0-101.0\",\"\",\"\",\"1-3\",\"3948\",\"39\",\"0\",\"Training\",\"Stims/Figures/7-C-20-4.bmp\",\"mala:la\",\"Left\",\"37\",\"7\",\"2\",\"9\",\"S\",\"J\",\"98\"
\"\",\"\",\"approach-retreat\",\"102\",\"889046\",\"0.0-102.0\",\"\",\"\",\"1-3\",\"4774\",\"40\",\"0\",\"Training\",\"Stims/Figures/27-C-30-1.bmp\",\"pa:ka:ka\",\"Up\",\"38\",\"7\",\"3\",\"9\",\"P\",\"J\",\"99\"
\"\",\"\",\"approach-retreat\",\"103\",\"894472\",\"0.0-103.0\",\"\",\"\",\"1-3\",\"3919\",\"38\",\"0\",\"Training\",\"Stims/Figures/44-J-10-3.bmp\",\"saha:ha\",\"Up\",\"40\",\"7\",\"4\",\"9\",\"C2\",\"J\",\"100\"
\"\",\"\",\"approach-retreat\",\"104\",\"902413\",\"0.0-104.0\",\"\",\"\",\"1-3\",\"6432\",\"37\",\"1\",\"Training\",\"Stims/Figures/27-J-0-1.bmp\",\"fafa:sha\",\"Right\",\"37\",\"7\",\"5\",\"9\",\"C1\",\"J\",\"101\"
\"\",\"\",\"approach-retreat\",\"105\",\"910850\",\"0.0-105.0\",\"\",\"\",\"1-3\",\"6928\",\"38\",\"0\",\"Training\",\"Stims/Figures/128-J-10-3.bmp\",\"tapata\",\"Up\",\"40\",\"7\",\"6\",\"9\",\"P\",\"J\",\"102\"
\"\",\"\",\"approach-retreat\",\"106\",\"916612\",\"0.0-106.0\",\"\",\"\",\"1-3\",\"4254\",\"37\",\"0\",\"Training\",\"Stims/Figures/44-C-30-3.bmp\",\"zaha:za\",\"Right\",\"39\",\"7\",\"7\",\"9\",\"C2\",\"J\",\"103\"
\"\",\"\",\"approach-retreat\",\"107\",\"923110\",\"0.0-107.0\",\"\",\"\",\"1-3\",\"4987\",\"38\",\"0\",\"Training\",\"Stims/Figures/102-C-20-4.bmp\",\"namala\",\"Down\",\"40\",\"7\",\"8\",\"9\",\"S\",\"J\",\"104\"
\"\",\"\",\"approach-retreat\",\"108\",\"928395\",\"0.0-108.0\",\"\",\"\",\"1-3\",\"3777\",\"38\",\"1\",\"Training\",\"Stims/Figures/86-J-0-1.bmp\",\"zahaha\",\"Down\",\"38\",\"7\",\"9\",\"9\",\"C2\",\"J\",\"105\"
\"\",\"\",\"approach-retreat\",\"109\",\"934062\",\"0.0-109.0\",\"\",\"\",\"1-3\",\"4159\",\"38\",\"0\",\"Training\",\"Stims/Figures/85-C-20-2.bmp\",\"papa:ta\",\"Down\",\"40\",\"7\",\"10\",\"9\",\"P\",\"J\",\"106\"
\"\",\"\",\"approach-retreat\",\"110\",\"939740\",\"0.0-110.0\",\"\",\"\",\"1-3\",\"4170\",\"37\",\"0\",\"Training\",\"Stims/Figures/85-J-0-2.bmp\",\"pa:kata\",\"Left\",\"39\",\"7\",\"11\",\"9\",\"P\",\"J\",\"107\"
\"\",\"\",\"approach-retreat\",\"111\",\"945264\",\"0.0-111.0\",\"\",\"\",\"1-3\",\"4018\",\"38\",\"0\",\"Training\",\"Stims/Figures/94-J-0-2.bmp\",\"saha:za\",\"Up\",\"40\",\"7\",\"12\",\"9\",\"C2\",\"J\",\"108\"
\"\",\"\",\"approach-retreat\",\"112\",\"951017\",\"0.0-112.0\",\"\",\"\",\"1-3\",\"4244\",\"37\",\"0\",\"Training\",\"Stims/Figures/7-J-10-4.bmp\",\"vafa:va\",\"Left\",\"39\",\"7\",\"13\",\"9\",\"C1\",\"J\",\"109\"
\"\",\"\",\"approach-retreat\",\"113\",\"957030\",\"0.0-113.0\",\"\",\"\",\"1-3\",\"4504\",\"37\",\"1\",\"Training\",\"Stims/Figures/102-J-10-4.bmp\",\"fasha:sha\",\"Right\",\"37\",\"7\",\"14\",\"9\",\"C1\",\"J\",\"110\"
\"\",\"\",\"approach-retreat\",\"114\",\"962757\",\"0.0-114.0\",\"\",\"\",\"1-3\",\"4218\",\"37\",\"0\",\"Training\",\"Stims/Figures/86-C-30-1.bmp\",\"fa:shasha\",\"Right\",\"39\",\"7\",\"15\",\"9\",\"C1\",\"J\",\"111\"
\"\",\"\",\"approach-retreat\",\"115\",\"968769\",\"0.0-115.0\",\"\",\"\",\"1-3\",\"4504\",\"38\",\"0\",\"Training\",\"Stims/Figures/128-C-30-3.bmp\",\"malala\",\"Down\",\"40\",\"7\",\"16\",\"9\",\"S\",\"J\",\"112\"
\"\",\"\",\"approach-retreat\",\"116\",\"974234\",\"0.0-116.0\",\"\",\"\",\"1-3\",\"3957\",\"38\",\"0\",\"Training\",\"Stims/Figures/7-C-20-4.bmp\",\"mala:la\",\"Down\",\"40\",\"8\",\"1\",\"9\",\"S\",\"J\",\"113\"
\"\",\"\",\"approach-retreat\",\"117\",\"980170\",\"0.0-117.0\",\"\",\"\",\"1-3\",\"4429\",\"39\",\"0\",\"Training\",\"Stims/Figures/44-C-30-3.bmp\",\"zaha:za\",\"Left\",\"37\",\"8\",\"2\",\"9\",\"C2\",\"J\",\"114\"
\"\",\"\",\"approach-retreat\",\"118\",\"985820\",\"0.0-118.0\",\"\",\"\",\"1-3\",\"4140\",\"37\",\"0\",\"Training\",\"Stims/Figures/7-J-10-4.bmp\",\"vafa:va\",\"Left\",\"39\",\"8\",\"3\",\"9\",\"C1\",\"J\",\"115\"
\"\",\"\",\"approach-retreat\",\"119\",\"992131\",\"0.0-119.0\",\"\",\"\",\"1-3\",\"4801\",\"38\",\"1\",\"Training\",\"Stims/Figures/86-C-30-1.bmp\",\"fa:shasha\",\"Up\",\"38\",\"8\",\"4\",\"9\",\"C1\",\"J\",\"116\"
\"\",\"\",\"approach-retreat\",\"120\",\"997530\",\"0.0-120.0\",\"\",\"\",\"1-3\",\"3892\",\"38\",\"0\",\"Training\",\"Stims/Figures/94-J-0-2.bmp\",\"saha:za\",\"Up\",\"40\",\"8\",\"5\",\"9\",\"C2\",\"J\",\"117\"
\"\",\"\",\"approach-retreat\",\"121\",\"1003987\",\"0.0-121.0\",\"\",\"\",\"1-3\",\"4948\",\"39\",\"0\",\"Training\",\"Stims/Figures/27-J-0-1.bmp\",\"fafa:sha\",\"Right\",\"37\",\"8\",\"6\",\"9\",\"C1\",\"J\",\"118\"
\"\",\"\",\"approach-retreat\",\"122\",\"1010318\",\"0.0-122.0\",\"\",\"\",\"1-3\",\"4822\",\"38\",\"1\",\"Training\",\"Stims/Figures/85-J-0-2.bmp\",\"pa:kata\",\"Down\",\"38\",\"8\",\"7\",\"9\",\"P\",\"J\",\"119\"
\"\",\"\",\"approach-retreat\",\"123\",\"1016079\",\"0.0-123.0\",\"\",\"\",\"1-3\",\"4253\",\"38\",\"0\",\"Training\",\"Stims/Figures/102-J-10-4.bmp\",\"fasha:sha\",\"Up\",\"40\",\"8\",\"8\",\"9\",\"C1\",\"J\",\"120\"
\"\",\"\",\"approach-retreat\",\"124\",\"1022980\",\"0.0-124.0\",\"\",\"\",\"1-3\",\"5391\",\"40\",\"0\",\"Training\",\"Stims/Figures/94-C-20-2.bmp\",\"ta:pa:ta\",\"Up\",\"38\",\"8\",\"9\",\"9\",\"P\",\"J\",\"121\"
\"\",\"\",\"approach-retreat\",\"125\",\"1028835\",\"0.0-125.0\",\"\",\"\",\"1-3\",\"4347\",\"37\",\"0\",\"Training\",\"Stims/Figures/86-J-0-1.bmp\",\"zahaha\",\"Left\",\"39\",\"8\",\"10\",\"9\",\"C2\",\"J\",\"122\"
\"\",\"\",\"approach-retreat\",\"126\",\"1034277\",\"0.0-126.0\",\"\",\"\",\"1-3\",\"3934\",\"39\",\"1\",\"Training\",\"Stims/Figures/128-C-30-3.bmp\",\"malala\",\"Right\",\"39\",\"8\",\"11\",\"9\",\"S\",\"J\",\"123\"
\"\",\"\",\"approach-retreat\",\"127\",\"1039995\",\"0.0-127.0\",\"\",\"\",\"1-3\",\"4207\",\"39\",\"0\",\"Training\",\"Stims/Figures/85-C-20-2.bmp\",\"papa:ta\",\"Left\",\"37\",\"8\",\"12\",\"9\",\"P\",\"J\",\"124\"
\"\",\"\",\"approach-retreat\",\"128\",\"1046410\",\"0.0-128.0\",\"\",\"\",\"1-3\",\"4906\",\"39\",\"0\",\"Training\",\"Stims/Figures/128-J-10-3.bmp\",\"tapata\",\"Right\",\"37\",\"8\",\"13\",\"9\",\"P\",\"J\",\"125\"
\"\",\"\",\"approach-retreat\",\"129\",\"1054937\",\"0.0-129.0\",\"\",\"\",\"1-3\",\"7018\",\"38\",\"1\",\"Training\",\"Stims/Figures/44-J-10-3.bmp\",\"saha:ha\",\"Down\",\"38\",\"8\",\"14\",\"9\",\"C2\",\"J\",\"126\"
\"\",\"\",\"approach-retreat\",\"130\",\"1062110\",\"0.0-130.0\",\"\",\"\",\"1-3\",\"5665\",\"39\",\"1\",\"Training\",\"Stims/Figures/27-C-30-1.bmp\",\"pa:ka:ka\",\"Right\",\"39\",\"8\",\"15\",\"9\",\"P\",\"J\",\"127\"
\"\",\"\",\"approach-retreat\",\"131\",\"1068781\",\"0.0-131.0\",\"\",\"\",\"1-3\",\"5164\",\"40\",\"1\",\"Training\",\"Stims/Figures/102-C-20-4.bmp\",\"namala\",\"Down\",\"40\",\"8\",\"16\",\"9\",\"S\",\"J\",\"128\"
\"\",\"\",\"approach-retreat\",\"132\",\"1075907\",\"0.0-132.0\",\"\",\"\",\"1-3\",\"5616\",\"39\",\"0\",\"Training\",\"Stims/Figures/85-J-0-2.bmp\",\"pa:kata\",\"Right\",\"37\",\"9\",\"1\",\"9\",\"P\",\"J\",\"129\"
\"\",\"\",\"approach-retreat\",\"133\",\"1084624\",\"0.0-133.0\",\"\",\"\",\"1-3\",\"7207\",\"37\",\"0\",\"Training\",\"Stims/Figures/44-J-10-3.bmp\",\"saha:ha\",\"Left\",\"39\",\"9\",\"2\",\"9\",\"C2\",\"J\",\"130\"
\"\",\"\",\"approach-retreat\",\"134\",\"1094016\",\"0.0-134.0\",\"\",\"\",\"1-3\",\"7884\",\"40\",\"0\",\"Training\",\"Stims/Figures/86-C-30-1.bmp\",\"fa:shasha\",\"Up\",\"38\",\"9\",\"3\",\"9\",\"C1\",\"J\",\"131\"
\"\",\"\",\"approach-retreat\",\"135\",\"1102231\",\"0.0-135.0\",\"\",\"\",\"1-3\",\"6705\",\"40\",\"1\",\"Training\",\"Stims/Figures/102-C-20-4.bmp\",\"namala\",\"Down\",\"40\",\"9\",\"4\",\"9\",\"S\",\"J\",\"132\"
\"\",\"\",\"approach-retreat\",\"136\",\"1111995\",\"0.0-136.0\",\"\",\"\",\"1-3\",\"8256\",\"38\",\"1\",\"Training\",\"Stims/Figures/94-C-20-2.bmp\",\"ta:pa:ta\",\"Up\",\"38\",\"9\",\"5\",\"9\",\"P\",\"J\",\"133\"
\"\",\"\",\"approach-retreat\",\"137\",\"1120185\",\"0.0-137.0\",\"\",\"\",\"1-3\",\"6681\",\"38\",\"0\",\"Training\",\"Stims/Figures/7-J-10-4.bmp\",\"vafa:va\",\"Up\",\"40\",\"9\",\"6\",\"9\",\"C1\",\"J\",\"134\"
\"\",\"\",\"approach-retreat\",\"138\",\"1127227\",\"0.0-138.0\",\"\",\"\",\"1-3\",\"5535\",\"40\",\"0\",\"Training\",\"Stims/Figures/85-C-20-2.bmp\",\"papa:ta\",\"Up\",\"38\",\"9\",\"7\",\"9\",\"P\",\"J\",\"135\"
\"\",\"\",\"approach-retreat\",\"139\",\"1134212\",\"0.0-139.0\",\"\",\"\",\"1-3\",\"5477\",\"40\",\"0\",\"Training\",\"Stims/Figures/27-J-0-1.bmp\",\"fafa:sha\",\"Down\",\"38\",\"9\",\"8\",\"9\",\"C1\",\"J\",\"136\"
\"\",\"\",\"approach-retreat\",\"140\",\"1142042\",\"0.0-140.0\",\"\",\"\",\"1-3\",\"6321\",\"37\",\"1\",\"Training\",\"Stims/Figures/44-C-30-3.bmp\",\"zaha:za\",\"Left\",\"37\",\"9\",\"9\",\"9\",\"C2\",\"J\",\"137\"
\"\",\"\",\"approach-retreat\",\"141\",\"1149034\",\"0.0-141.0\",\"\",\"\",\"1-3\",\"5485\",\"40\",\"0\",\"Training\",\"Stims/Figures/94-J-0-2.bmp\",\"saha:za\",\"Down\",\"38\",\"9\",\"10\",\"9\",\"C2\",\"J\",\"138\"
\"\",\"\",\"approach-retreat\",\"142\",\"1156319\",\"0.0-142.0\",\"\",\"\",\"1-3\",\"5777\",\"39\",\"1\",\"Training\",\"Stims/Figures/128-C-30-3.bmp\",\"malala\",\"Right\",\"39\",\"9\",\"11\",\"9\",\"S\",\"J\",\"139\"
\"\",\"\",\"approach-retreat\",\"143\",\"1166911\",\"0.0-143.0\",\"\",\"\",\"1-3\",\"9082\",\"39\",\"1\",\"Training\",\"Stims/Figures/86-J-0-1.bmp\",\"zahaha\",\"Left\",\"39\",\"9\",\"12\",\"9\",\"C2\",\"J\",\"140\"
\"\",\"\",\"approach-retreat\",\"144\",\"1175486\",\"0.0-144.0\",\"\",\"\",\"1-3\",\"7068\",\"40\",\"1\",\"Training\",\"Stims/Figures/7-C-20-4.bmp\",\"mala:la\",\"Down\",\"40\",\"9\",\"13\",\"9\",\"S\",\"J\",\"141\"
\"\",\"\",\"approach-retreat\",\"145\",\"1182436\",\"0.0-145.0\",\"\",\"\",\"1-3\",\"5442\",\"37\",\"1\",\"Training\",\"Stims/Figures/27-C-30-1.bmp\",\"pa:ka:ka\",\"Left\",\"37\",\"9\",\"14\",\"9\",\"P\",\"J\",\"142\"
\"\",\"\",\"approach-retreat\",\"146\",\"1189001\",\"0.0-146.0\",\"\",\"\",\"1-3\",\"5055\",\"39\",\"0\",\"Training\",\"Stims/Figures/102-J-10-4.bmp\",\"fasha:sha\",\"Right\",\"37\",\"9\",\"15\",\"9\",\"C1\",\"J\",\"143\"
\"\",\"\",\"approach-retreat\",\"147\",\"1195603\",\"0.0-147.0\",\"\",\"\",\"1-3\",\"5093\",\"39\",\"0\",\"Training\",\"Stims/Figures/128-J-10-3.bmp\",\"tapata\",\"Right\",\"37\",\"9\",\"16\",\"9\",\"P\",\"J\",\"144\"
\"29541\",\"\",\"instructions\",\"148\",\"1225144\",\"0.0-148.0\",\"[{\"\"page_index\"\":0,\"\"viewing_time\"\":29540}]\",\"\",\"\",\"\",\"\",\"\",\"\",\"\",\"\",\"\",\"\",\"\",\"\",\"\",\"\",\"\",\"\"
\"\",\"\",\"approach-retreat\",\"149\",\"1235133\",\"0.0-149.0\",\"\",\"\",\"1-3\",\"8485\",\"40\",\"1\",\"Testing\",\"Stims/Figures/19-J-10-4.bmp\",\"vafasha\",\"Up\",\"40\",\"1\",\"1\",\"9\",\"C1\",\"J\",\"1\"
\"\",\"\",\"approach-retreat\",\"150\",\"1244140\",\"0.0-150.0\",\"\",\"\",\"1-3\",\"7498\",\"39\",\"1\",\"Testing\",\"Stims/Figures/44-C-30-3.bmp\",\"zaha:za\",\"Right\",\"39\",\"1\",\"2\",\"9\",\"C2\",\"J\",\"2\"
\"\",\"\",\"approach-retreat\",\"151\",\"1250293\",\"0.0-151.0\",\"\",\"\",\"1-3\",\"4643\",\"38\",\"1\",\"Testing\",\"Stims/Figures/85-C-20-2.bmp\",\"papa:ta\",\"Up\",\"38\",\"1\",\"3\",\"9\",\"P\",\"J\",\"3\"
\"\",\"\",\"approach-retreat\",\"152\",\"1256040\",\"0.0-152.0\",\"\",\"\",\"1-3\",\"4240\",\"38\",\"0\",\"Testing\",\"Stims/Figures/86-C-30-1.bmp\",\"fa:shasha\",\"Down\",\"40\",\"1\",\"4\",\"9\",\"C1\",\"J\",\"4\"
\"\",\"\",\"approach-retreat\",\"153\",\"1262200\",\"0.0-153.0\",\"\",\"\",\"1-3\",\"4654\",\"39\",\"1\",\"Testing\",\"Stims/Figures/128-J-10-3.bmp\",\"tapata\",\"Left\",\"39\",\"1\",\"5\",\"9\",\"P\",\"J\",\"5\"
\"\",\"\",\"approach-retreat\",\"154\",\"1270415\",\"0.0-154.0\",\"\",\"\",\"1-3\",\"6707\",\"40\",\"0\",\"Testing\",\"Stims/Figures/7-J-10-4.bmp\",\"vafa:va\",\"Down\",\"38\",\"1\",\"6\",\"9\",\"C1\",\"J\",\"6\"
\"\",\"\",\"approach-retreat\",\"155\",\"1276875\",\"0.0-155.0\",\"\",\"\",\"1-3\",\"4953\",\"37\",\"0\",\"Testing\",\"Stims/Figures/102-C-20-4.bmp\",\"namala\",\"Right\",\"39\",\"1\",\"7\",\"9\",\"S\",\"J\",\"7\"
\"\",\"\",\"approach-retreat\",\"156\",\"1282809\",\"0.0-156.0\",\"\",\"\",\"1-3\",\"4428\",\"37\",\"1\",\"Testing\",\"Stims/Figures/27-J-0-1.bmp\",\"fafa:sha\",\"Right\",\"37\",\"1\",\"8\",\"9\",\"C1\",\"J\",\"8\"
\"\",\"\",\"approach-retreat\",\"157\",\"1289332\",\"0.0-157.0\",\"\",\"\",\"1-3\",\"5017\",\"38\",\"1\",\"Testing\",\"Stims/Figures/94-J-0-2.bmp\",\"saha:za\",\"Down\",\"38\",\"1\",\"9\",\"9\",\"C2\",\"J\",\"9\"
\"\",\"\",\"approach-retreat\",\"158\",\"1299890\",\"0.0-158.0\",\"\",\"\",\"1-3\",\"9049\",\"37\",\"1\",\"Testing\",\"Stims/Figures/139-J-0-2.bmp\",\"ma:lana\",\"Right\",\"37\",\"1\",\"10\",\"9\",\"S\",\"J\",\"10\"
\"\",\"\",\"approach-retreat\",\"159\",\"1306620\",\"0.0-159.0\",\"\",\"\",\"1-3\",\"5221\",\"38\",\"0\",\"Testing\",\"Stims/Figures/139-C-20-2.bmp\",\"zasa:za\",\"Down\",\"40\",\"1\",\"11\",\"9\",\"C2\",\"J\",\"11\"
\"\",\"\",\"approach-retreat\",\"160\",\"1313782\",\"0.0-160.0\",\"\",\"\",\"1-3\",\"5656\",\"38\",\"0\",\"Testing\",\"Stims/Figures/144-J-10-3.bmp\",\"fafa:va\",\"Up\",\"40\",\"1\",\"12\",\"9\",\"C1\",\"J\",\"12\"
\"\",\"\",\"approach-retreat\",\"161\",\"1320242\",\"0.0-161.0\",\"\",\"\",\"1-3\",\"4953\",\"39\",\"1\",\"Testing\",\"Stims/Figures/85-J-0-2.bmp\",\"pa:kata\",\"Left\",\"39\",\"1\",\"13\",\"9\",\"P\",\"J\",\"13\"
\"\",\"\",\"approach-retreat\",\"162\",\"1327682\",\"0.0-162.0\",\"\",\"\",\"1-3\",\"5932\",\"39\",\"1\",\"Testing\",\"Stims/Figures/128-C-30-3.bmp\",\"malala\",\"Right\",\"39\",\"1\",\"14\",\"9\",\"S\",\"J\",\"14\"
\"\",\"\",\"approach-retreat\",\"163\",\"1335282\",\"0.0-163.0\",\"\",\"\",\"1-3\",\"6092\",\"38\",\"1\",\"Testing\",\"Stims/Figures/27-C-30-1.bmp\",\"pa:ka:ka\",\"Up\",\"38\",\"1\",\"15\",\"9\",\"P\",\"J\",\"15\"
\"\",\"\",\"approach-retreat\",\"164\",\"1342992\",\"0.0-164.0\",\"\",\"\",\"1-3\",\"6204\",\"39\",\"1\",\"Testing\",\"Stims/Figures/57-J-0-1.bmp\",\"ta:pata\",\"Left\",\"39\",\"1\",\"16\",\"9\",\"P\",\"J\",\"16\"
\"\",\"\",\"approach-retreat\",\"165\",\"1351114\",\"0.0-165.0\",\"\",\"\",\"1-3\",\"6614\",\"37\",\"0\",\"Testing\",\"Stims/Figures/44-J-10-3.bmp\",\"saha:ha\",\"Left\",\"39\",\"1\",\"17\",\"9\",\"C2\",\"J\",\"17\"
\"\",\"\",\"approach-retreat\",\"166\",\"1358869\",\"0.0-166.0\",\"\",\"\",\"1-3\",\"6248\",\"39\",\"1\",\"Testing\",\"Stims/Figures/144-C-30-3.bmp\",\"tapaka\",\"Right\",\"39\",\"1\",\"18\",\"9\",\"P\",\"J\",\"18\"
\"\",\"\",\"approach-retreat\",\"167\",\"1368184\",\"0.0-167.0\",\"\",\"\",\"1-3\",\"7803\",\"38\",\"0\",\"Testing\",\"Stims/Figures/102-J-10-4.bmp\",\"fasha:sha\",\"Up\",\"40\",\"1\",\"19\",\"9\",\"C1\",\"J\",\"19\"
\"\",\"\",\"approach-retreat\",\"168\",\"1377234\",\"0.0-168.0\",\"\",\"\",\"1-3\",\"7542\",\"40\",\"1\",\"Testing\",\"Stims/Figures/19-C-20-4.bmp\",\"nala:la\",\"Down\",\"40\",\"1\",\"20\",\"9\",\"S\",\"J\",\"20\"
\"\",\"\",\"approach-retreat\",\"169\",\"1387004\",\"0.0-169.0\",\"\",\"\",\"1-3\",\"8263\",\"37\",\"1\",\"Testing\",\"Stims/Figures/94-C-20-2.bmp\",\"ta:pa:ta\",\"Left\",\"37\",\"1\",\"21\",\"9\",\"P\",\"J\",\"21\"
\"\",\"\",\"approach-retreat\",\"170\",\"1400838\",\"0.0-170.0\",\"\",\"\",\"1-3\",\"12328\",\"40\",\"0\",\"Testing\",\"Stims/Figures/57-C-30-1.bmp\",\"sa:saha\",\"Up\",\"38\",\"1\",\"22\",\"9\",\"C2\",\"J\",\"22\"
\"\",\"\",\"approach-retreat\",\"171\",\"1407428\",\"0.0-171.0\",\"\",\"\",\"1-3\",\"5083\",\"40\",\"1\",\"Testing\",\"Stims/Figures/7-C-20-4.bmp\",\"mala:la\",\"Down\",\"40\",\"1\",\"23\",\"9\",\"S\",\"J\",\"23\"
\"\",\"\",\"approach-retreat\",\"172\",\"1415215\",\"0.0-172.0\",\"\",\"\",\"1-3\",\"6280\",\"37\",\"0\",\"Testing\",\"Stims/Figures/86-J-0-1.bmp\",\"zahaha\",\"Left\",\"39\",\"1\",\"24\",\"9\",\"C2\",\"J\",\"24\"
\"\",\"\",\"approach-retreat\",\"173\",\"1421876\",\"0.0-173.0\",\"\",\"\",\"1-3\",\"5155\",\"38\",\"1\",\"Testing\",\"Stims/Figures/139-J-0-2.bmp\",\"ma:lana\",\"Down\",\"38\",\"2\",\"1\",\"9\",\"S\",\"J\",\"25\"
\"\",\"\",\"approach-retreat\",\"174\",\"1428780\",\"0.0-174.0\",\"\",\"\",\"1-3\",\"5398\",\"38\",\"0\",\"Testing\",\"Stims/Figures/27-J-0-1.bmp\",\"fafa:sha\",\"Up\",\"40\",\"2\",\"2\",\"9\",\"C1\",\"J\",\"26\"
\"\",\"\",\"approach-retreat\",\"175\",\"1437762\",\"0.0-175.0\",\"\",\"\",\"1-3\",\"7477\",\"40\",\"0\",\"Testing\",\"Stims/Figures/128-J-10-3.bmp\",\"tapata\",\"Down\",\"38\",\"2\",\"3\",\"9\",\"P\",\"J\",\"27\"
\"\",\"\",\"approach-retreat\",\"176\",\"1448572\",\"0.0-176.0\",\"\",\"\",\"1-3\",\"9303\",\"40\",\"1\",\"Testing\",\"Stims/Figures/94-C-20-2.bmp\",\"ta:pa:ta\",\"Down\",\"40\",\"2\",\"4\",\"9\",\"P\",\"J\",\"28\"
\"\",\"\",\"approach-retreat\",\"177\",\"1457854\",\"0.0-177.0\",\"\",\"\",\"1-3\",\"7775\",\"37\",\"1\",\"Testing\",\"Stims/Figures/85-J-0-2.bmp\",\"pa:kata\",\"Right\",\"37\",\"2\",\"5\",\"9\",\"P\",\"J\",\"29\"
\"\",\"\",\"approach-retreat\",\"178\",\"1465270\",\"0.0-178.0\",\"\",\"\",\"1-3\",\"5909\",\"40\",\"1\",\"Testing\",\"Stims/Figures/144-C-30-3.bmp\",\"tapaka\",\"Down\",\"40\",\"2\",\"6\",\"9\",\"P\",\"J\",\"30\"
\"\",\"\",\"approach-retreat\",\"179\",\"1474366\",\"0.0-179.0\",\"\",\"\",\"1-3\",\"7596\",\"39\",\"1\",\"Testing\",\"Stims/Figures/44-J-10-3.bmp\",\"saha:ha\",\"Left\",\"39\",\"2\",\"7\",\"9\",\"C2\",\"J\",\"31\"
\"\",\"\",\"approach-retreat\",\"180\",\"1484109\",\"0.0-180.0\",\"\",\"\",\"1-3\",\"8234\",\"39\",\"0\",\"Testing\",\"Stims/Figures/44-C-30-3.bmp\",\"zaha:za\",\"Left\",\"37\",\"2\",\"8\",\"9\",\"C2\",\"J\",\"32\"
\"\",\"\",\"approach-retreat\",\"181\",\"1491304\",\"0.0-181.0\",\"\",\"\",\"1-3\",\"5688\",\"40\",\"1\",\"Testing\",\"Stims/Figures/102-C-20-4.bmp\",\"namala\",\"Down\",\"40\",\"2\",\"9\",\"9\",\"S\",\"J\",\"33\"
\"\",\"\",\"approach-retreat\",\"182\",\"1498752\",\"0.0-182.0\",\"\",\"\",\"1-3\",\"5940\",\"38\",\"0\",\"Testing\",\"Stims/Figures/94-J-0-2.bmp\",\"saha:za\",\"Up\",\"40\",\"2\",\"10\",\"9\",\"C2\",\"J\",\"34\"
\"\",\"\",\"approach-retreat\",\"183\",\"1506476\",\"0.0-183.0\",\"\",\"\",\"1-3\",\"6219\",\"38\",\"1\",\"Testing\",\"Stims/Figures/128-C-30-3.bmp\",\"malala\",\"Up\",\"38\",\"2\",\"11\",\"9\",\"S\",\"J\",\"35\"
\"\",\"\",\"approach-retreat\",\"184\",\"1513858\",\"0.0-184.0\",\"\",\"\",\"1-3\",\"5876\",\"39\",\"0\",\"Testing\",\"Stims/Figures/85-C-20-2.bmp\",\"papa:ta\",\"Left\",\"37\",\"2\",\"12\",\"9\",\"P\",\"J\",\"36\"
\"\",\"\",\"approach-retreat\",\"185\",\"1521319\",\"0.0-185.0\",\"\",\"\",\"1-3\",\"5953\",\"39\",\"1\",\"Testing\",\"Stims/Figures/19-C-20-4.bmp\",\"nala:la\",\"Right\",\"39\",\"2\",\"13\",\"9\",\"S\",\"J\",\"37\"
\"\",\"\",\"approach-retreat\",\"186\",\"1528441\",\"0.0-186.0\",\"\",\"\",\"1-3\",\"5615\",\"40\",\"1\",\"Testing\",\"Stims/Figures/7-J-10-4.bmp\",\"vafa:va\",\"Up\",\"40\",\"2\",\"14\",\"9\",\"C1\",\"J\",\"38\"
\"\",\"\",\"approach-retreat\",\"187\",\"1537734\",\"0.0-187.0\",\"\",\"\",\"1-3\",\"7783\",\"39\",\"1\",\"Testing\",\"Stims/Figures/86-J-0-1.bmp\",\"zahaha\",\"Left\",\"39\",\"2\",\"15\",\"9\",\"C2\",\"J\",\"39\"
\"\",\"\",\"approach-retreat\",\"188\",\"1545842\",\"0.0-188.0\",\"\",\"\",\"1-3\",\"6599\",\"38\",\"1\",\"Testing\",\"Stims/Figures/27-C-30-1.bmp\",\"pa:ka:ka\",\"Up\",\"38\",\"2\",\"16\",\"9\",\"P\",\"J\",\"40\"
\"\",\"\",\"approach-retreat\",\"189\",\"1555747\",\"0.0-189.0\",\"\",\"\",\"1-3\",\"8397\",\"39\",\"0\",\"Testing\",\"Stims/Figures/19-J-10-4.bmp\",\"vafasha\",\"Right\",\"37\",\"2\",\"17\",\"9\",\"C1\",\"J\",\"41\"
\"\",\"\",\"approach-retreat\",\"190\",\"1561689\",\"0.0-190.0\",\"\",\"\",\"1-3\",\"4435\",\"40\",\"1\",\"Testing\",\"Stims/Figures/7-C-20-4.bmp\",\"mala:la\",\"Down\",\"40\",\"2\",\"18\",\"9\",\"S\",\"J\",\"42\"
\"\",\"\",\"approach-retreat\",\"191\",\"1568842\",\"0.0-191.0\",\"\",\"\",\"1-3\",\"5645\",\"39\",\"0\",\"Testing\",\"Stims/Figures/86-C-30-1.bmp\",\"fa:shasha\",\"Left\",\"37\",\"2\",\"19\",\"9\",\"C1\",\"J\",\"43\"
\"\",\"\",\"approach-retreat\",\"192\",\"1575870\",\"0.0-192.0\",\"\",\"\",\"1-3\",\"5519\",\"39\",\"1\",\"Testing\",\"Stims/Figures/57-C-30-1.bmp\",\"sa:saha\",\"Right\",\"39\",\"2\",\"20\",\"9\",\"C2\",\"J\",\"44\"
\"\",\"\",\"approach-retreat\",\"193\",\"1583959\",\"0.0-193.0\",\"\",\"\",\"1-3\",\"6583\",\"37\",\"0\",\"Testing\",\"Stims/Figures/144-J-10-3.bmp\",\"fafa:va\",\"Left\",\"39\",\"2\",\"21\",\"9\",\"C1\",\"J\",\"45\"
\"\",\"\",\"approach-retreat\",\"194\",\"1592284\",\"0.0-194.0\",\"\",\"\",\"1-3\",\"6819\",\"39\",\"0\",\"Testing\",\"Stims/Figures/102-J-10-4.bmp\",\"fasha:sha\",\"Right\",\"37\",\"2\",\"22\",\"9\",\"C1\",\"J\",\"46\"
\"\",\"\",\"approach-retreat\",\"195\",\"1599378\",\"0.0-195.0\",\"\",\"\",\"1-3\",\"5588\",\"40\",\"1\",\"Testing\",\"Stims/Figures/57-J-0-1.bmp\",\"ta:pata\",\"Up\",\"40\",\"2\",\"23\",\"9\",\"P\",\"J\",\"47\"
\"\",\"\",\"approach-retreat\",\"196\",\"1606410\",\"0.0-196.0\",\"\",\"\",\"1-3\",\"5526\",\"39\",\"1\",\"Testing\",\"Stims/Figures/139-C-20-2.bmp\",\"zasa:za\",\"Right\",\"39\",\"2\",\"24\",\"9\",\"C2\",\"J\",\"48\"
\"\",\"\",\"approach-retreat\",\"197\",\"1613583\",\"0.0-197.0\",\"\",\"\",\"1-3\",\"5665\",\"39\",\"1\",\"Testing\",\"Stims/Figures/44-C-30-3.bmp\",\"zaha:za\",\"Right\",\"39\",\"3\",\"1\",\"9\",\"C2\",\"J\",\"49\"
\"\",\"\",\"approach-retreat\",\"198\",\"1621349\",\"0.0-198.0\",\"\",\"\",\"1-3\",\"6261\",\"37\",\"0\",\"Testing\",\"Stims/Figures/139-J-0-2.bmp\",\"ma:lana\",\"Left\",\"39\",\"3\",\"2\",\"9\",\"S\",\"J\",\"50\"
\"\",\"\",\"approach-retreat\",\"199\",\"1628127\",\"0.0-199.0\",\"\",\"\",\"1-3\",\"5269\",\"39\",\"1\",\"Testing\",\"Stims/Figures/57-C-30-1.bmp\",\"sa:saha\",\"Right\",\"39\",\"3\",\"3\",\"9\",\"C2\",\"J\",\"51\"
\"\",\"\",\"approach-retreat\",\"200\",\"1638350\",\"0.0-200.0\",\"\",\"\",\"1-3\",\"8715\",\"40\",\"1\",\"Testing\",\"Stims/Figures/7-C-20-4.bmp\",\"mala:la\",\"Down\",\"40\",\"3\",\"4\",\"9\",\"S\",\"J\",\"52\"
\"\",\"\",\"approach-retreat\",\"201\",\"1649875\",\"0.0-201.0\",\"\",\"\",\"1-3\",\"10019\",\"37\",\"1\",\"Testing\",\"Stims/Figures/86-C-30-1.bmp\",\"fa:shasha\",\"Left\",\"37\",\"3\",\"5\",\"9\",\"C1\",\"J\",\"53\"
\"\",\"\",\"approach-retreat\",\"202\",\"1657212\",\"0.0-202.0\",\"\",\"\",\"1-3\",\"5829\",\"39\",\"1\",\"Testing\",\"Stims/Figures/85-C-20-2.bmp\",\"papa:ta\",\"Right\",\"39\",\"3\",\"6\",\"9\",\"P\",\"J\",\"54\"
\"\",\"\",\"approach-retreat\",\"203\",\"1663444\",\"0.0-203.0\",\"\",\"\",\"1-3\",\"4725\",\"39\",\"1\",\"Testing\",\"Stims/Figures/86-J-0-1.bmp\",\"zahaha\",\"Left\",\"39\",\"3\",\"7\",\"9\",\"C2\",\"J\",\"55\"
\"\",\"\",\"approach-retreat\",\"204\",\"1669354\",\"0.0-204.0\",\"\",\"\",\"1-3\",\"4401\",\"39\",\"1\",\"Testing\",\"Stims/Figures/94-J-0-2.bmp\",\"saha:za\",\"Left\",\"39\",\"3\",\"8\",\"9\",\"C2\",\"J\",\"56\"
\"\",\"\",\"approach-retreat\",\"205\",\"1676756\",\"0.0-205.0\",\"\",\"\",\"1-3\",\"5896\",\"40\",\"0\",\"Testing\",\"Stims/Figures/144-J-10-3.bmp\",\"fafa:va\",\"Down\",\"38\",\"3\",\"9\",\"9\",\"C1\",\"J\",\"57\"
\"\",\"\",\"approach-retreat\",\"206\",\"1683466\",\"0.0-206.0\",\"\",\"\",\"1-3\",\"5203\",\"40\",\"1\",\"Testing\",\"Stims/Figures/144-C-30-3.bmp\",\"tapaka\",\"Down\",\"40\",\"3\",\"10\",\"9\",\"P\",\"J\",\"58\"
\"\",\"\",\"approach-retreat\",\"207\",\"1690696\",\"0.0-207.0\",\"\",\"\",\"1-3\",\"5722\",\"38\",\"1\",\"Testing\",\"Stims/Figures/27-C-30-1.bmp\",\"pa:ka:ka\",\"Up\",\"38\",\"3\",\"11\",\"9\",\"P\",\"J\",\"59\"
\"\",\"\",\"approach-retreat\",\"208\",\"1699779\",\"0.0-208.0\",\"\",\"\",\"1-3\",\"7575\",\"39\",\"1\",\"Testing\",\"Stims/Figures/19-C-20-4.bmp\",\"nala:la\",\"Right\",\"39\",\"3\",\"12\",\"9\",\"S\",\"J\",\"60\"
\"\",\"\",\"approach-retreat\",\"209\",\"1706086\",\"0.0-209.0\",\"\",\"\",\"1-3\",\"4800\",\"39\",\"1\",\"Testing\",\"Stims/Figures/102-C-20-4.bmp\",\"namala\",\"Right\",\"39\",\"3\",\"13\",\"9\",\"S\",\"J\",\"61\"
\"\",\"\",\"approach-retreat\",\"210\",\"1716621\",\"0.0-210.0\",\"\",\"\",\"1-3\",\"9028\",\"38\",\"0\",\"Testing\",\"Stims/Figures/57-J-0-1.bmp\",\"ta:pata\",\"Up\",\"40\",\"3\",\"14\",\"9\",\"P\",\"J\",\"62\"
\"\",\"\",\"approach-retreat\",\"211\",\"1722058\",\"0.0-211.0\",\"\",\"\",\"1-3\",\"3928\",\"38\",\"0\",\"Testing\",\"Stims/Figures/27-J-0-1.bmp\",\"fafa:sha\",\"Up\",\"40\",\"3\",\"15\",\"9\",\"C1\",\"J\",\"63\"
\"\",\"\",\"approach-retreat\",\"212\",\"1728812\",\"0.0-212.0\",\"\",\"\",\"1-3\",\"5247\",\"39\",\"0\",\"Testing\",\"Stims/Figures/128-C-30-3.bmp\",\"malala\",\"Left\",\"37\",\"3\",\"16\",\"9\",\"S\",\"J\",\"64\"
\"\",\"\",\"approach-retreat\",\"213\",\"1736445\",\"0.0-213.0\",\"\",\"\",\"1-3\",\"6124\",\"38\",\"0\",\"Testing\",\"Stims/Figures/102-J-10-4.bmp\",\"fasha:sha\",\"Up\",\"40\",\"3\",\"17\",\"9\",\"C1\",\"J\",\"65\"
\"\",\"\",\"approach-retreat\",\"214\",\"1742792\",\"0.0-214.0\",\"\",\"\",\"1-3\",\"4840\",\"39\",\"0\",\"Testing\",\"Stims/Figures/94-C-20-2.bmp\",\"ta:pa:ta\",\"Left\",\"37\",\"3\",\"18\",\"9\",\"P\",\"J\",\"66\"
\"\",\"\",\"approach-retreat\",\"215\",\"1748542\",\"0.0-215.0\",\"\",\"\",\"1-3\",\"4242\",\"40\",\"0\",\"Testing\",\"Stims/Figures/128-J-10-3.bmp\",\"tapata\",\"Down\",\"38\",\"3\",\"19\",\"9\",\"P\",\"J\",\"67\"
\"\",\"\",\"approach-retreat\",\"216\",\"1754122\",\"0.0-216.0\",\"\",\"\",\"1-3\",\"4073\",\"40\",\"0\",\"Testing\",\"Stims/Figures/44-J-10-3.bmp\",\"saha:ha\",\"Down\",\"38\",\"3\",\"20\",\"9\",\"C2\",\"J\",\"68\"
\"\",\"\",\"approach-retreat\",\"217\",\"1759792\",\"0.0-217.0\",\"\",\"\",\"1-3\",\"4163\",\"38\",\"0\",\"Testing\",\"Stims/Figures/19-J-10-4.bmp\",\"vafasha\",\"Up\",\"40\",\"3\",\"21\",\"9\",\"C1\",\"J\",\"69\"
\"\",\"\",\"approach-retreat\",\"218\",\"1765592\",\"0.0-218.0\",\"\",\"\",\"1-3\",\"4293\",\"39\",\"1\",\"Testing\",\"Stims/Figures/139-C-20-2.bmp\",\"zasa:za\",\"Right\",\"39\",\"3\",\"22\",\"9\",\"C2\",\"J\",\"70\"
\"\",\"\",\"approach-retreat\",\"219\",\"1773362\",\"0.0-219.0\",\"\",\"\",\"1-3\",\"6263\",\"38\",\"0\",\"Testing\",\"Stims/Figures/85-J-0-2.bmp\",\"pa:kata\",\"Up\",\"40\",\"3\",\"23\",\"9\",\"P\",\"J\",\"71\"
\"\",\"\",\"approach-retreat\",\"220\",\"1779777\",\"0.0-220.0\",\"\",\"\",\"1-3\",\"4907\",\"38\",\"1\",\"Testing\",\"Stims/Figures/7-J-10-4.bmp\",\"vafa:va\",\"Down\",\"38\",\"3\",\"24\",\"9\",\"C1\",\"J\",\"72\"
\"\",\"\",\"approach-retreat\",\"221\",\"1785553\",\"0.0-221.0\",\"\",\"\",\"1-3\",\"4269\",\"38\",\"1\",\"Testing\",\"Stims/Figures/86-C-30-1.bmp\",\"fa:shasha\",\"Up\",\"38\",\"4\",\"1\",\"9\",\"C1\",\"J\",\"73\"
\"\",\"\",\"approach-retreat\",\"222\",\"1792743\",\"0.0-222.0\",\"\",\"\",\"1-3\",\"5682\",\"39\",\"0\",\"Testing\",\"Stims/Figures/94-J-0-2.bmp\",\"saha:za\",\"Right\",\"37\",\"4\",\"2\",\"9\",\"C2\",\"J\",\"74\"
\"\",\"\",\"approach-retreat\",\"223\",\"1798616\",\"0.0-223.0\",\"\",\"\",\"1-3\",\"4364\",\"39\",\"1\",\"Testing\",\"Stims/Figures/27-J-0-1.bmp\",\"fafa:sha\",\"Left\",\"39\",\"4\",\"3\",\"9\",\"C1\",\"J\",\"75\"
\"\",\"\",\"approach-retreat\",\"224\",\"1804408\",\"0.0-224.0\",\"\",\"\",\"1-3\",\"4284\",\"39\",\"1\",\"Testing\",\"Stims/Figures/57-J-0-1.bmp\",\"ta:pata\",\"Left\",\"39\",\"4\",\"4\",\"9\",\"P\",\"J\",\"76\"
\"\",\"\",\"approach-retreat\",\"225\",\"1810151\",\"0.0-225.0\",\"\",\"\",\"1-3\",\"4234\",\"39\",\"0\",\"Testing\",\"Stims/Figures/7-J-10-4.bmp\",\"vafa:va\",\"Right\",\"37\",\"4\",\"5\",\"9\",\"C1\",\"J\",\"77\"
\"\",\"\",\"approach-retreat\",\"226\",\"1815858\",\"0.0-226.0\",\"\",\"\",\"1-3\",\"4201\",\"39\",\"0\",\"Testing\",\"Stims/Figures/57-C-30-1.bmp\",\"sa:saha\",\"Left\",\"37\",\"4\",\"6\",\"9\",\"C2\",\"J\",\"78\"
\"\",\"\",\"approach-retreat\",\"227\",\"1822308\",\"0.0-227.0\",\"\",\"\",\"1-3\",\"4942\",\"37\",\"0\",\"Testing\",\"Stims/Figures/86-J-0-1.bmp\",\"zahaha\",\"Left\",\"39\",\"4\",\"7\",\"9\",\"C2\",\"J\",\"79\"
\"\",\"\",\"approach-retreat\",\"228\",\"1829051\",\"0.0-228.0\",\"\",\"\",\"1-3\",\"5237\",\"38\",\"1\",\"Testing\",\"Stims/Figures/102-J-10-4.bmp\",\"fasha:sha\",\"Down\",\"38\",\"4\",\"8\",\"9\",\"C1\",\"J\",\"80\"
\"\",\"\",\"approach-retreat\",\"229\",\"1836323\",\"0.0-229.0\",\"\",\"\",\"1-3\",\"5765\",\"37\",\"0\",\"Testing\",\"Stims/Figures/128-C-30-3.bmp\",\"malala\",\"Right\",\"39\",\"4\",\"9\",\"9\",\"S\",\"J\",\"81\"
\"\",\"\",\"approach-retreat\",\"230\",\"1842375\",\"0.0-230.0\",\"\",\"\",\"1-3\",\"4544\",\"38\",\"1\",\"Testing\",\"Stims/Figures/144-J-10-3.bmp\",\"fafa:va\",\"Down\",\"38\",\"4\",\"10\",\"9\",\"C1\",\"J\",\"82\"
\"\",\"\",\"approach-retreat\",\"231\",\"1848085\",\"0.0-231.0\",\"\",\"\",\"1-3\",\"4202\",\"38\",\"1\",\"Testing\",\"Stims/Figures/139-C-20-2.bmp\",\"zasa:za\",\"Up\",\"38\",\"4\",\"11\",\"9\",\"C2\",\"J\",\"83\"
\"\",\"\",\"approach-retreat\",\"232\",\"1853700\",\"0.0-232.0\",\"\",\"\",\"1-3\",\"4107\",\"38\",\"0\",\"Testing\",\"Stims/Figures/94-C-20-2.bmp\",\"ta:pa:ta\",\"Down\",\"40\",\"4\",\"12\",\"9\",\"P\",\"J\",\"84\"
\"\",\"\",\"approach-retreat\",\"233\",\"1859318\",\"0.0-233.0\",\"\",\"\",\"1-3\",\"4109\",\"38\",\"1\",\"Testing\",\"Stims/Figures/85-C-20-2.bmp\",\"papa:ta\",\"Up\",\"38\",\"4\",\"13\",\"9\",\"P\",\"J\",\"85\"
\"\",\"\",\"approach-retreat\",\"234\",\"1865135\",\"0.0-234.0\",\"\",\"\",\"1-3\",\"4311\",\"39\",\"1\",\"Testing\",\"Stims/Figures/102-C-20-4.bmp\",\"namala\",\"Right\",\"39\",\"4\",\"14\",\"9\",\"S\",\"J\",\"86\"
\"\",\"\",\"approach-retreat\",\"235\",\"1870594\",\"0.0-235.0\",\"\",\"\",\"1-3\",\"3953\",\"37\",\"0\",\"Testing\",\"Stims/Figures/85-J-0-2.bmp\",\"pa:kata\",\"Left\",\"39\",\"4\",\"15\",\"9\",\"P\",\"J\",\"87\"
\"\",\"\",\"approach-retreat\",\"236\",\"1878182\",\"0.0-236.0\",\"\",\"\",\"1-3\",\"6081\",\"39\",\"1\",\"Testing\",\"Stims/Figures/144-C-30-3.bmp\",\"tapaka\",\"Right\",\"39\",\"4\",\"16\",\"9\",\"P\",\"J\",\"88\"
\"\",\"\",\"approach-retreat\",\"237\",\"1886639\",\"0.0-237.0\",\"\",\"\",\"1-3\",\"6951\",\"40\",\"1\",\"Testing\",\"Stims/Figures/27-C-30-1.bmp\",\"pa:ka:ka\",\"Down\",\"40\",\"4\",\"17\",\"9\",\"P\",\"J\",\"89\"
\"\",\"\",\"approach-retreat\",\"238\",\"1892407\",\"0.0-238.0\",\"\",\"\",\"1-3\",\"4261\",\"40\",\"1\",\"Testing\",\"Stims/Figures/7-C-20-4.bmp\",\"mala:la\",\"Down\",\"40\",\"4\",\"18\",\"9\",\"S\",\"J\",\"90\"
\"\",\"\",\"approach-retreat\",\"239\",\"1898336\",\"0.0-239.0\",\"\",\"\",\"1-3\",\"4424\",\"37\",\"0\",\"Testing\",\"Stims/Figures/44-J-10-3.bmp\",\"saha:ha\",\"Left\",\"39\",\"4\",\"19\",\"9\",\"C2\",\"J\",\"91\"
\"\",\"\",\"approach-retreat\",\"240\",\"1904086\",\"0.0-240.0\",\"\",\"\",\"1-3\",\"4241\",\"38\",\"0\",\"Testing\",\"Stims/Figures/19-J-10-4.bmp\",\"vafasha\",\"Up\",\"40\",\"4\",\"20\",\"9\",\"C1\",\"J\",\"92\"
\"\",\"\",\"approach-retreat\",\"241\",\"1909838\",\"0.0-241.0\",\"\",\"\",\"1-3\",\"4245\",\"38\",\"0\",\"Testing\",\"Stims/Figures/128-J-10-3.bmp\",\"tapata\",\"Up\",\"40\",\"4\",\"21\",\"9\",\"P\",\"J\",\"93\"
\"\",\"\",\"approach-retreat\",\"242\",\"1915800\",\"0.0-242.0\",\"\",\"\",\"1-3\",\"4456\",\"39\",\"0\",\"Testing\",\"Stims/Figures/139-J-0-2.bmp\",\"ma:lana\",\"Right\",\"37\",\"4\",\"22\",\"9\",\"S\",\"J\",\"94\"
\"\",\"\",\"approach-retreat\",\"243\",\"1921875\",\"0.0-243.0\",\"\",\"\",\"1-3\",\"4568\",\"38\",\"1\",\"Testing\",\"Stims/Figures/44-C-30-3.bmp\",\"zaha:za\",\"Up\",\"38\",\"4\",\"23\",\"9\",\"C2\",\"J\",\"95\"
\"\",\"\",\"approach-retreat\",\"244\",\"1927765\",\"0.0-244.0\",\"\",\"\",\"1-3\",\"4384\",\"38\",\"0\",\"Testing\",\"Stims/Figures/19-C-20-4.bmp\",\"nala:la\",\"Down\",\"40\",\"4\",\"24\",\"9\",\"S\",\"J\",\"96\"
\"61894\",\"\",\"survey-text\",\"245\",\"1989664\",\"0.0-245.0\",\"\",\"{\"\"Q0\"\":\"\"1253\"\"}\",\"\",\"\",\"\",\"\",\"\",\"\",\"\",\"\",\"\",\"\",\"\",\"\",\"\",\"\",\"\"
