\"rt\",\"key_press\",\"trial_type\",\"trial_index\",\"time_elapsed\",\"internal_node_id\",\"view_history\",\"responses\",\"Id\",\"Rt\",\"ResKeyCode\",\"ResCorr\",\"TrialType2\",\"Image\",\"Label\",\"Location\",\"CorrectResponse\",\"Block\",\"BlockTrial\",\"Condition\",\"LabelType\",\"Subcondition\",\"trialNum\"
\"32304\",\"32\",\"text\",\"0\",\"32311\",\"0.0-0.0-0.0\",\"\",\"\",\"\",\"\",\"\",\"\",\"\",\"\",\"\",\"\",\"\",\"\",\"\",\"\",\"\",\"\",\"\"
\"85845\",\"\",\"instructions\",\"1\",\"118160\",\"0.0-1.0\",\"[{\"\"page_index\"\":0,\"\"viewing_time\"\":85844}]\",\"\",\"\",\"\",\"\",\"\",\"\",\"\",\"\",\"\",\"\",\"\",\"\",\"\",\"\",\"\",\"\"
\"23561\",\"\",\"survey-multi-choice\",\"2\",\"141791\",\"0.0-2.0\",\"\",\"{\"\"Q0\"\":\"\"Da\"\",\"\"Q1\"\":\"\"Da\"\",\"\"Q2\"\":\"\"Da\"\",\"\"Q3\"\":\"\"Da\"\",\"\"Q4\"\":\"\"Da\"\",\"\"Q5\"\":\"\"Da\"\"}\",\"\",\"\",\"\",\"\",\"\",\"\",\"\",\"\",\"\",\"\",\"\",\"\",\"\",\"\",\"\"
\"\",\"\",\"bio\",\"3\",\"151978\",\"0.0-3.0\",\"\",\"{\"\"age\"\":\"\"21\"\",\"\"gender\"\":\"\"f\"\",\"\"specify\"\":\"\"\"\"}\",\"\",\"\",\"\",\"\",\"\",\"\",\"\",\"\",\"\",\"\",\"\",\"\",\"\",\"\",\"\"
\"\",\"\",\"approach-retreat\",\"4\",\"162396\",\"0.0-4.0\",\"\",\"\",\"3-5\",\"8894\",\"37\",\"0\",\"Training\",\"Stims/Figures/86-J-0-1.bmp\",\"fa:fa:va\",\"Right\",\"39\",\"1\",\"1\",\"6A\",\"C1\",\"C\",\"1\"
\"\",\"\",\"approach-retreat\",\"5\",\"170805\",\"0.0-5.0\",\"\",\"\",\"3-5\",\"6878\",\"37\",\"0\",\"Training\",\"Stims/Figures/44-J-10-3.bmp\",\"fa:fa:sha\",\"Right\",\"39\",\"1\",\"2\",\"6A\",\"C1\",\"C\",\"2\"
\"\",\"\",\"approach-retreat\",\"6\",\"178240\",\"0.0-6.0\",\"\",\"\",\"3-5\",\"5908\",\"39\",\"1\",\"Training\",\"Stims/Figures/74-C-20-4.bmp\",\"zaha:za\",\"Left\",\"39\",\"1\",\"3\",\"6A\",\"C2\",\"C\",\"3\"
\"\",\"\",\"approach-retreat\",\"7\",\"185240\",\"0.0-7.0\",\"\",\"\",\"3-5\",\"5480\",\"40\",\"0\",\"Training\",\"Stims/Figures/139-J-0-2.bmp\",\"fa:shava\",\"Up\",\"38\",\"1\",\"4\",\"6A\",\"C1\",\"C\",\"4\"
\"\",\"\",\"approach-retreat\",\"8\",\"191955\",\"0.0-8.0\",\"\",\"\",\"3-5\",\"5195\",\"37\",\"0\",\"Training\",\"Stims/Figures/57-J-0-1.bmp\",\"vashasha\",\"Right\",\"39\",\"1\",\"5\",\"6A\",\"C1\",\"C\",\"5\"
\"\",\"\",\"approach-retreat\",\"9\",\"198467\",\"0.0-9.0\",\"\",\"\",\"3-5\",\"4986\",\"40\",\"1\",\"Training\",\"Stims/Figures/139-C-20-2.bmp\",\"sasa:za\",\"Up\",\"40\",\"1\",\"6\",\"6A\",\"C2\",\"C\",\"6\"
\"\",\"\",\"approach-retreat\",\"10\",\"205486\",\"0.0-10.0\",\"\",\"\",\"3-5\",\"5501\",\"37\",\"1\",\"Training\",\"Stims/Figures/144-J-10-3.bmp\",\"vafasha\",\"Left\",\"37\",\"1\",\"7\",\"6A\",\"C1\",\"C\",\"7\"
\"\",\"\",\"approach-retreat\",\"11\",\"212673\",\"0.0-11.0\",\"\",\"\",\"3-5\",\"5671\",\"38\",\"1\",\"Training\",\"Stims/Figures/74-J-10-4.bmp\",\"fafa:sha\",\"Up\",\"38\",\"1\",\"8\",\"6A\",\"C1\",\"C\",\"8\"
\"\",\"\",\"approach-retreat\",\"12\",\"218626\",\"0.0-12.0\",\"\",\"\",\"3-5\",\"4431\",\"40\",\"1\",\"Training\",\"Stims/Figures/57-C-30-1.bmp\",\"sa:haza\",\"Up\",\"40\",\"1\",\"9\",\"6A\",\"C2\",\"C\",\"9\"
\"\",\"\",\"approach-retreat\",\"13\",\"225396\",\"0.0-13.0\",\"\",\"\",\"3-5\",\"5241\",\"39\",\"1\",\"Training\",\"Stims/Figures/7-C-20-4.bmp\",\"zasaza\",\"Left\",\"39\",\"1\",\"10\",\"6A\",\"C2\",\"C\",\"10\"
\"\",\"\",\"approach-retreat\",\"14\",\"232149\",\"0.0-14.0\",\"\",\"\",\"3-5\",\"5233\",\"39\",\"1\",\"Training\",\"Stims/Figures/84-J-0-2.bmp\",\"fasha:sha\",\"Right\",\"39\",\"1\",\"11\",\"6A\",\"C1\",\"C\",\"11\"
\"\",\"\",\"approach-retreat\",\"15\",\"239918\",\"0.0-15.0\",\"\",\"\",\"3-5\",\"6252\",\"38\",\"0\",\"Training\",\"Stims/Figures/7-J-10-4.bmp\",\"va:fa:va\",\"Down\",\"40\",\"1\",\"12\",\"6A\",\"C1\",\"C\",\"12\"
\"\",\"\",\"approach-retreat\",\"16\",\"246311\",\"0.0-16.0\",\"\",\"\",\"3-5\",\"4871\",\"38\",\"1\",\"Training\",\"Stims/Figures/144-C-30-3.bmp\",\"sahaha\",\"Down\",\"38\",\"1\",\"13\",\"6A\",\"C2\",\"C\",\"13\"
\"\",\"\",\"approach-retreat\",\"17\",\"252448\",\"0.0-17.0\",\"\",\"\",\"3-5\",\"4614\",\"38\",\"1\",\"Training\",\"Stims/Figures/84-C-20-2.bmp\",\"za:sa:za\",\"Down\",\"38\",\"1\",\"14\",\"6A\",\"C2\",\"C\",\"14\"
\"\",\"\",\"approach-retreat\",\"18\",\"258371\",\"0.0-18.0\",\"\",\"\",\"3-5\",\"4404\",\"37\",\"0\",\"Training\",\"Stims/Figures/44-C-30-3.bmp\",\"za:haza\",\"Left\",\"39\",\"1\",\"15\",\"6A\",\"C2\",\"C\",\"15\"
\"\",\"\",\"approach-retreat\",\"19\",\"264270\",\"0.0-19.0\",\"\",\"\",\"3-5\",\"4378\",\"38\",\"1\",\"Training\",\"Stims/Figures/86-C-30-1.bmp\",\"za:ha:za\",\"Down\",\"38\",\"1\",\"16\",\"6A\",\"C2\",\"C\",\"16\"
\"\",\"\",\"approach-retreat\",\"20\",\"270156\",\"0.0-20.0\",\"\",\"\",\"3-5\",\"4369\",\"37\",\"1\",\"Training\",\"Stims/Figures/7-C-20-4.bmp\",\"zasaza\",\"Right\",\"37\",\"2\",\"1\",\"6A\",\"C2\",\"C\",\"17\"
\"\",\"\",\"approach-retreat\",\"21\",\"276140\",\"0.0-21.0\",\"\",\"\",\"3-5\",\"4466\",\"39\",\"1\",\"Training\",\"Stims/Figures/84-C-20-2.bmp\",\"za:sa:za\",\"Left\",\"39\",\"2\",\"2\",\"6A\",\"C2\",\"C\",\"18\"
\"\",\"\",\"approach-retreat\",\"22\",\"282385\",\"0.0-22.0\",\"\",\"\",\"3-5\",\"4719\",\"39\",\"1\",\"Training\",\"Stims/Figures/74-J-10-4.bmp\",\"fafa:sha\",\"Right\",\"39\",\"2\",\"3\",\"6A\",\"C1\",\"C\",\"19\"
\"\",\"\",\"approach-retreat\",\"23\",\"288797\",\"0.0-23.0\",\"\",\"\",\"3-5\",\"4889\",\"39\",\"1\",\"Training\",\"Stims/Figures/144-J-10-3.bmp\",\"vafasha\",\"Right\",\"39\",\"2\",\"4\",\"6A\",\"C1\",\"C\",\"20\"
\"\",\"\",\"approach-retreat\",\"24\",\"294785\",\"0.0-24.0\",\"\",\"\",\"3-5\",\"4474\",\"38\",\"1\",\"Training\",\"Stims/Figures/84-J-0-2.bmp\",\"fasha:sha\",\"Up\",\"38\",\"2\",\"5\",\"6A\",\"C1\",\"C\",\"21\"
\"\",\"\",\"approach-retreat\",\"25\",\"301135\",\"0.0-25.0\",\"\",\"\",\"3-5\",\"4821\",\"37\",\"0\",\"Training\",\"Stims/Figures/139-C-20-2.bmp\",\"sasa:za\",\"Left\",\"39\",\"2\",\"6\",\"6A\",\"C2\",\"C\",\"22\"
\"\",\"\",\"approach-retreat\",\"26\",\"310319\",\"0.0-26.0\",\"\",\"\",\"3-5\",\"7670\",\"39\",\"1\",\"Training\",\"Stims/Figures/57-J-0-1.bmp\",\"vashasha\",\"Right\",\"39\",\"2\",\"7\",\"6A\",\"C1\",\"C\",\"23\"
\"\",\"\",\"approach-retreat\",\"27\",\"316434\",\"0.0-27.0\",\"\",\"\",\"3-5\",\"4592\",\"38\",\"0\",\"Training\",\"Stims/Figures/57-C-30-1.bmp\",\"sa:haza\",\"Up\",\"40\",\"2\",\"8\",\"6A\",\"C2\",\"C\",\"24\"
\"\",\"\",\"approach-retreat\",\"28\",\"323890\",\"0.0-28.0\",\"\",\"\",\"3-5\",\"5942\",\"38\",\"0\",\"Training\",\"Stims/Figures/139-J-0-2.bmp\",\"fa:shava\",\"Down\",\"40\",\"2\",\"9\",\"6A\",\"C1\",\"C\",\"25\"
\"\",\"\",\"approach-retreat\",\"29\",\"329998\",\"0.0-29.0\",\"\",\"\",\"3-5\",\"4579\",\"39\",\"0\",\"Training\",\"Stims/Figures/86-J-0-1.bmp\",\"fa:fa:va\",\"Left\",\"37\",\"2\",\"10\",\"6A\",\"C1\",\"C\",\"26\"
\"\",\"\",\"approach-retreat\",\"30\",\"335842\",\"0.0-30.0\",\"\",\"\",\"3-5\",\"4325\",\"38\",\"0\",\"Training\",\"Stims/Figures/7-J-10-4.bmp\",\"va:fa:va\",\"Down\",\"40\",\"2\",\"11\",\"6A\",\"C1\",\"C\",\"27\"
\"\",\"\",\"approach-retreat\",\"31\",\"341685\",\"0.0-31.0\",\"\",\"\",\"3-5\",\"4318\",\"40\",\"1\",\"Training\",\"Stims/Figures/86-C-30-1.bmp\",\"za:ha:za\",\"Up\",\"40\",\"2\",\"12\",\"6A\",\"C2\",\"C\",\"28\"
\"\",\"\",\"approach-retreat\",\"32\",\"347471\",\"0.0-32.0\",\"\",\"\",\"3-5\",\"4272\",\"37\",\"1\",\"Training\",\"Stims/Figures/44-J-10-3.bmp\",\"fa:fa:sha\",\"Left\",\"37\",\"2\",\"13\",\"6A\",\"C1\",\"C\",\"29\"
\"\",\"\",\"approach-retreat\",\"33\",\"353259\",\"0.0-33.0\",\"\",\"\",\"3-5\",\"4266\",\"40\",\"1\",\"Training\",\"Stims/Figures/144-C-30-3.bmp\",\"sahaha\",\"Up\",\"40\",\"2\",\"14\",\"6A\",\"C2\",\"C\",\"30\"
\"\",\"\",\"approach-retreat\",\"34\",\"358998\",\"0.0-34.0\",\"\",\"\",\"3-5\",\"4219\",\"38\",\"1\",\"Training\",\"Stims/Figures/74-C-20-4.bmp\",\"zaha:za\",\"Down\",\"38\",\"2\",\"15\",\"6A\",\"C2\",\"C\",\"31\"
\"\",\"\",\"approach-retreat\",\"35\",\"364674\",\"0.0-35.0\",\"\",\"\",\"3-5\",\"4155\",\"38\",\"1\",\"Training\",\"Stims/Figures/44-C-30-3.bmp\",\"za:haza\",\"Down\",\"38\",\"2\",\"16\",\"6A\",\"C2\",\"C\",\"32\"
\"\",\"\",\"approach-retreat\",\"36\",\"370562\",\"0.0-36.0\",\"\",\"\",\"3-5\",\"4373\",\"37\",\"1\",\"Training\",\"Stims/Figures/44-J-10-3.bmp\",\"fa:fa:sha\",\"Left\",\"37\",\"3\",\"1\",\"6A\",\"C1\",\"C\",\"33\"
\"\",\"\",\"approach-retreat\",\"37\",\"376769\",\"0.0-37.0\",\"\",\"\",\"3-5\",\"4684\",\"37\",\"0\",\"Training\",\"Stims/Figures/86-J-0-1.bmp\",\"fa:fa:va\",\"Right\",\"39\",\"3\",\"2\",\"6A\",\"C1\",\"C\",\"34\"
\"\",\"\",\"approach-retreat\",\"38\",\"382534\",\"0.0-38.0\",\"\",\"\",\"3-5\",\"4239\",\"37\",\"1\",\"Training\",\"Stims/Figures/84-J-0-2.bmp\",\"fasha:sha\",\"Left\",\"37\",\"3\",\"3\",\"6A\",\"C1\",\"C\",\"35\"
\"\",\"\",\"approach-retreat\",\"39\",\"390503\",\"0.0-39.0\",\"\",\"\",\"3-5\",\"6439\",\"37\",\"0\",\"Training\",\"Stims/Figures/57-C-30-1.bmp\",\"sa:haza\",\"Left\",\"39\",\"3\",\"4\",\"6A\",\"C2\",\"C\",\"36\"
\"\",\"\",\"approach-retreat\",\"40\",\"399308\",\"0.0-40.0\",\"\",\"\",\"3-5\",\"7284\",\"40\",\"0\",\"Training\",\"Stims/Figures/86-C-30-1.bmp\",\"za:ha:za\",\"Down\",\"38\",\"3\",\"5\",\"6A\",\"C2\",\"C\",\"37\"
\"\",\"\",\"approach-retreat\",\"41\",\"405479\",\"0.0-41.0\",\"\",\"\",\"3-5\",\"4644\",\"38\",\"0\",\"Training\",\"Stims/Figures/7-J-10-4.bmp\",\"va:fa:va\",\"Down\",\"40\",\"3\",\"6\",\"6A\",\"C1\",\"C\",\"38\"
\"\",\"\",\"approach-retreat\",\"42\",\"411503\",\"0.0-42.0\",\"\",\"\",\"3-5\",\"4506\",\"37\",\"1\",\"Training\",\"Stims/Figures/7-C-20-4.bmp\",\"zasaza\",\"Right\",\"37\",\"3\",\"7\",\"6A\",\"C2\",\"C\",\"39\"
\"\",\"\",\"approach-retreat\",\"43\",\"417617\",\"0.0-43.0\",\"\",\"\",\"3-5\",\"4600\",\"38\",\"1\",\"Training\",\"Stims/Figures/57-J-0-1.bmp\",\"vashasha\",\"Up\",\"38\",\"3\",\"8\",\"6A\",\"C1\",\"C\",\"40\"
\"\",\"\",\"approach-retreat\",\"44\",\"423581\",\"0.0-44.0\",\"\",\"\",\"3-5\",\"4445\",\"39\",\"1\",\"Training\",\"Stims/Figures/139-J-0-2.bmp\",\"fa:shava\",\"Right\",\"39\",\"3\",\"9\",\"6A\",\"C1\",\"C\",\"41\"
\"\",\"\",\"approach-retreat\",\"45\",\"429652\",\"0.0-45.0\",\"\",\"\",\"3-5\",\"4543\",\"39\",\"1\",\"Training\",\"Stims/Figures/74-C-20-4.bmp\",\"zaha:za\",\"Left\",\"39\",\"3\",\"10\",\"6A\",\"C2\",\"C\",\"42\"
\"\",\"\",\"approach-retreat\",\"46\",\"436094\",\"0.0-46.0\",\"\",\"\",\"3-5\",\"4927\",\"40\",\"1\",\"Training\",\"Stims/Figures/144-C-30-3.bmp\",\"sahaha\",\"Up\",\"40\",\"3\",\"11\",\"6A\",\"C2\",\"C\",\"43\"
\"\",\"\",\"approach-retreat\",\"47\",\"442224\",\"0.0-47.0\",\"\",\"\",\"3-5\",\"4601\",\"38\",\"1\",\"Training\",\"Stims/Figures/44-C-30-3.bmp\",\"za:haza\",\"Down\",\"38\",\"3\",\"12\",\"6A\",\"C2\",\"C\",\"44\"
\"\",\"\",\"approach-retreat\",\"48\",\"448143\",\"0.0-48.0\",\"\",\"\",\"3-5\",\"4402\",\"40\",\"1\",\"Training\",\"Stims/Figures/74-J-10-4.bmp\",\"fafa:sha\",\"Down\",\"40\",\"3\",\"13\",\"6A\",\"C1\",\"C\",\"45\"
\"\",\"\",\"approach-retreat\",\"49\",\"454396\",\"0.0-49.0\",\"\",\"\",\"3-5\",\"4729\",\"40\",\"1\",\"Training\",\"Stims/Figures/139-C-20-2.bmp\",\"sasa:za\",\"Up\",\"40\",\"3\",\"14\",\"6A\",\"C2\",\"C\",\"46\"
\"\",\"\",\"approach-retreat\",\"50\",\"460891\",\"0.0-50.0\",\"\",\"\",\"3-5\",\"4966\",\"37\",\"1\",\"Training\",\"Stims/Figures/84-C-20-2.bmp\",\"za:sa:za\",\"Right\",\"37\",\"3\",\"15\",\"6A\",\"C2\",\"C\",\"47\"
\"\",\"\",\"approach-retreat\",\"51\",\"466615\",\"0.0-51.0\",\"\",\"\",\"3-5\",\"4210\",\"38\",\"1\",\"Training\",\"Stims/Figures/144-J-10-3.bmp\",\"vafasha\",\"Up\",\"38\",\"3\",\"16\",\"6A\",\"C1\",\"C\",\"48\"
\"\",\"\",\"approach-retreat\",\"52\",\"472436\",\"0.0-52.0\",\"\",\"\",\"3-5\",\"4296\",\"38\",\"1\",\"Training\",\"Stims/Figures/57-J-0-1.bmp\",\"vashasha\",\"Up\",\"38\",\"4\",\"1\",\"6A\",\"C1\",\"C\",\"49\"
\"\",\"\",\"approach-retreat\",\"53\",\"478590\",\"0.0-53.0\",\"\",\"\",\"3-5\",\"4629\",\"40\",\"1\",\"Training\",\"Stims/Figures/84-C-20-2.bmp\",\"za:sa:za\",\"Up\",\"40\",\"4\",\"2\",\"6A\",\"C2\",\"C\",\"50\"
\"\",\"\",\"approach-retreat\",\"54\",\"484723\",\"0.0-54.0\",\"\",\"\",\"3-5\",\"4609\",\"37\",\"1\",\"Training\",\"Stims/Figures/139-C-20-2.bmp\",\"sasa:za\",\"Right\",\"37\",\"4\",\"3\",\"6A\",\"C2\",\"C\",\"51\"
\"\",\"\",\"approach-retreat\",\"55\",\"490675\",\"0.0-55.0\",\"\",\"\",\"3-5\",\"4436\",\"39\",\"1\",\"Training\",\"Stims/Figures/144-C-30-3.bmp\",\"sahaha\",\"Left\",\"39\",\"4\",\"4\",\"6A\",\"C2\",\"C\",\"52\"
\"\",\"\",\"approach-retreat\",\"56\",\"496744\",\"0.0-56.0\",\"\",\"\",\"3-5\",\"4556\",\"40\",\"1\",\"Training\",\"Stims/Figures/74-J-10-4.bmp\",\"fafa:sha\",\"Down\",\"40\",\"4\",\"5\",\"6A\",\"C1\",\"C\",\"53\"
\"\",\"\",\"approach-retreat\",\"57\",\"503449\",\"0.0-57.0\",\"\",\"\",\"3-5\",\"5182\",\"40\",\"1\",\"Training\",\"Stims/Figures/7-C-20-4.bmp\",\"zasaza\",\"Up\",\"40\",\"4\",\"6\",\"6A\",\"C2\",\"C\",\"54\"
\"\",\"\",\"approach-retreat\",\"58\",\"510391\",\"0.0-58.0\",\"\",\"\",\"3-5\",\"5421\",\"39\",\"1\",\"Training\",\"Stims/Figures/44-J-10-3.bmp\",\"fa:fa:sha\",\"Right\",\"39\",\"4\",\"7\",\"6A\",\"C1\",\"C\",\"55\"
\"\",\"\",\"approach-retreat\",\"59\",\"516437\",\"0.0-59.0\",\"\",\"\",\"3-5\",\"4517\",\"37\",\"1\",\"Training\",\"Stims/Figures/144-J-10-3.bmp\",\"vafasha\",\"Left\",\"37\",\"4\",\"8\",\"6A\",\"C1\",\"C\",\"56\"
\"\",\"\",\"approach-retreat\",\"60\",\"523106\",\"0.0-60.0\",\"\",\"\",\"3-5\",\"5146\",\"39\",\"1\",\"Training\",\"Stims/Figures/44-C-30-3.bmp\",\"za:haza\",\"Left\",\"39\",\"4\",\"9\",\"6A\",\"C2\",\"C\",\"57\"
\"\",\"\",\"approach-retreat\",\"61\",\"529283\",\"0.0-61.0\",\"\",\"\",\"3-5\",\"4648\",\"40\",\"1\",\"Training\",\"Stims/Figures/74-C-20-4.bmp\",\"zaha:za\",\"Up\",\"40\",\"4\",\"10\",\"6A\",\"C2\",\"C\",\"58\"
\"\",\"\",\"approach-retreat\",\"62\",\"535691\",\"0.0-62.0\",\"\",\"\",\"3-5\",\"4887\",\"37\",\"0\",\"Training\",\"Stims/Figures/86-J-0-1.bmp\",\"fa:fa:va\",\"Right\",\"39\",\"4\",\"11\",\"6A\",\"C1\",\"C\",\"59\"
\"\",\"\",\"approach-retreat\",\"63\",\"541675\",\"0.0-63.0\",\"\",\"\",\"3-5\",\"4468\",\"38\",\"1\",\"Training\",\"Stims/Figures/57-C-30-1.bmp\",\"sa:haza\",\"Down\",\"38\",\"4\",\"12\",\"6A\",\"C2\",\"C\",\"60\"
\"\",\"\",\"approach-retreat\",\"64\",\"547676\",\"0.0-64.0\",\"\",\"\",\"3-5\",\"4487\",\"40\",\"1\",\"Training\",\"Stims/Figures/139-J-0-2.bmp\",\"fa:shava\",\"Down\",\"40\",\"4\",\"13\",\"6A\",\"C1\",\"C\",\"61\"
\"\",\"\",\"approach-retreat\",\"65\",\"553894\",\"0.0-65.0\",\"\",\"\",\"3-5\",\"4699\",\"39\",\"1\",\"Training\",\"Stims/Figures/84-J-0-2.bmp\",\"fasha:sha\",\"Right\",\"39\",\"4\",\"14\",\"6A\",\"C1\",\"C\",\"62\"
\"\",\"\",\"approach-retreat\",\"66\",\"561554\",\"0.0-66.0\",\"\",\"\",\"3-5\",\"6135\",\"39\",\"0\",\"Training\",\"Stims/Figures/7-J-10-4.bmp\",\"va:fa:va\",\"Left\",\"37\",\"4\",\"15\",\"6A\",\"C1\",\"C\",\"63\"
\"\",\"\",\"approach-retreat\",\"67\",\"569768\",\"0.0-67.0\",\"\",\"\",\"3-5\",\"6693\",\"38\",\"1\",\"Training\",\"Stims/Figures/86-C-30-1.bmp\",\"za:ha:za\",\"Down\",\"38\",\"4\",\"16\",\"6A\",\"C2\",\"C\",\"64\"
\"\",\"\",\"approach-retreat\",\"68\",\"576554\",\"0.0-68.0\",\"\",\"\",\"3-5\",\"5269\",\"38\",\"1\",\"Training\",\"Stims/Figures/7-C-20-4.bmp\",\"zasaza\",\"Down\",\"38\",\"5\",\"1\",\"6A\",\"C2\",\"C\",\"65\"
\"\",\"\",\"approach-retreat\",\"69\",\"583882\",\"0.0-69.0\",\"\",\"\",\"3-5\",\"5806\",\"37\",\"1\",\"Training\",\"Stims/Figures/57-J-0-1.bmp\",\"vashasha\",\"Left\",\"37\",\"5\",\"2\",\"6A\",\"C1\",\"C\",\"66\"
\"\",\"\",\"approach-retreat\",\"70\",\"590821\",\"0.0-70.0\",\"\",\"\",\"3-5\",\"5421\",\"39\",\"1\",\"Training\",\"Stims/Figures/86-J-0-1.bmp\",\"fa:fa:va\",\"Right\",\"39\",\"5\",\"3\",\"6A\",\"C1\",\"C\",\"67\"
\"\",\"\",\"approach-retreat\",\"71\",\"599014\",\"0.0-71.0\",\"\",\"\",\"3-5\",\"6666\",\"40\",\"1\",\"Training\",\"Stims/Figures/84-C-20-2.bmp\",\"za:sa:za\",\"Up\",\"40\",\"5\",\"4\",\"6A\",\"C2\",\"C\",\"68\"
\"\",\"\",\"approach-retreat\",\"72\",\"608032\",\"0.0-72.0\",\"\",\"\",\"3-5\",\"7494\",\"38\",\"1\",\"Training\",\"Stims/Figures/7-J-10-4.bmp\",\"va:fa:va\",\"Up\",\"38\",\"5\",\"5\",\"6A\",\"C1\",\"C\",\"69\"
\"\",\"\",\"approach-retreat\",\"73\",\"614204\",\"0.0-73.0\",\"\",\"\",\"3-5\",\"4647\",\"39\",\"1\",\"Training\",\"Stims/Figures/139-J-0-2.bmp\",\"fa:shava\",\"Right\",\"39\",\"5\",\"6\",\"6A\",\"C1\",\"C\",\"70\"
\"\",\"\",\"approach-retreat\",\"74\",\"620882\",\"0.0-74.0\",\"\",\"\",\"3-5\",\"5165\",\"40\",\"1\",\"Training\",\"Stims/Figures/86-C-30-1.bmp\",\"za:ha:za\",\"Up\",\"40\",\"5\",\"7\",\"6A\",\"C2\",\"C\",\"71\"
\"\",\"\",\"approach-retreat\",\"75\",\"627442\",\"0.0-75.0\",\"\",\"\",\"3-5\",\"5035\",\"38\",\"0\",\"Training\",\"Stims/Figures/74-J-10-4.bmp\",\"fafa:sha\",\"Down\",\"40\",\"5\",\"8\",\"6A\",\"C1\",\"C\",\"72\"
\"\",\"\",\"approach-retreat\",\"76\",\"634112\",\"0.0-76.0\",\"\",\"\",\"3-5\",\"5142\",\"39\",\"1\",\"Training\",\"Stims/Figures/74-C-20-4.bmp\",\"zaha:za\",\"Left\",\"39\",\"5\",\"9\",\"6A\",\"C2\",\"C\",\"73\"
\"\",\"\",\"approach-retreat\",\"77\",\"640788\",\"0.0-77.0\",\"\",\"\",\"3-5\",\"5160\",\"37\",\"1\",\"Training\",\"Stims/Figures/144-C-30-3.bmp\",\"sahaha\",\"Right\",\"37\",\"5\",\"10\",\"6A\",\"C2\",\"C\",\"74\"
\"\",\"\",\"approach-retreat\",\"78\",\"647794\",\"0.0-78.0\",\"\",\"\",\"3-5\",\"5490\",\"37\",\"1\",\"Training\",\"Stims/Figures/144-J-10-3.bmp\",\"vafasha\",\"Left\",\"37\",\"5\",\"11\",\"6A\",\"C1\",\"C\",\"75\"
\"\",\"\",\"approach-retreat\",\"79\",\"654089\",\"0.0-79.0\",\"\",\"\",\"3-5\",\"4775\",\"40\",\"1\",\"Training\",\"Stims/Figures/139-C-20-2.bmp\",\"sasa:za\",\"Up\",\"40\",\"5\",\"12\",\"6A\",\"C2\",\"C\",\"76\"
\"\",\"\",\"approach-retreat\",\"80\",\"660576\",\"0.0-80.0\",\"\",\"\",\"3-5\",\"4956\",\"39\",\"1\",\"Training\",\"Stims/Figures/44-C-30-3.bmp\",\"za:haza\",\"Left\",\"39\",\"5\",\"13\",\"6A\",\"C2\",\"C\",\"77\"
\"\",\"\",\"approach-retreat\",\"81\",\"666912\",\"0.0-81.0\",\"\",\"\",\"3-5\",\"4810\",\"40\",\"1\",\"Training\",\"Stims/Figures/84-J-0-2.bmp\",\"fasha:sha\",\"Down\",\"40\",\"5\",\"14\",\"6A\",\"C1\",\"C\",\"78\"
\"\",\"\",\"approach-retreat\",\"82\",\"673249\",\"0.0-82.0\",\"\",\"\",\"3-5\",\"4824\",\"39\",\"1\",\"Training\",\"Stims/Figures/44-J-10-3.bmp\",\"fa:fa:sha\",\"Right\",\"39\",\"5\",\"15\",\"6A\",\"C1\",\"C\",\"79\"
\"\",\"\",\"approach-retreat\",\"83\",\"679614\",\"0.0-83.0\",\"\",\"\",\"3-5\",\"4850\",\"38\",\"1\",\"Training\",\"Stims/Figures/57-C-30-1.bmp\",\"sa:haza\",\"Down\",\"38\",\"5\",\"16\",\"6A\",\"C2\",\"C\",\"80\"
\"\",\"\",\"approach-retreat\",\"84\",\"685875\",\"0.0-84.0\",\"\",\"\",\"3-5\",\"4737\",\"40\",\"1\",\"Training\",\"Stims/Figures/74-J-10-4.bmp\",\"fafa:sha\",\"Down\",\"40\",\"6\",\"1\",\"6A\",\"C1\",\"C\",\"81\"
\"\",\"\",\"approach-retreat\",\"85\",\"693980\",\"0.0-85.0\",\"\",\"\",\"3-5\",\"6580\",\"39\",\"1\",\"Training\",\"Stims/Figures/44-C-30-3.bmp\",\"za:haza\",\"Left\",\"39\",\"6\",\"2\",\"6A\",\"C2\",\"C\",\"82\"
\"\",\"\",\"approach-retreat\",\"86\",\"701468\",\"0.0-86.0\",\"\",\"\",\"3-5\",\"5962\",\"37\",\"1\",\"Training\",\"Stims/Figures/84-J-0-2.bmp\",\"fasha:sha\",\"Left\",\"37\",\"6\",\"3\",\"6A\",\"C1\",\"C\",\"83\"
\"\",\"\",\"approach-retreat\",\"87\",\"709497\",\"0.0-87.0\",\"\",\"\",\"3-5\",\"6501\",\"40\",\"1\",\"Training\",\"Stims/Figures/86-J-0-1.bmp\",\"fa:fa:va\",\"Down\",\"40\",\"6\",\"4\",\"6A\",\"C1\",\"C\",\"84\"
\"\",\"\",\"approach-retreat\",\"88\",\"715584\",\"0.0-88.0\",\"\",\"\",\"3-5\",\"4567\",\"37\",\"1\",\"Training\",\"Stims/Figures/139-J-0-2.bmp\",\"fa:shava\",\"Left\",\"37\",\"6\",\"5\",\"6A\",\"C1\",\"C\",\"85\"
\"\",\"\",\"approach-retreat\",\"89\",\"721522\",\"0.0-89.0\",\"\",\"\",\"3-5\",\"4416\",\"39\",\"1\",\"Training\",\"Stims/Figures/144-J-10-3.bmp\",\"vafasha\",\"Right\",\"39\",\"6\",\"6\",\"6A\",\"C1\",\"C\",\"86\"
\"\",\"\",\"approach-retreat\",\"90\",\"729466\",\"0.0-90.0\",\"\",\"\",\"3-5\",\"6428\",\"38\",\"1\",\"Training\",\"Stims/Figures/7-J-10-4.bmp\",\"va:fa:va\",\"Up\",\"38\",\"6\",\"7\",\"6A\",\"C1\",\"C\",\"87\"
\"\",\"\",\"approach-retreat\",\"91\",\"736284\",\"0.0-91.0\",\"\",\"\",\"3-5\",\"5303\",\"40\",\"1\",\"Training\",\"Stims/Figures/86-C-30-1.bmp\",\"za:ha:za\",\"Up\",\"40\",\"6\",\"8\",\"6A\",\"C2\",\"C\",\"88\"
\"\",\"\",\"approach-retreat\",\"92\",\"742239\",\"0.0-92.0\",\"\",\"\",\"3-5\",\"4431\",\"38\",\"1\",\"Training\",\"Stims/Figures/44-J-10-3.bmp\",\"fa:fa:sha\",\"Up\",\"38\",\"6\",\"9\",\"6A\",\"C1\",\"C\",\"89\"
\"\",\"\",\"approach-retreat\",\"93\",\"748205\",\"0.0-93.0\",\"\",\"\",\"3-5\",\"4441\",\"37\",\"1\",\"Training\",\"Stims/Figures/7-C-20-4.bmp\",\"zasaza\",\"Right\",\"37\",\"6\",\"10\",\"6A\",\"C2\",\"C\",\"90\"
\"\",\"\",\"approach-retreat\",\"94\",\"753855\",\"0.0-94.0\",\"\",\"\",\"3-5\",\"4133\",\"38\",\"1\",\"Training\",\"Stims/Figures/74-C-20-4.bmp\",\"zaha:za\",\"Down\",\"38\",\"6\",\"11\",\"6A\",\"C2\",\"C\",\"91\"
\"\",\"\",\"approach-retreat\",\"95\",\"760663\",\"0.0-95.0\",\"\",\"\",\"3-5\",\"5282\",\"37\",\"1\",\"Training\",\"Stims/Figures/139-C-20-2.bmp\",\"sasa:za\",\"Right\",\"37\",\"6\",\"12\",\"6A\",\"C2\",\"C\",\"92\"
\"\",\"\",\"approach-retreat\",\"96\",\"766349\",\"0.0-96.0\",\"\",\"\",\"3-5\",\"4161\",\"40\",\"1\",\"Training\",\"Stims/Figures/57-C-30-1.bmp\",\"sa:haza\",\"Up\",\"40\",\"6\",\"13\",\"6A\",\"C2\",\"C\",\"93\"
\"\",\"\",\"approach-retreat\",\"97\",\"772170\",\"0.0-97.0\",\"\",\"\",\"3-5\",\"4300\",\"40\",\"1\",\"Training\",\"Stims/Figures/57-J-0-1.bmp\",\"vashasha\",\"Down\",\"40\",\"6\",\"14\",\"6A\",\"C1\",\"C\",\"94\"
\"\",\"\",\"approach-retreat\",\"98\",\"778286\",\"0.0-98.0\",\"\",\"\",\"3-5\",\"4587\",\"37\",\"1\",\"Training\",\"Stims/Figures/84-C-20-2.bmp\",\"za:sa:za\",\"Right\",\"37\",\"6\",\"15\",\"6A\",\"C2\",\"C\",\"95\"
\"\",\"\",\"approach-retreat\",\"99\",\"784041\",\"0.0-99.0\",\"\",\"\",\"3-5\",\"4236\",\"39\",\"1\",\"Training\",\"Stims/Figures/144-C-30-3.bmp\",\"sahaha\",\"Left\",\"39\",\"6\",\"16\",\"6A\",\"C2\",\"C\",\"96\"
\"\",\"\",\"approach-retreat\",\"100\",\"789778\",\"0.0-100.0\",\"\",\"\",\"3-5\",\"4219\",\"38\",\"1\",\"Training\",\"Stims/Figures/44-C-30-3.bmp\",\"za:haza\",\"Down\",\"38\",\"7\",\"1\",\"6A\",\"C2\",\"C\",\"97\"
\"\",\"\",\"approach-retreat\",\"101\",\"796062\",\"0.0-101.0\",\"\",\"\",\"3-5\",\"4762\",\"37\",\"1\",\"Training\",\"Stims/Figures/139-J-0-2.bmp\",\"fa:shava\",\"Left\",\"37\",\"7\",\"2\",\"6A\",\"C1\",\"C\",\"98\"
\"\",\"\",\"approach-retreat\",\"102\",\"802031\",\"0.0-102.0\",\"\",\"\",\"3-5\",\"4443\",\"37\",\"1\",\"Training\",\"Stims/Figures/44-J-10-3.bmp\",\"fa:fa:sha\",\"Left\",\"37\",\"7\",\"3\",\"6A\",\"C1\",\"C\",\"99\"
\"\",\"\",\"approach-retreat\",\"103\",\"808002\",\"0.0-103.0\",\"\",\"\",\"3-5\",\"4441\",\"38\",\"1\",\"Training\",\"Stims/Figures/139-C-20-2.bmp\",\"sasa:za\",\"Down\",\"38\",\"7\",\"4\",\"6A\",\"C2\",\"C\",\"100\"
\"\",\"\",\"approach-retreat\",\"104\",\"813940\",\"0.0-104.0\",\"\",\"\",\"3-5\",\"4426\",\"37\",\"1\",\"Training\",\"Stims/Figures/84-C-20-2.bmp\",\"za:sa:za\",\"Right\",\"37\",\"7\",\"5\",\"6A\",\"C2\",\"C\",\"101\"
\"\",\"\",\"approach-retreat\",\"105\",\"820190\",\"0.0-105.0\",\"\",\"\",\"3-5\",\"4733\",\"40\",\"1\",\"Training\",\"Stims/Figures/57-C-30-1.bmp\",\"sa:haza\",\"Up\",\"40\",\"7\",\"6\",\"6A\",\"C2\",\"C\",\"102\"
\"\",\"\",\"approach-retreat\",\"106\",\"827294\",\"0.0-106.0\",\"\",\"\",\"3-5\",\"5588\",\"39\",\"1\",\"Training\",\"Stims/Figures/84-J-0-2.bmp\",\"fasha:sha\",\"Right\",\"39\",\"7\",\"7\",\"6A\",\"C1\",\"C\",\"103\"
\"\",\"\",\"approach-retreat\",\"107\",\"834730\",\"0.0-107.0\",\"\",\"\",\"3-5\",\"5920\",\"38\",\"1\",\"Training\",\"Stims/Figures/86-J-0-1.bmp\",\"fa:fa:va\",\"Up\",\"38\",\"7\",\"8\",\"6A\",\"C1\",\"C\",\"104\"
\"\",\"\",\"approach-retreat\",\"108\",\"840699\",\"0.0-108.0\",\"\",\"\",\"3-5\",\"4443\",\"37\",\"1\",\"Training\",\"Stims/Figures/7-C-20-4.bmp\",\"zasaza\",\"Right\",\"37\",\"7\",\"9\",\"6A\",\"C2\",\"C\",\"105\"
\"\",\"\",\"approach-retreat\",\"109\",\"846470\",\"0.0-109.0\",\"\",\"\",\"3-5\",\"4246\",\"39\",\"1\",\"Training\",\"Stims/Figures/74-C-20-4.bmp\",\"zaha:za\",\"Left\",\"39\",\"7\",\"10\",\"6A\",\"C2\",\"C\",\"106\"
\"\",\"\",\"approach-retreat\",\"110\",\"852516\",\"0.0-110.0\",\"\",\"\",\"3-5\",\"4530\",\"37\",\"1\",\"Training\",\"Stims/Figures/7-J-10-4.bmp\",\"va:fa:va\",\"Left\",\"37\",\"7\",\"11\",\"6A\",\"C1\",\"C\",\"107\"
\"\",\"\",\"approach-retreat\",\"111\",\"858419\",\"0.0-111.0\",\"\",\"\",\"3-5\",\"4376\",\"38\",\"1\",\"Training\",\"Stims/Figures/144-J-10-3.bmp\",\"vafasha\",\"Up\",\"38\",\"7\",\"12\",\"6A\",\"C1\",\"C\",\"108\"
\"\",\"\",\"approach-retreat\",\"112\",\"865402\",\"0.0-112.0\",\"\",\"\",\"3-5\",\"5461\",\"40\",\"1\",\"Training\",\"Stims/Figures/86-C-30-1.bmp\",\"za:ha:za\",\"Up\",\"40\",\"7\",\"13\",\"6A\",\"C2\",\"C\",\"109\"
\"\",\"\",\"approach-retreat\",\"113\",\"871772\",\"0.0-113.0\",\"\",\"\",\"3-5\",\"4854\",\"40\",\"1\",\"Training\",\"Stims/Figures/57-J-0-1.bmp\",\"vashasha\",\"Down\",\"40\",\"7\",\"14\",\"6A\",\"C1\",\"C\",\"110\"
\"\",\"\",\"approach-retreat\",\"114\",\"877791\",\"0.0-114.0\",\"\",\"\",\"3-5\",\"4496\",\"37\",\"1\",\"Training\",\"Stims/Figures/144-C-30-3.bmp\",\"sahaha\",\"Right\",\"37\",\"7\",\"15\",\"6A\",\"C2\",\"C\",\"111\"
\"\",\"\",\"approach-retreat\",\"115\",\"883576\",\"0.0-115.0\",\"\",\"\",\"3-5\",\"4261\",\"40\",\"1\",\"Training\",\"Stims/Figures/74-J-10-4.bmp\",\"fafa:sha\",\"Down\",\"40\",\"7\",\"16\",\"6A\",\"C1\",\"C\",\"112\"
\"\",\"\",\"approach-retreat\",\"116\",\"889530\",\"0.0-116.0\",\"\",\"\",\"3-5\",\"4431\",\"39\",\"1\",\"Training\",\"Stims/Figures/86-J-0-1.bmp\",\"fa:fa:va\",\"Right\",\"39\",\"8\",\"1\",\"6A\",\"C1\",\"C\",\"113\"
\"\",\"\",\"approach-retreat\",\"117\",\"895899\",\"0.0-117.0\",\"\",\"\",\"3-5\",\"4849\",\"40\",\"1\",\"Training\",\"Stims/Figures/139-J-0-2.bmp\",\"fa:shava\",\"Down\",\"40\",\"8\",\"2\",\"6A\",\"C1\",\"C\",\"114\"
\"\",\"\",\"approach-retreat\",\"118\",\"903070\",\"0.0-118.0\",\"\",\"\",\"3-5\",\"5653\",\"40\",\"1\",\"Training\",\"Stims/Figures/86-C-30-1.bmp\",\"za:ha:za\",\"Up\",\"40\",\"8\",\"3\",\"6A\",\"C2\",\"C\",\"115\"
\"\",\"\",\"approach-retreat\",\"119\",\"909656\",\"0.0-119.0\",\"\",\"\",\"3-5\",\"5060\",\"38\",\"1\",\"Training\",\"Stims/Figures/144-C-30-3.bmp\",\"sahaha\",\"Down\",\"38\",\"8\",\"4\",\"6A\",\"C2\",\"C\",\"116\"
\"\",\"\",\"approach-retreat\",\"120\",\"915574\",\"0.0-120.0\",\"\",\"\",\"3-5\",\"4402\",\"40\",\"1\",\"Training\",\"Stims/Figures/84-J-0-2.bmp\",\"fasha:sha\",\"Down\",\"40\",\"8\",\"5\",\"6A\",\"C1\",\"C\",\"117\"
\"\",\"\",\"approach-retreat\",\"121\",\"922347\",\"0.0-121.0\",\"\",\"\",\"3-5\",\"5259\",\"40\",\"1\",\"Training\",\"Stims/Figures/44-C-30-3.bmp\",\"za:haza\",\"Up\",\"40\",\"8\",\"6\",\"6A\",\"C2\",\"C\",\"118\"
\"\",\"\",\"approach-retreat\",\"122\",\"928421\",\"0.0-122.0\",\"\",\"\",\"3-5\",\"4549\",\"37\",\"1\",\"Training\",\"Stims/Figures/57-J-0-1.bmp\",\"vashasha\",\"Left\",\"37\",\"8\",\"7\",\"6A\",\"C1\",\"C\",\"119\"
\"\",\"\",\"approach-retreat\",\"123\",\"934283\",\"0.0-123.0\",\"\",\"\",\"3-5\",\"4339\",\"39\",\"1\",\"Training\",\"Stims/Figures/74-J-10-4.bmp\",\"fafa:sha\",\"Right\",\"39\",\"8\",\"8\",\"6A\",\"C1\",\"C\",\"120\"
\"\",\"\",\"approach-retreat\",\"124\",\"940410\",\"0.0-124.0\",\"\",\"\",\"3-5\",\"4602\",\"39\",\"1\",\"Training\",\"Stims/Figures/7-C-20-4.bmp\",\"zasaza\",\"Left\",\"39\",\"8\",\"9\",\"6A\",\"C2\",\"C\",\"121\"
\"\",\"\",\"approach-retreat\",\"125\",\"946371\",\"0.0-125.0\",\"\",\"\",\"3-5\",\"4440\",\"38\",\"1\",\"Training\",\"Stims/Figures/44-J-10-3.bmp\",\"fa:fa:sha\",\"Up\",\"38\",\"8\",\"10\",\"6A\",\"C1\",\"C\",\"122\"
\"\",\"\",\"approach-retreat\",\"126\",\"953301\",\"0.0-126.0\",\"\",\"\",\"3-5\",\"5405\",\"39\",\"1\",\"Training\",\"Stims/Figures/139-C-20-2.bmp\",\"sasa:za\",\"Left\",\"39\",\"8\",\"11\",\"6A\",\"C2\",\"C\",\"123\"
\"\",\"\",\"approach-retreat\",\"127\",\"959189\",\"0.0-127.0\",\"\",\"\",\"3-5\",\"4374\",\"38\",\"1\",\"Training\",\"Stims/Figures/84-C-20-2.bmp\",\"za:sa:za\",\"Down\",\"38\",\"8\",\"12\",\"6A\",\"C2\",\"C\",\"124\"
\"\",\"\",\"approach-retreat\",\"128\",\"965664\",\"0.0-128.0\",\"\",\"\",\"3-5\",\"4954\",\"39\",\"1\",\"Training\",\"Stims/Figures/7-J-10-4.bmp\",\"va:fa:va\",\"Right\",\"39\",\"8\",\"13\",\"6A\",\"C1\",\"C\",\"125\"
\"\",\"\",\"approach-retreat\",\"129\",\"972431\",\"0.0-129.0\",\"\",\"\",\"3-5\",\"5251\",\"40\",\"1\",\"Training\",\"Stims/Figures/74-C-20-4.bmp\",\"zaha:za\",\"Up\",\"40\",\"8\",\"14\",\"6A\",\"C2\",\"C\",\"126\"
\"\",\"\",\"approach-retreat\",\"130\",\"978202\",\"0.0-130.0\",\"\",\"\",\"3-5\",\"4254\",\"39\",\"1\",\"Training\",\"Stims/Figures/57-C-30-1.bmp\",\"sa:haza\",\"Left\",\"39\",\"8\",\"15\",\"6A\",\"C2\",\"C\",\"127\"
\"\",\"\",\"approach-retreat\",\"131\",\"985040\",\"0.0-131.0\",\"\",\"\",\"3-5\",\"5323\",\"39\",\"1\",\"Training\",\"Stims/Figures/144-J-10-3.bmp\",\"vafasha\",\"Right\",\"39\",\"8\",\"16\",\"6A\",\"C1\",\"C\",\"128\"
\"\",\"\",\"approach-retreat\",\"132\",\"991290\",\"0.0-132.0\",\"\",\"\",\"3-5\",\"4729\",\"37\",\"1\",\"Training\",\"Stims/Figures/86-J-0-1.bmp\",\"fa:fa:va\",\"Left\",\"37\",\"9\",\"1\",\"6A\",\"C1\",\"C\",\"129\"
\"\",\"\",\"approach-retreat\",\"133\",\"997821\",\"0.0-133.0\",\"\",\"\",\"3-5\",\"5010\",\"38\",\"1\",\"Training\",\"Stims/Figures/144-C-30-3.bmp\",\"sahaha\",\"Down\",\"38\",\"9\",\"2\",\"6A\",\"C2\",\"C\",\"130\"
\"\",\"\",\"approach-retreat\",\"134\",\"1003595\",\"0.0-134.0\",\"\",\"\",\"3-5\",\"4255\",\"40\",\"1\",\"Training\",\"Stims/Figures/57-C-30-1.bmp\",\"sa:haza\",\"Up\",\"40\",\"9\",\"3\",\"6A\",\"C2\",\"C\",\"131\"
\"\",\"\",\"approach-retreat\",\"135\",\"1009381\",\"0.0-135.0\",\"\",\"\",\"3-5\",\"4266\",\"38\",\"1\",\"Training\",\"Stims/Figures/84-J-0-2.bmp\",\"fasha:sha\",\"Up\",\"38\",\"9\",\"4\",\"6A\",\"C1\",\"C\",\"132\"
\"\",\"\",\"approach-retreat\",\"136\",\"1015185\",\"0.0-136.0\",\"\",\"\",\"3-5\",\"4289\",\"39\",\"1\",\"Training\",\"Stims/Figures/74-J-10-4.bmp\",\"fafa:sha\",\"Right\",\"39\",\"9\",\"5\",\"6A\",\"C1\",\"C\",\"133\"
\"\",\"\",\"approach-retreat\",\"137\",\"1022191\",\"0.0-137.0\",\"\",\"\",\"3-5\",\"5492\",\"40\",\"1\",\"Training\",\"Stims/Figures/86-C-30-1.bmp\",\"za:ha:za\",\"Up\",\"40\",\"9\",\"6\",\"6A\",\"C2\",\"C\",\"134\"
\"\",\"\",\"approach-retreat\",\"138\",\"1027910\",\"0.0-138.0\",\"\",\"\",\"3-5\",\"4191\",\"38\",\"1\",\"Training\",\"Stims/Figures/74-C-20-4.bmp\",\"zaha:za\",\"Down\",\"38\",\"9\",\"7\",\"6A\",\"C2\",\"C\",\"135\"
\"\",\"\",\"approach-retreat\",\"139\",\"1033565\",\"0.0-139.0\",\"\",\"\",\"3-5\",\"4126\",\"37\",\"1\",\"Training\",\"Stims/Figures/7-J-10-4.bmp\",\"va:fa:va\",\"Left\",\"37\",\"9\",\"8\",\"6A\",\"C1\",\"C\",\"136\"
\"\",\"\",\"approach-retreat\",\"140\",\"1039094\",\"0.0-140.0\",\"\",\"\",\"3-5\",\"4016\",\"40\",\"1\",\"Training\",\"Stims/Figures/57-J-0-1.bmp\",\"vashasha\",\"Down\",\"40\",\"9\",\"9\",\"6A\",\"C1\",\"C\",\"137\"
\"\",\"\",\"approach-retreat\",\"141\",\"1044872\",\"0.0-141.0\",\"\",\"\",\"3-5\",\"4251\",\"39\",\"1\",\"Training\",\"Stims/Figures/44-C-30-3.bmp\",\"za:haza\",\"Left\",\"39\",\"9\",\"10\",\"6A\",\"C2\",\"C\",\"138\"
\"\",\"\",\"approach-retreat\",\"142\",\"1050943\",\"0.0-142.0\",\"\",\"\",\"3-5\",\"4551\",\"38\",\"1\",\"Training\",\"Stims/Figures/139-C-20-2.bmp\",\"sasa:za\",\"Down\",\"38\",\"9\",\"11\",\"6A\",\"C2\",\"C\",\"139\"
\"\",\"\",\"approach-retreat\",\"143\",\"1057032\",\"0.0-143.0\",\"\",\"\",\"3-5\",\"4566\",\"39\",\"1\",\"Training\",\"Stims/Figures/144-J-10-3.bmp\",\"vafasha\",\"Right\",\"39\",\"9\",\"12\",\"6A\",\"C1\",\"C\",\"140\"
\"\",\"\",\"approach-retreat\",\"144\",\"1062857\",\"0.0-144.0\",\"\",\"\",\"3-5\",\"4302\",\"39\",\"1\",\"Training\",\"Stims/Figures/139-J-0-2.bmp\",\"fa:shava\",\"Right\",\"39\",\"9\",\"13\",\"6A\",\"C1\",\"C\",\"141\"
\"\",\"\",\"approach-retreat\",\"145\",\"1068611\",\"0.0-145.0\",\"\",\"\",\"3-5\",\"4235\",\"40\",\"1\",\"Training\",\"Stims/Figures/7-C-20-4.bmp\",\"zasaza\",\"Up\",\"40\",\"9\",\"14\",\"6A\",\"C2\",\"C\",\"142\"
\"\",\"\",\"approach-retreat\",\"146\",\"1074298\",\"0.0-146.0\",\"\",\"\",\"3-5\",\"4165\",\"37\",\"1\",\"Training\",\"Stims/Figures/84-C-20-2.bmp\",\"za:sa:za\",\"Right\",\"37\",\"9\",\"15\",\"6A\",\"C2\",\"C\",\"143\"
\"\",\"\",\"approach-retreat\",\"147\",\"1080276\",\"0.0-147.0\",\"\",\"\",\"3-5\",\"4454\",\"37\",\"1\",\"Training\",\"Stims/Figures/44-J-10-3.bmp\",\"fa:fa:sha\",\"Left\",\"37\",\"9\",\"16\",\"6A\",\"C1\",\"C\",\"144\"
\"35104\",\"\",\"instructions\",\"148\",\"1115380\",\"0.0-148.0\",\"[{\"\"page_index\"\":0,\"\"viewing_time\"\":35104}]\",\"\",\"\",\"\",\"\",\"\",\"\",\"\",\"\",\"\",\"\",\"\",\"\",\"\",\"\",\"\",\"\"
\"\",\"\",\"approach-retreat\",\"149\",\"1125966\",\"0.0-149.0\",\"\",\"\",\"3-5\",\"9071\",\"37\",\"0\",\"Testing\",\"Stims/Figures/139-J-0-2.bmp\",\"fa:shava\",\"Right\",\"39\",\"1\",\"1\",\"6A\",\"C1\",\"C\",\"1\"
\"\",\"\",\"approach-retreat\",\"150\",\"1132189\",\"0.0-150.0\",\"\",\"\",\"3-5\",\"4711\",\"39\",\"0\",\"Testing\",\"Stims/Figures/84-J-0-2.bmp\",\"fasha:sha\",\"Left\",\"37\",\"1\",\"2\",\"6A\",\"C1\",\"C\",\"2\"
\"\",\"\",\"approach-retreat\",\"151\",\"1139148\",\"0.0-151.0\",\"\",\"\",\"3-5\",\"5448\",\"39\",\"0\",\"Testing\",\"Stims/Figures/57-J-0-1.bmp\",\"vashasha\",\"Left\",\"37\",\"1\",\"3\",\"6A\",\"C1\",\"C\",\"3\"
\"\",\"\",\"approach-retreat\",\"152\",\"1145442\",\"0.0-152.0\",\"\",\"\",\"3-5\",\"4784\",\"38\",\"0\",\"Testing\",\"Stims/Figures/86-C-30-1.bmp\",\"za:ha:za\",\"Up\",\"40\",\"1\",\"4\",\"6A\",\"C2\",\"C\",\"4\"
\"\",\"\",\"approach-retreat\",\"153\",\"1151539\",\"0.0-153.0\",\"\",\"\",\"3-5\",\"4579\",\"40\",\"1\",\"Testing\",\"Stims/Figures/44-C-30-3.bmp\",\"za:haza\",\"Up\",\"40\",\"1\",\"5\",\"6A\",\"C2\",\"C\",\"5\"
\"\",\"\",\"approach-retreat\",\"154\",\"1160791\",\"0.0-154.0\",\"\",\"\",\"3-5\",\"7740\",\"38\",\"1\",\"Testing\",\"Stims/Figures/118-J-0-2.bmp\",\"fa:sha:va\",\"Up\",\"38\",\"1\",\"6\",\"6A\",\"C1\",\"C\",\"6\"
\"\",\"\",\"approach-retreat\",\"155\",\"1167076\",\"0.0-155.0\",\"\",\"\",\"3-5\",\"4773\",\"40\",\"0\",\"Testing\",\"Stims/Figures/144-J-10-3.bmp\",\"vafasha\",\"Up\",\"38\",\"1\",\"7\",\"6A\",\"C1\",\"C\",\"7\"
\"\",\"\",\"approach-retreat\",\"156\",\"1172914\",\"0.0-156.0\",\"\",\"\",\"3-5\",\"4323\",\"39\",\"1\",\"Testing\",\"Stims/Figures/57-C-30-1.bmp\",\"sa:haza\",\"Left\",\"39\",\"1\",\"8\",\"6A\",\"C2\",\"C\",\"8\"
\"\",\"\",\"approach-retreat\",\"157\",\"1179525\",\"0.0-157.0\",\"\",\"\",\"3-5\",\"5094\",\"37\",\"1\",\"Testing\",\"Stims/Figures/7-C-20-4.bmp\",\"zasaza\",\"Right\",\"37\",\"1\",\"9\",\"6A\",\"C2\",\"C\",\"9\"
\"\",\"\",\"approach-retreat\",\"158\",\"1186051\",\"0.0-158.0\",\"\",\"\",\"3-5\",\"5015\",\"40\",\"1\",\"Testing\",\"Stims/Figures/71-J-0-1.bmp\",\"vashava\",\"Down\",\"40\",\"1\",\"10\",\"6A\",\"C1\",\"C\",\"10\"
\"\",\"\",\"approach-retreat\",\"159\",\"1192016\",\"0.0-159.0\",\"\",\"\",\"3-5\",\"4447\",\"37\",\"1\",\"Testing\",\"Stims/Figures/84-C-20-2.bmp\",\"za:sa:za\",\"Right\",\"37\",\"1\",\"11\",\"6A\",\"C2\",\"C\",\"11\"
\"\",\"\",\"approach-retreat\",\"160\",\"1197747\",\"0.0-160.0\",\"\",\"\",\"3-5\",\"4209\",\"37\",\"0\",\"Testing\",\"Stims/Figures/74-J-10-4.bmp\",\"fafa:sha\",\"Right\",\"39\",\"1\",\"12\",\"6A\",\"C1\",\"C\",\"12\"
\"\",\"\",\"approach-retreat\",\"161\",\"1203624\",\"0.0-161.0\",\"\",\"\",\"3-5\",\"4365\",\"40\",\"1\",\"Testing\",\"Stims/Figures/71-C-30-1.bmp\",\"sasaza\",\"Up\",\"40\",\"1\",\"13\",\"6A\",\"C2\",\"C\",\"13\"
\"\",\"\",\"approach-retreat\",\"162\",\"1209266\",\"0.0-162.0\",\"\",\"\",\"3-5\",\"4117\",\"40\",\"1\",\"Testing\",\"Stims/Figures/118-C-20-2.bmp\",\"sahaza\",\"Up\",\"40\",\"1\",\"14\",\"6A\",\"C2\",\"C\",\"14\"
\"\",\"\",\"approach-retreat\",\"163\",\"1215021\",\"0.0-163.0\",\"\",\"\",\"3-5\",\"4237\",\"39\",\"1\",\"Testing\",\"Stims/Figures/19-C-20-4.bmp\",\"za:sa:ha\",\"Left\",\"39\",\"1\",\"15\",\"6A\",\"C2\",\"C\",\"15\"
\"\",\"\",\"approach-retreat\",\"164\",\"1220994\",\"0.0-164.0\",\"\",\"\",\"3-5\",\"4456\",\"40\",\"1\",\"Testing\",\"Stims/Figures/44-J-10-3.bmp\",\"fa:fa:sha\",\"Down\",\"40\",\"1\",\"16\",\"6A\",\"C1\",\"C\",\"16\"
\"\",\"\",\"approach-retreat\",\"165\",\"1227075\",\"0.0-165.0\",\"\",\"\",\"3-5\",\"4568\",\"39\",\"1\",\"Testing\",\"Stims/Figures/144-C-30-3.bmp\",\"sahaha\",\"Left\",\"39\",\"1\",\"17\",\"6A\",\"C2\",\"C\",\"17\"
\"\",\"\",\"approach-retreat\",\"166\",\"1232842\",\"0.0-166.0\",\"\",\"\",\"3-5\",\"4257\",\"38\",\"1\",\"Testing\",\"Stims/Figures/100-C-30-3.bmp\",\"sa:saha\",\"Down\",\"38\",\"1\",\"18\",\"6A\",\"C2\",\"C\",\"18\"
\"\",\"\",\"approach-retreat\",\"167\",\"1238604\",\"0.0-167.0\",\"\",\"\",\"3-5\",\"4222\",\"37\",\"1\",\"Testing\",\"Stims/Figures/74-C-20-4.bmp\",\"zaha:za\",\"Right\",\"37\",\"1\",\"19\",\"6A\",\"C2\",\"C\",\"19\"
\"\",\"\",\"approach-retreat\",\"168\",\"1244277\",\"0.0-168.0\",\"\",\"\",\"3-5\",\"4159\",\"40\",\"1\",\"Testing\",\"Stims/Figures/100-J-10-3.bmp\",\"vafa:sha\",\"Down\",\"40\",\"1\",\"20\",\"6A\",\"C1\",\"C\",\"20\"
\"\",\"\",\"approach-retreat\",\"169\",\"1249865\",\"0.0-169.0\",\"\",\"\",\"3-5\",\"4072\",\"40\",\"1\",\"Testing\",\"Stims/Figures/19-J-10-4.bmp\",\"va:shava\",\"Down\",\"40\",\"1\",\"21\",\"6A\",\"C1\",\"C\",\"21\"
\"\",\"\",\"approach-retreat\",\"170\",\"1256163\",\"0.0-170.0\",\"\",\"\",\"3-5\",\"4786\",\"38\",\"1\",\"Testing\",\"Stims/Figures/139-C-20-2.bmp\",\"sasa:za\",\"Down\",\"38\",\"1\",\"22\",\"6A\",\"C2\",\"C\",\"22\"
\"\",\"\",\"approach-retreat\",\"171\",\"1261923\",\"0.0-171.0\",\"\",\"\",\"3-5\",\"4242\",\"37\",\"1\",\"Testing\",\"Stims/Figures/7-J-10-4.bmp\",\"va:fa:va\",\"Left\",\"37\",\"1\",\"23\",\"6A\",\"C1\",\"C\",\"23\"
\"\",\"\",\"approach-retreat\",\"172\",\"1267735\",\"0.0-172.0\",\"\",\"\",\"3-5\",\"4295\",\"39\",\"1\",\"Testing\",\"Stims/Figures/86-J-0-1.bmp\",\"fa:fa:va\",\"Right\",\"39\",\"1\",\"24\",\"6A\",\"C1\",\"C\",\"24\"
\"\",\"\",\"approach-retreat\",\"173\",\"1274589\",\"0.0-173.0\",\"\",\"\",\"3-5\",\"5332\",\"40\",\"1\",\"Testing\",\"Stims/Figures/118-C-20-2.bmp\",\"sahaza\",\"Up\",\"40\",\"2\",\"1\",\"6A\",\"C2\",\"C\",\"25\"
\"\",\"\",\"approach-retreat\",\"174\",\"1281079\",\"0.0-174.0\",\"\",\"\",\"3-5\",\"4971\",\"40\",\"1\",\"Testing\",\"Stims/Figures/144-C-30-3.bmp\",\"sahaha\",\"Up\",\"40\",\"2\",\"2\",\"6A\",\"C2\",\"C\",\"26\"
\"\",\"\",\"approach-retreat\",\"175\",\"1287213\",\"0.0-175.0\",\"\",\"\",\"3-5\",\"4620\",\"40\",\"1\",\"Testing\",\"Stims/Figures/84-J-0-2.bmp\",\"fasha:sha\",\"Down\",\"40\",\"2\",\"3\",\"6A\",\"C1\",\"C\",\"27\"
\"\",\"\",\"approach-retreat\",\"176\",\"1295364\",\"0.0-176.0\",\"\",\"\",\"3-5\",\"6638\",\"37\",\"1\",\"Testing\",\"Stims/Figures/44-J-10-3.bmp\",\"fa:fa:sha\",\"Left\",\"37\",\"2\",\"4\",\"6A\",\"C1\",\"C\",\"28\"
\"\",\"\",\"approach-retreat\",\"177\",\"1305492\",\"0.0-177.0\",\"\",\"\",\"3-5\",\"8604\",\"40\",\"0\",\"Testing\",\"Stims/Figures/139-J-0-2.bmp\",\"fa:shava\",\"Up\",\"38\",\"2\",\"5\",\"6A\",\"C1\",\"C\",\"29\"
\"\",\"\",\"approach-retreat\",\"178\",\"1311381\",\"0.0-178.0\",\"\",\"\",\"3-5\",\"4364\",\"40\",\"1\",\"Testing\",\"Stims/Figures/7-C-20-4.bmp\",\"zasaza\",\"Up\",\"40\",\"2\",\"6\",\"6A\",\"C2\",\"C\",\"30\"
\"\",\"\",\"approach-retreat\",\"179\",\"1317353\",\"0.0-179.0\",\"\",\"\",\"3-5\",\"4456\",\"39\",\"1\",\"Testing\",\"Stims/Figures/71-J-0-1.bmp\",\"vashava\",\"Right\",\"39\",\"2\",\"7\",\"6A\",\"C1\",\"C\",\"31\"
\"\",\"\",\"approach-retreat\",\"180\",\"1323423\",\"0.0-180.0\",\"\",\"\",\"3-5\",\"4552\",\"37\",\"1\",\"Testing\",\"Stims/Figures/118-J-0-2.bmp\",\"fa:sha:va\",\"Left\",\"37\",\"2\",\"8\",\"6A\",\"C1\",\"C\",\"32\"
\"\",\"\",\"approach-retreat\",\"181\",\"1329369\",\"0.0-181.0\",\"\",\"\",\"3-5\",\"4420\",\"40\",\"1\",\"Testing\",\"Stims/Figures/57-J-0-1.bmp\",\"vashasha\",\"Down\",\"40\",\"2\",\"9\",\"6A\",\"C1\",\"C\",\"33\"
\"\",\"\",\"approach-retreat\",\"182\",\"1336490\",\"0.0-182.0\",\"\",\"\",\"3-5\",\"5603\",\"39\",\"1\",\"Testing\",\"Stims/Figures/19-J-10-4.bmp\",\"va:shava\",\"Right\",\"39\",\"2\",\"10\",\"6A\",\"C1\",\"C\",\"34\"
\"\",\"\",\"approach-retreat\",\"183\",\"1342267\",\"0.0-183.0\",\"\",\"\",\"3-5\",\"4253\",\"39\",\"1\",\"Testing\",\"Stims/Figures/44-C-30-3.bmp\",\"za:haza\",\"Left\",\"39\",\"2\",\"11\",\"6A\",\"C2\",\"C\",\"35\"
\"\",\"\",\"approach-retreat\",\"184\",\"1348182\",\"0.0-184.0\",\"\",\"\",\"3-5\",\"4392\",\"37\",\"1\",\"Testing\",\"Stims/Figures/74-C-20-4.bmp\",\"zaha:za\",\"Right\",\"37\",\"2\",\"12\",\"6A\",\"C2\",\"C\",\"36\"
\"\",\"\",\"approach-retreat\",\"185\",\"1353972\",\"0.0-185.0\",\"\",\"\",\"3-5\",\"4265\",\"37\",\"0\",\"Testing\",\"Stims/Figures/100-J-10-3.bmp\",\"vafa:sha\",\"Right\",\"39\",\"2\",\"13\",\"6A\",\"C1\",\"C\",\"37\"
\"\",\"\",\"approach-retreat\",\"186\",\"1360044\",\"0.0-186.0\",\"\",\"\",\"3-5\",\"4561\",\"37\",\"1\",\"Testing\",\"Stims/Figures/139-C-20-2.bmp\",\"sasa:za\",\"Right\",\"37\",\"2\",\"14\",\"6A\",\"C2\",\"C\",\"38\"
\"\",\"\",\"approach-retreat\",\"187\",\"1365860\",\"0.0-187.0\",\"\",\"\",\"3-5\",\"4305\",\"40\",\"1\",\"Testing\",\"Stims/Figures/7-J-10-4.bmp\",\"va:fa:va\",\"Down\",\"40\",\"2\",\"15\",\"6A\",\"C1\",\"C\",\"39\"
\"\",\"\",\"approach-retreat\",\"188\",\"1371667\",\"0.0-188.0\",\"\",\"\",\"3-5\",\"4282\",\"40\",\"1\",\"Testing\",\"Stims/Figures/86-C-30-1.bmp\",\"za:ha:za\",\"Up\",\"40\",\"2\",\"16\",\"6A\",\"C2\",\"C\",\"40\"
\"\",\"\",\"approach-retreat\",\"189\",\"1377534\",\"0.0-189.0\",\"\",\"\",\"3-5\",\"4355\",\"38\",\"1\",\"Testing\",\"Stims/Figures/84-C-20-2.bmp\",\"za:sa:za\",\"Down\",\"38\",\"2\",\"17\",\"6A\",\"C2\",\"C\",\"41\"
\"\",\"\",\"approach-retreat\",\"190\",\"1383455\",\"0.0-190.0\",\"\",\"\",\"3-5\",\"4406\",\"38\",\"1\",\"Testing\",\"Stims/Figures/100-C-30-3.bmp\",\"sa:saha\",\"Down\",\"38\",\"2\",\"18\",\"6A\",\"C2\",\"C\",\"42\"
\"\",\"\",\"approach-retreat\",\"191\",\"1389216\",\"0.0-191.0\",\"\",\"\",\"3-5\",\"4248\",\"39\",\"1\",\"Testing\",\"Stims/Figures/71-C-30-1.bmp\",\"sasaza\",\"Left\",\"39\",\"2\",\"19\",\"6A\",\"C2\",\"C\",\"43\"
\"\",\"\",\"approach-retreat\",\"192\",\"1394891\",\"0.0-192.0\",\"\",\"\",\"3-5\",\"4153\",\"39\",\"1\",\"Testing\",\"Stims/Figures/19-C-20-4.bmp\",\"za:sa:ha\",\"Left\",\"39\",\"2\",\"20\",\"6A\",\"C2\",\"C\",\"44\"
\"\",\"\",\"approach-retreat\",\"193\",\"1400595\",\"0.0-193.0\",\"\",\"\",\"3-5\",\"4184\",\"40\",\"1\",\"Testing\",\"Stims/Figures/86-J-0-1.bmp\",\"fa:fa:va\",\"Down\",\"40\",\"2\",\"21\",\"6A\",\"C1\",\"C\",\"45\"
\"\",\"\",\"approach-retreat\",\"194\",\"1406350\",\"0.0-194.0\",\"\",\"\",\"3-5\",\"4237\",\"39\",\"1\",\"Testing\",\"Stims/Figures/74-J-10-4.bmp\",\"fafa:sha\",\"Right\",\"39\",\"2\",\"22\",\"6A\",\"C1\",\"C\",\"46\"
\"\",\"\",\"approach-retreat\",\"195\",\"1412123\",\"0.0-195.0\",\"\",\"\",\"3-5\",\"4260\",\"37\",\"1\",\"Testing\",\"Stims/Figures/144-J-10-3.bmp\",\"vafasha\",\"Left\",\"37\",\"2\",\"23\",\"6A\",\"C1\",\"C\",\"47\"
\"\",\"\",\"approach-retreat\",\"196\",\"1418295\",\"0.0-196.0\",\"\",\"\",\"3-5\",\"4654\",\"40\",\"1\",\"Testing\",\"Stims/Figures/57-C-30-1.bmp\",\"sa:haza\",\"Up\",\"40\",\"2\",\"24\",\"6A\",\"C2\",\"C\",\"48\"
\"\",\"\",\"approach-retreat\",\"197\",\"1424023\",\"0.0-197.0\",\"\",\"\",\"3-5\",\"4207\",\"38\",\"1\",\"Testing\",\"Stims/Figures/19-C-20-4.bmp\",\"za:sa:ha\",\"Down\",\"38\",\"3\",\"1\",\"6A\",\"C2\",\"C\",\"49\"
\"\",\"\",\"approach-retreat\",\"198\",\"1430267\",\"0.0-198.0\",\"\",\"\",\"3-5\",\"4726\",\"37\",\"1\",\"Testing\",\"Stims/Figures/84-C-20-2.bmp\",\"za:sa:za\",\"Right\",\"37\",\"3\",\"2\",\"6A\",\"C2\",\"C\",\"50\"
\"\",\"\",\"approach-retreat\",\"199\",\"1436078\",\"0.0-199.0\",\"\",\"\",\"3-5\",\"4286\",\"39\",\"1\",\"Testing\",\"Stims/Figures/71-C-30-1.bmp\",\"sasaza\",\"Left\",\"39\",\"3\",\"3\",\"6A\",\"C2\",\"C\",\"51\"
\"\",\"\",\"approach-retreat\",\"200\",\"1441908\",\"0.0-200.0\",\"\",\"\",\"3-5\",\"4305\",\"40\",\"1\",\"Testing\",\"Stims/Figures/44-C-30-3.bmp\",\"za:haza\",\"Up\",\"40\",\"3\",\"4\",\"6A\",\"C2\",\"C\",\"52\"
\"\",\"\",\"approach-retreat\",\"201\",\"1447653\",\"0.0-201.0\",\"\",\"\",\"3-5\",\"4223\",\"37\",\"1\",\"Testing\",\"Stims/Figures/144-J-10-3.bmp\",\"vafasha\",\"Left\",\"37\",\"3\",\"5\",\"6A\",\"C1\",\"C\",\"53\"
\"\",\"\",\"approach-retreat\",\"202\",\"1454087\",\"0.0-202.0\",\"\",\"\",\"3-5\",\"4921\",\"38\",\"1\",\"Testing\",\"Stims/Figures/57-J-0-1.bmp\",\"vashasha\",\"Up\",\"38\",\"3\",\"6\",\"6A\",\"C1\",\"C\",\"54\"
\"\",\"\",\"approach-retreat\",\"203\",\"1460270\",\"0.0-203.0\",\"\",\"\",\"3-5\",\"4660\",\"38\",\"1\",\"Testing\",\"Stims/Figures/139-J-0-2.bmp\",\"fa:shava\",\"Up\",\"38\",\"3\",\"7\",\"6A\",\"C1\",\"C\",\"55\"
\"\",\"\",\"approach-retreat\",\"204\",\"1466815\",\"0.0-204.0\",\"\",\"\",\"3-5\",\"5018\",\"37\",\"1\",\"Testing\",\"Stims/Figures/100-C-30-3.bmp\",\"sa:saha\",\"Right\",\"37\",\"3\",\"8\",\"6A\",\"C2\",\"C\",\"56\"
\"\",\"\",\"approach-retreat\",\"205\",\"1472606\",\"0.0-205.0\",\"\",\"\",\"3-5\",\"4268\",\"38\",\"1\",\"Testing\",\"Stims/Figures/57-C-30-1.bmp\",\"sa:haza\",\"Down\",\"38\",\"3\",\"9\",\"6A\",\"C2\",\"C\",\"57\"
\"\",\"\",\"approach-retreat\",\"206\",\"1478818\",\"0.0-206.0\",\"\",\"\",\"3-5\",\"4696\",\"40\",\"1\",\"Testing\",\"Stims/Figures/19-J-10-4.bmp\",\"va:shava\",\"Down\",\"40\",\"3\",\"10\",\"6A\",\"C1\",\"C\",\"58\"
\"\",\"\",\"approach-retreat\",\"207\",\"1484927\",\"0.0-207.0\",\"\",\"\",\"3-5\",\"4591\",\"39\",\"1\",\"Testing\",\"Stims/Figures/139-C-20-2.bmp\",\"sasa:za\",\"Left\",\"39\",\"3\",\"11\",\"6A\",\"C2\",\"C\",\"59\"
\"\",\"\",\"approach-retreat\",\"208\",\"1490849\",\"0.0-208.0\",\"\",\"\",\"3-5\",\"4404\",\"39\",\"1\",\"Testing\",\"Stims/Figures/71-J-0-1.bmp\",\"vashava\",\"Right\",\"39\",\"3\",\"12\",\"6A\",\"C1\",\"C\",\"60\"
\"\",\"\",\"approach-retreat\",\"209\",\"1497037\",\"0.0-209.0\",\"\",\"\",\"3-5\",\"4671\",\"37\",\"1\",\"Testing\",\"Stims/Figures/100-J-10-3.bmp\",\"vafa:sha\",\"Left\",\"37\",\"3\",\"13\",\"6A\",\"C1\",\"C\",\"61\"
\"\",\"\",\"approach-retreat\",\"210\",\"1503605\",\"0.0-210.0\",\"\",\"\",\"3-5\",\"5056\",\"39\",\"0\",\"Testing\",\"Stims/Figures/118-C-20-2.bmp\",\"sahaza\",\"Right\",\"37\",\"3\",\"14\",\"6A\",\"C2\",\"C\",\"62\"
\"\",\"\",\"approach-retreat\",\"211\",\"1510162\",\"0.0-211.0\",\"\",\"\",\"3-5\",\"5041\",\"39\",\"1\",\"Testing\",\"Stims/Figures/118-J-0-2.bmp\",\"fa:sha:va\",\"Right\",\"39\",\"3\",\"15\",\"6A\",\"C1\",\"C\",\"63\"
\"\",\"\",\"approach-retreat\",\"212\",\"1516620\",\"0.0-212.0\",\"\",\"\",\"3-5\",\"4936\",\"38\",\"1\",\"Testing\",\"Stims/Figures/86-C-30-1.bmp\",\"za:ha:za\",\"Down\",\"38\",\"3\",\"16\",\"6A\",\"C2\",\"C\",\"64\"
\"\",\"\",\"approach-retreat\",\"213\",\"1523308\",\"0.0-213.0\",\"\",\"\",\"3-5\",\"5170\",\"37\",\"1\",\"Testing\",\"Stims/Figures/74-J-10-4.bmp\",\"fafa:sha\",\"Left\",\"37\",\"3\",\"17\",\"6A\",\"C1\",\"C\",\"65\"
\"\",\"\",\"approach-retreat\",\"214\",\"1529052\",\"0.0-214.0\",\"\",\"\",\"3-5\",\"4218\",\"40\",\"1\",\"Testing\",\"Stims/Figures/86-J-0-1.bmp\",\"fa:fa:va\",\"Down\",\"40\",\"3\",\"18\",\"6A\",\"C1\",\"C\",\"66\"
\"\",\"\",\"approach-retreat\",\"215\",\"1534866\",\"0.0-215.0\",\"\",\"\",\"3-5\",\"4289\",\"37\",\"1\",\"Testing\",\"Stims/Figures/84-J-0-2.bmp\",\"fasha:sha\",\"Left\",\"37\",\"3\",\"19\",\"6A\",\"C1\",\"C\",\"67\"
\"\",\"\",\"approach-retreat\",\"216\",\"1541441\",\"0.0-216.0\",\"\",\"\",\"3-5\",\"5057\",\"40\",\"1\",\"Testing\",\"Stims/Figures/7-J-10-4.bmp\",\"va:fa:va\",\"Down\",\"40\",\"3\",\"20\",\"6A\",\"C1\",\"C\",\"68\"
\"\",\"\",\"approach-retreat\",\"217\",\"1549021\",\"0.0-217.0\",\"\",\"\",\"3-5\",\"6067\",\"40\",\"1\",\"Testing\",\"Stims/Figures/74-C-20-4.bmp\",\"zaha:za\",\"Up\",\"40\",\"3\",\"21\",\"6A\",\"C2\",\"C\",\"69\"
\"\",\"\",\"approach-retreat\",\"218\",\"1557880\",\"0.0-218.0\",\"\",\"\",\"3-5\",\"7349\",\"40\",\"0\",\"Testing\",\"Stims/Figures/44-J-10-3.bmp\",\"fa:fa:sha\",\"Up\",\"38\",\"3\",\"22\",\"6A\",\"C1\",\"C\",\"70\"
\"\",\"\",\"approach-retreat\",\"219\",\"1564318\",\"0.0-219.0\",\"\",\"\",\"3-5\",\"4918\",\"37\",\"1\",\"Testing\",\"Stims/Figures/7-C-20-4.bmp\",\"zasaza\",\"Right\",\"37\",\"3\",\"23\",\"6A\",\"C2\",\"C\",\"71\"
\"\",\"\",\"approach-retreat\",\"220\",\"1570022\",\"0.0-220.0\",\"\",\"\",\"3-5\",\"4185\",\"40\",\"1\",\"Testing\",\"Stims/Figures/144-C-30-3.bmp\",\"sahaha\",\"Up\",\"40\",\"3\",\"24\",\"6A\",\"C2\",\"C\",\"72\"
\"\",\"\",\"approach-retreat\",\"221\",\"1575755\",\"0.0-221.0\",\"\",\"\",\"3-5\",\"4221\",\"39\",\"1\",\"Testing\",\"Stims/Figures/86-J-0-1.bmp\",\"fa:fa:va\",\"Right\",\"39\",\"4\",\"1\",\"6A\",\"C1\",\"C\",\"73\"
\"\",\"\",\"approach-retreat\",\"222\",\"1581472\",\"0.0-222.0\",\"\",\"\",\"3-5\",\"4196\",\"40\",\"0\",\"Testing\",\"Stims/Figures/44-J-10-3.bmp\",\"fa:fa:sha\",\"Up\",\"38\",\"4\",\"2\",\"6A\",\"C1\",\"C\",\"74\"
\"\",\"\",\"approach-retreat\",\"223\",\"1587377\",\"0.0-223.0\",\"\",\"\",\"3-5\",\"4394\",\"38\",\"1\",\"Testing\",\"Stims/Figures/139-J-0-2.bmp\",\"fa:shava\",\"Up\",\"38\",\"4\",\"3\",\"6A\",\"C1\",\"C\",\"75\"
\"\",\"\",\"approach-retreat\",\"224\",\"1593131\",\"0.0-224.0\",\"\",\"\",\"3-5\",\"4226\",\"37\",\"1\",\"Testing\",\"Stims/Figures/71-C-30-1.bmp\",\"sasaza\",\"Right\",\"37\",\"4\",\"4\",\"6A\",\"C2\",\"C\",\"76\"
\"\",\"\",\"approach-retreat\",\"225\",\"1599836\",\"0.0-225.0\",\"\",\"\",\"3-5\",\"5187\",\"37\",\"1\",\"Testing\",\"Stims/Figures/19-J-10-4.bmp\",\"va:shava\",\"Left\",\"37\",\"4\",\"5\",\"6A\",\"C1\",\"C\",\"77\"
\"\",\"\",\"approach-retreat\",\"226\",\"1605412\",\"0.0-226.0\",\"\",\"\",\"3-5\",\"4066\",\"40\",\"1\",\"Testing\",\"Stims/Figures/74-C-20-4.bmp\",\"zaha:za\",\"Up\",\"40\",\"4\",\"6\",\"6A\",\"C2\",\"C\",\"78\"
\"\",\"\",\"approach-retreat\",\"227\",\"1611128\",\"0.0-227.0\",\"\",\"\",\"3-5\",\"4204\",\"37\",\"1\",\"Testing\",\"Stims/Figures/84-J-0-2.bmp\",\"fasha:sha\",\"Left\",\"37\",\"4\",\"7\",\"6A\",\"C1\",\"C\",\"79\"
\"\",\"\",\"approach-retreat\",\"228\",\"1617659\",\"0.0-228.0\",\"\",\"\",\"3-5\",\"5004\",\"40\",\"1\",\"Testing\",\"Stims/Figures/144-C-30-3.bmp\",\"sahaha\",\"Up\",\"40\",\"4\",\"8\",\"6A\",\"C2\",\"C\",\"80\"
\"\",\"\",\"approach-retreat\",\"229\",\"1623721\",\"0.0-229.0\",\"\",\"\",\"3-5\",\"4545\",\"37\",\"1\",\"Testing\",\"Stims/Figures/57-C-30-1.bmp\",\"sa:haza\",\"Right\",\"37\",\"4\",\"9\",\"6A\",\"C2\",\"C\",\"81\"
\"\",\"\",\"approach-retreat\",\"230\",\"1630202\",\"0.0-230.0\",\"\",\"\",\"3-5\",\"4968\",\"37\",\"1\",\"Testing\",\"Stims/Figures/86-C-30-1.bmp\",\"za:ha:za\",\"Right\",\"37\",\"4\",\"10\",\"6A\",\"C2\",\"C\",\"82\"
\"\",\"\",\"approach-retreat\",\"231\",\"1638146\",\"0.0-231.0\",\"\",\"\",\"3-5\",\"6426\",\"37\",\"1\",\"Testing\",\"Stims/Figures/144-J-10-3.bmp\",\"vafasha\",\"Left\",\"37\",\"4\",\"11\",\"6A\",\"C1\",\"C\",\"83\"
\"\",\"\",\"approach-retreat\",\"232\",\"1644396\",\"0.0-232.0\",\"\",\"\",\"3-5\",\"4728\",\"40\",\"1\",\"Testing\",\"Stims/Figures/57-J-0-1.bmp\",\"vashasha\",\"Down\",\"40\",\"4\",\"12\",\"6A\",\"C1\",\"C\",\"84\"
\"\",\"\",\"approach-retreat\",\"233\",\"1650161\",\"0.0-233.0\",\"\",\"\",\"3-5\",\"4252\",\"37\",\"1\",\"Testing\",\"Stims/Figures/118-C-20-2.bmp\",\"sahaza\",\"Right\",\"37\",\"4\",\"13\",\"6A\",\"C2\",\"C\",\"85\"
\"\",\"\",\"approach-retreat\",\"234\",\"1656254\",\"0.0-234.0\",\"\",\"\",\"3-5\",\"4568\",\"38\",\"1\",\"Testing\",\"Stims/Figures/100-C-30-3.bmp\",\"sa:saha\",\"Down\",\"38\",\"4\",\"14\",\"6A\",\"C2\",\"C\",\"86\"
\"\",\"\",\"approach-retreat\",\"235\",\"1662058\",\"0.0-235.0\",\"\",\"\",\"3-5\",\"4281\",\"39\",\"1\",\"Testing\",\"Stims/Figures/19-C-20-4.bmp\",\"za:sa:ha\",\"Left\",\"39\",\"4\",\"15\",\"6A\",\"C2\",\"C\",\"87\"
\"\",\"\",\"approach-retreat\",\"236\",\"1667681\",\"0.0-236.0\",\"\",\"\",\"3-5\",\"4098\",\"37\",\"1\",\"Testing\",\"Stims/Figures/84-C-20-2.bmp\",\"za:sa:za\",\"Right\",\"37\",\"4\",\"16\",\"6A\",\"C2\",\"C\",\"88\"
\"\",\"\",\"approach-retreat\",\"237\",\"1673899\",\"0.0-237.0\",\"\",\"\",\"3-5\",\"4698\",\"37\",\"1\",\"Testing\",\"Stims/Figures/74-J-10-4.bmp\",\"fafa:sha\",\"Left\",\"37\",\"4\",\"17\",\"6A\",\"C1\",\"C\",\"89\"
\"\",\"\",\"approach-retreat\",\"238\",\"1679554\",\"0.0-238.0\",\"\",\"\",\"3-5\",\"4142\",\"38\",\"1\",\"Testing\",\"Stims/Figures/7-C-20-4.bmp\",\"zasaza\",\"Down\",\"38\",\"4\",\"18\",\"6A\",\"C2\",\"C\",\"90\"
\"\",\"\",\"approach-retreat\",\"239\",\"1685492\",\"0.0-239.0\",\"\",\"\",\"3-5\",\"4418\",\"40\",\"1\",\"Testing\",\"Stims/Figures/71-J-0-1.bmp\",\"vashava\",\"Down\",\"40\",\"4\",\"19\",\"6A\",\"C1\",\"C\",\"91\"
\"\",\"\",\"approach-retreat\",\"240\",\"1691331\",\"0.0-240.0\",\"\",\"\",\"3-5\",\"4315\",\"40\",\"0\",\"Testing\",\"Stims/Figures/118-J-0-2.bmp\",\"fa:sha:va\",\"Up\",\"38\",\"4\",\"20\",\"6A\",\"C1\",\"C\",\"92\"
\"\",\"\",\"approach-retreat\",\"241\",\"1697169\",\"0.0-241.0\",\"\",\"\",\"3-5\",\"4313\",\"37\",\"1\",\"Testing\",\"Stims/Figures/7-J-10-4.bmp\",\"va:fa:va\",\"Left\",\"37\",\"4\",\"21\",\"6A\",\"C1\",\"C\",\"93\"
\"\",\"\",\"approach-retreat\",\"242\",\"1703278\",\"0.0-242.0\",\"\",\"\",\"3-5\",\"4590\",\"38\",\"1\",\"Testing\",\"Stims/Figures/44-C-30-3.bmp\",\"za:haza\",\"Down\",\"38\",\"4\",\"22\",\"6A\",\"C2\",\"C\",\"94\"
\"\",\"\",\"approach-retreat\",\"243\",\"1709787\",\"0.0-243.0\",\"\",\"\",\"3-5\",\"4996\",\"40\",\"1\",\"Testing\",\"Stims/Figures/100-J-10-3.bmp\",\"vafa:sha\",\"Down\",\"40\",\"4\",\"23\",\"6A\",\"C1\",\"C\",\"95\"
\"\",\"\",\"approach-retreat\",\"244\",\"1715616\",\"0.0-244.0\",\"\",\"\",\"3-5\",\"4312\",\"40\",\"1\",\"Testing\",\"Stims/Figures/139-C-20-2.bmp\",\"sasa:za\",\"Up\",\"40\",\"4\",\"24\",\"6A\",\"C2\",\"C\",\"96\"
\"35498\",\"\",\"survey-text\",\"245\",\"1751126\",\"0.0-245.0\",\"\",\"{\"\"Q0\"\":\"\"PS160034\"\"}\",\"\",\"\",\"\",\"\",\"\",\"\",\"\",\"\",\"\",\"\",\"\",\"\",\"\",\"\",\"\"
