\"rt\",\"key_press\",\"trial_type\",\"trial_index\",\"time_elapsed\",\"internal_node_id\",\"view_history\",\"responses\",\"Id\",\"Rt\",\"ResKeyCode\",\"ResCorr\",\"TrialType2\",\"Image\",\"Label\",\"Location\",\"CorrectResponse\",\"Block\",\"BlockTrial\",\"Condition\",\"LabelType\",\"Subcondition\",\"trialNum\"
\"68348\",\"32\",\"text\",\"0\",\"68353\",\"0.0-0.0-0.0\",\"\",\"\",\"\",\"\",\"\",\"\",\"\",\"\",\"\",\"\",\"\",\"\",\"\",\"\",\"\",\"\",\"\"
\"67218\",\"\",\"instructions\",\"1\",\"135571\",\"0.0-1.0\",\"[{\"\"page_index\"\":0,\"\"viewing_time\"\":67218}]\",\"\",\"\",\"\",\"\",\"\",\"\",\"\",\"\",\"\",\"\",\"\",\"\",\"\",\"\",\"\",\"\"
\"19830\",\"\",\"survey-multi-choice\",\"2\",\"155421\",\"0.0-2.0\",\"\",\"{\"\"Q0\"\":\"\"Da\"\",\"\"Q1\"\":\"\"Da\"\",\"\"Q2\"\":\"\"Da\"\",\"\"Q3\"\":\"\"Da\"\",\"\"Q4\"\":\"\"Da\"\",\"\"Q5\"\":\"\"Da\"\"}\",\"\",\"\",\"\",\"\",\"\",\"\",\"\",\"\",\"\",\"\",\"\",\"\",\"\",\"\",\"\"
\"\",\"\",\"bio\",\"3\",\"163167\",\"0.0-3.0\",\"\",\"{\"\"age\"\":\"\"19\"\",\"\"gender\"\":\"\"f\"\",\"\"specify\"\":\"\"\"\"}\",\"\",\"\",\"\",\"\",\"\",\"\",\"\",\"\",\"\",\"\",\"\",\"\",\"\",\"\",\"\"
\"\",\"\",\"approach-retreat\",\"4\",\"174825\",\"0.0-4.0\",\"\",\"\",\"2-3\",\"10122\",\"38\",\"0\",\"Training\",\"Stims/Figures/27-C-30-1.bmp\",\"pa:pa:ka\",\"Down\",\"40\",\"1\",\"1\",\"5\",\"P\",\"J\",\"1\"
\"\",\"\",\"approach-retreat\",\"5\",\"182335\",\"0.0-5.0\",\"\",\"\",\"2-3\",\"5989\",\"38\",\"1\",\"Training\",\"Stims/Figures/87-J-10-4.bmp\",\"mama:la\",\"Down\",\"38\",\"1\",\"2\",\"5\",\"S\",\"J\",\"2\"
\"\",\"\",\"approach-retreat\",\"6\",\"188846\",\"0.0-6.0\",\"\",\"\",\"2-3\",\"4982\",\"40\",\"1\",\"Training\",\"Stims/Figures/84-C-20-2.bmp\",\"pa:kata\",\"Down\",\"40\",\"1\",\"3\",\"5\",\"P\",\"J\",\"3\"
\"\",\"\",\"approach-retreat\",\"7\",\"208530\",\"0.0-7.0\",\"\",\"\",\"2-3\",\"18162\",\"37\",\"1\",\"Training\",\"Stims/Figures/144-J-10-3.bmp\",\"malala\",\"Right\",\"37\",\"1\",\"4\",\"5\",\"S\",\"J\",\"4\"
\"\",\"\",\"approach-retreat\",\"8\",\"215528\",\"0.0-8.0\",\"\",\"\",\"2-3\",\"5466\",\"37\",\"1\",\"Training\",\"Stims/Figures/139-C-20-2.bmp\",\"pa:kaka\",\"Left\",\"37\",\"1\",\"5\",\"5\",\"P\",\"J\",\"5\"
\"\",\"\",\"approach-retreat\",\"9\",\"222842\",\"0.0-9.0\",\"\",\"\",\"2-3\",\"5784\",\"40\",\"0\",\"Training\",\"Stims/Figures/139-J-0-2.bmp\",\"na:ma:na\",\"Down\",\"38\",\"1\",\"6\",\"5\",\"S\",\"J\",\"6\"
\"\",\"\",\"approach-retreat\",\"10\",\"229610\",\"0.0-10.0\",\"\",\"\",\"2-3\",\"5241\",\"40\",\"1\",\"Training\",\"Stims/Figures/84-J-0-2.bmp\",\"ma:mana\",\"Up\",\"40\",\"1\",\"7\",\"5\",\"S\",\"J\",\"7\"
\"\",\"\",\"approach-retreat\",\"11\",\"238173\",\"0.0-11.0\",\"\",\"\",\"2-3\",\"7034\",\"39\",\"0\",\"Training\",\"Stims/Figures/111-J-10-3.bmp\",\"nala:na\",\"Right\",\"37\",\"1\",\"8\",\"5\",\"S\",\"J\",\"8\"
\"\",\"\",\"approach-retreat\",\"12\",\"244460\",\"0.0-12.0\",\"\",\"\",\"2-3\",\"4755\",\"37\",\"1\",\"Training\",\"Stims/Figures/144-C-30-3.bmp\",\"takaka\",\"Left\",\"37\",\"1\",\"9\",\"5\",\"P\",\"J\",\"9\"
\"\",\"\",\"approach-retreat\",\"13\",\"250389\",\"0.0-13.0\",\"\",\"\",\"2-3\",\"4394\",\"39\",\"0\",\"Training\",\"Stims/Figures/87-C-20-4.bmp\",\"papata\",\"Left\",\"37\",\"1\",\"10\",\"5\",\"P\",\"J\",\"10\"
\"\",\"\",\"approach-retreat\",\"14\",\"256373\",\"0.0-14.0\",\"\",\"\",\"2-3\",\"4457\",\"39\",\"0\",\"Training\",\"Stims/Figures/111-C-30-3.bmp\",\"tapa:ta\",\"Left\",\"37\",\"1\",\"11\",\"5\",\"P\",\"J\",\"11\"
\"\",\"\",\"approach-retreat\",\"15\",\"262858\",\"0.0-15.0\",\"\",\"\",\"2-3\",\"4968\",\"37\",\"1\",\"Training\",\"Stims/Figures/27-J-0-1.bmp\",\"nalana\",\"Right\",\"37\",\"1\",\"12\",\"5\",\"S\",\"J\",\"12\"
\"\",\"\",\"approach-retreat\",\"16\",\"268726\",\"0.0-16.0\",\"\",\"\",\"2-3\",\"4336\",\"40\",\"0\",\"Training\",\"Stims/Figures/57-C-30-1.bmp\",\"tapaka\",\"Up\",\"38\",\"1\",\"13\",\"5\",\"P\",\"J\",\"13\"
\"\",\"\",\"approach-retreat\",\"17\",\"274403\",\"0.0-17.0\",\"\",\"\",\"2-3\",\"4151\",\"40\",\"1\",\"Training\",\"Stims/Figures/19-J-10-4.bmp\",\"na:mana\",\"Up\",\"40\",\"1\",\"14\",\"5\",\"S\",\"J\",\"14\"
\"\",\"\",\"approach-retreat\",\"18\",\"280805\",\"0.0-18.0\",\"\",\"\",\"2-3\",\"4870\",\"40\",\"1\",\"Training\",\"Stims/Figures/57-J-0-1.bmp\",\"namala\",\"Up\",\"40\",\"1\",\"15\",\"5\",\"S\",\"J\",\"15\"
\"\",\"\",\"approach-retreat\",\"19\",\"286885\",\"0.0-19.0\",\"\",\"\",\"2-3\",\"4555\",\"37\",\"0\",\"Training\",\"Stims/Figures/19-C-20-4.bmp\",\"ta:ka:ta\",\"Right\",\"39\",\"1\",\"16\",\"5\",\"P\",\"J\",\"16\"
\"\",\"\",\"approach-retreat\",\"20\",\"293580\",\"0.0-20.0\",\"\",\"\",\"2-3\",\"5175\",\"38\",\"1\",\"Training\",\"Stims/Figures/27-C-30-1.bmp\",\"pa:pa:ka\",\"Up\",\"38\",\"2\",\"1\",\"5\",\"P\",\"J\",\"17\"
\"\",\"\",\"approach-retreat\",\"21\",\"302964\",\"0.0-21.0\",\"\",\"\",\"2-3\",\"7851\",\"40\",\"0\",\"Training\",\"Stims/Figures/84-J-0-2.bmp\",\"ma:mana\",\"Down\",\"38\",\"2\",\"2\",\"5\",\"S\",\"J\",\"18\"
\"\",\"\",\"approach-retreat\",\"22\",\"310400\",\"0.0-22.0\",\"\",\"\",\"2-3\",\"5910\",\"37\",\"1\",\"Training\",\"Stims/Figures/139-C-20-2.bmp\",\"pa:kaka\",\"Left\",\"37\",\"2\",\"3\",\"5\",\"P\",\"J\",\"19\"
\"\",\"\",\"approach-retreat\",\"23\",\"316548\",\"0.0-23.0\",\"\",\"\",\"2-3\",\"4621\",\"37\",\"1\",\"Training\",\"Stims/Figures/19-C-20-4.bmp\",\"ta:ka:ta\",\"Left\",\"37\",\"2\",\"4\",\"5\",\"P\",\"J\",\"20\"
\"\",\"\",\"approach-retreat\",\"24\",\"322362\",\"0.0-24.0\",\"\",\"\",\"2-3\",\"4298\",\"40\",\"0\",\"Training\",\"Stims/Figures/57-J-0-1.bmp\",\"namala\",\"Down\",\"38\",\"2\",\"5\",\"5\",\"S\",\"J\",\"21\"
\"\",\"\",\"approach-retreat\",\"25\",\"328298\",\"0.0-25.0\",\"\",\"\",\"2-3\",\"4424\",\"37\",\"1\",\"Training\",\"Stims/Figures/87-C-20-4.bmp\",\"papata\",\"Left\",\"37\",\"2\",\"6\",\"5\",\"P\",\"J\",\"22\"
\"\",\"\",\"approach-retreat\",\"26\",\"335732\",\"0.0-26.0\",\"\",\"\",\"2-3\",\"5908\",\"40\",\"1\",\"Training\",\"Stims/Figures/19-J-10-4.bmp\",\"na:mana\",\"Up\",\"40\",\"2\",\"7\",\"5\",\"S\",\"J\",\"23\"
\"\",\"\",\"approach-retreat\",\"27\",\"342076\",\"0.0-27.0\",\"\",\"\",\"2-3\",\"4802\",\"40\",\"0\",\"Training\",\"Stims/Figures/144-J-10-3.bmp\",\"malala\",\"Down\",\"38\",\"2\",\"8\",\"5\",\"S\",\"J\",\"24\"
\"\",\"\",\"approach-retreat\",\"28\",\"350214\",\"0.0-28.0\",\"\",\"\",\"2-3\",\"6611\",\"40\",\"1\",\"Training\",\"Stims/Figures/27-J-0-1.bmp\",\"nalana\",\"Up\",\"40\",\"2\",\"9\",\"5\",\"S\",\"J\",\"25\"
\"\",\"\",\"approach-retreat\",\"29\",\"360744\",\"0.0-29.0\",\"\",\"\",\"2-3\",\"9005\",\"39\",\"1\",\"Training\",\"Stims/Figures/84-C-20-2.bmp\",\"pa:kata\",\"Right\",\"39\",\"2\",\"10\",\"5\",\"P\",\"J\",\"26\"
\"\",\"\",\"approach-retreat\",\"30\",\"368090\",\"0.0-30.0\",\"\",\"\",\"2-3\",\"5816\",\"37\",\"1\",\"Training\",\"Stims/Figures/111-C-30-3.bmp\",\"tapa:ta\",\"Left\",\"37\",\"2\",\"11\",\"5\",\"P\",\"J\",\"27\"
\"\",\"\",\"approach-retreat\",\"31\",\"374939\",\"0.0-31.0\",\"\",\"\",\"2-3\",\"5297\",\"38\",\"1\",\"Training\",\"Stims/Figures/87-J-10-4.bmp\",\"mama:la\",\"Down\",\"38\",\"2\",\"12\",\"5\",\"S\",\"J\",\"28\"
\"\",\"\",\"approach-retreat\",\"32\",\"380855\",\"0.0-32.0\",\"\",\"\",\"2-3\",\"4402\",\"40\",\"0\",\"Training\",\"Stims/Figures/57-C-30-1.bmp\",\"tapaka\",\"Up\",\"38\",\"2\",\"13\",\"5\",\"P\",\"J\",\"29\"
\"\",\"\",\"approach-retreat\",\"33\",\"388355\",\"0.0-33.0\",\"\",\"\",\"2-3\",\"5975\",\"39\",\"1\",\"Training\",\"Stims/Figures/144-C-30-3.bmp\",\"takaka\",\"Right\",\"39\",\"2\",\"14\",\"5\",\"P\",\"J\",\"30\"
\"\",\"\",\"approach-retreat\",\"34\",\"398973\",\"0.0-34.0\",\"\",\"\",\"2-3\",\"9100\",\"37\",\"1\",\"Training\",\"Stims/Figures/111-J-10-3.bmp\",\"nala:na\",\"Right\",\"37\",\"2\",\"15\",\"5\",\"S\",\"J\",\"31\"
\"\",\"\",\"approach-retreat\",\"35\",\"407289\",\"0.0-35.0\",\"\",\"\",\"2-3\",\"6788\",\"37\",\"1\",\"Training\",\"Stims/Figures/139-J-0-2.bmp\",\"na:ma:na\",\"Right\",\"37\",\"2\",\"16\",\"5\",\"S\",\"J\",\"32\"
\"\",\"\",\"approach-retreat\",\"36\",\"412669\",\"0.0-36.0\",\"\",\"\",\"2-3\",\"3842\",\"37\",\"1\",\"Training\",\"Stims/Figures/139-J-0-2.bmp\",\"na:ma:na\",\"Right\",\"37\",\"3\",\"1\",\"5\",\"S\",\"J\",\"33\"
\"\",\"\",\"approach-retreat\",\"37\",\"418471\",\"0.0-37.0\",\"\",\"\",\"2-3\",\"4275\",\"38\",\"1\",\"Training\",\"Stims/Figures/84-J-0-2.bmp\",\"ma:mana\",\"Down\",\"38\",\"3\",\"2\",\"5\",\"S\",\"J\",\"34\"
\"\",\"\",\"approach-retreat\",\"38\",\"424699\",\"0.0-38.0\",\"\",\"\",\"2-3\",\"4709\",\"40\",\"1\",\"Training\",\"Stims/Figures/19-J-10-4.bmp\",\"na:mana\",\"Up\",\"40\",\"3\",\"3\",\"5\",\"S\",\"J\",\"35\"
\"\",\"\",\"approach-retreat\",\"39\",\"433951\",\"0.0-39.0\",\"\",\"\",\"2-3\",\"7729\",\"37\",\"1\",\"Training\",\"Stims/Figures/57-C-30-1.bmp\",\"tapaka\",\"Left\",\"37\",\"3\",\"4\",\"5\",\"P\",\"J\",\"36\"
\"\",\"\",\"approach-retreat\",\"40\",\"442033\",\"0.0-40.0\",\"\",\"\",\"2-3\",\"6557\",\"40\",\"1\",\"Training\",\"Stims/Figures/19-C-20-4.bmp\",\"ta:ka:ta\",\"Down\",\"40\",\"3\",\"5\",\"5\",\"P\",\"J\",\"37\"
\"\",\"\",\"approach-retreat\",\"41\",\"451948\",\"0.0-41.0\",\"\",\"\",\"2-3\",\"8386\",\"39\",\"1\",\"Training\",\"Stims/Figures/111-J-10-3.bmp\",\"nala:na\",\"Left\",\"39\",\"3\",\"6\",\"5\",\"S\",\"J\",\"38\"
\"\",\"\",\"approach-retreat\",\"42\",\"458232\",\"0.0-42.0\",\"\",\"\",\"2-3\",\"4762\",\"37\",\"1\",\"Training\",\"Stims/Figures/57-J-0-1.bmp\",\"namala\",\"Right\",\"37\",\"3\",\"7\",\"5\",\"S\",\"J\",\"39\"
\"\",\"\",\"approach-retreat\",\"43\",\"464562\",\"0.0-43.0\",\"\",\"\",\"2-3\",\"4810\",\"39\",\"1\",\"Training\",\"Stims/Figures/87-J-10-4.bmp\",\"mama:la\",\"Left\",\"39\",\"3\",\"8\",\"5\",\"S\",\"J\",\"40\"
\"\",\"\",\"approach-retreat\",\"44\",\"472165\",\"0.0-44.0\",\"\",\"\",\"2-3\",\"6088\",\"40\",\"1\",\"Training\",\"Stims/Figures/111-C-30-3.bmp\",\"tapa:ta\",\"Down\",\"40\",\"3\",\"9\",\"5\",\"P\",\"J\",\"41\"
\"\",\"\",\"approach-retreat\",\"45\",\"478242\",\"0.0-45.0\",\"\",\"\",\"2-3\",\"4534\",\"40\",\"1\",\"Training\",\"Stims/Figures/27-J-0-1.bmp\",\"nalana\",\"Up\",\"40\",\"3\",\"10\",\"5\",\"S\",\"J\",\"42\"
\"\",\"\",\"approach-retreat\",\"46\",\"486191\",\"0.0-46.0\",\"\",\"\",\"2-3\",\"6409\",\"39\",\"1\",\"Training\",\"Stims/Figures/139-C-20-2.bmp\",\"pa:kaka\",\"Right\",\"39\",\"3\",\"11\",\"5\",\"P\",\"J\",\"43\"
\"\",\"\",\"approach-retreat\",\"47\",\"492410\",\"0.0-47.0\",\"\",\"\",\"2-3\",\"4698\",\"37\",\"1\",\"Training\",\"Stims/Figures/27-C-30-1.bmp\",\"pa:pa:ka\",\"Left\",\"37\",\"3\",\"12\",\"5\",\"P\",\"J\",\"44\"
\"\",\"\",\"approach-retreat\",\"48\",\"502414\",\"0.0-48.0\",\"\",\"\",\"2-3\",\"8473\",\"39\",\"1\",\"Training\",\"Stims/Figures/144-C-30-3.bmp\",\"takaka\",\"Right\",\"39\",\"3\",\"13\",\"5\",\"P\",\"J\",\"45\"
\"\",\"\",\"approach-retreat\",\"49\",\"515753\",\"0.0-49.0\",\"\",\"\",\"2-3\",\"11807\",\"38\",\"1\",\"Training\",\"Stims/Figures/84-C-20-2.bmp\",\"pa:kata\",\"Up\",\"38\",\"3\",\"14\",\"5\",\"P\",\"J\",\"46\"
\"\",\"\",\"approach-retreat\",\"50\",\"522283\",\"0.0-50.0\",\"\",\"\",\"2-3\",\"5012\",\"40\",\"1\",\"Training\",\"Stims/Figures/144-J-10-3.bmp\",\"malala\",\"Up\",\"40\",\"3\",\"15\",\"5\",\"S\",\"J\",\"47\"
\"\",\"\",\"approach-retreat\",\"51\",\"530421\",\"0.0-51.0\",\"\",\"\",\"2-3\",\"6614\",\"40\",\"1\",\"Training\",\"Stims/Figures/87-C-20-4.bmp\",\"papata\",\"Down\",\"40\",\"3\",\"16\",\"5\",\"P\",\"J\",\"48\"
\"\",\"\",\"approach-retreat\",\"52\",\"536205\",\"0.0-52.0\",\"\",\"\",\"2-3\",\"4266\",\"39\",\"1\",\"Training\",\"Stims/Figures/87-J-10-4.bmp\",\"mama:la\",\"Left\",\"39\",\"4\",\"1\",\"5\",\"S\",\"J\",\"49\"
\"\",\"\",\"approach-retreat\",\"53\",\"542003\",\"0.0-53.0\",\"\",\"\",\"2-3\",\"4268\",\"39\",\"1\",\"Training\",\"Stims/Figures/144-J-10-3.bmp\",\"malala\",\"Left\",\"39\",\"4\",\"2\",\"5\",\"S\",\"J\",\"50\"
\"\",\"\",\"approach-retreat\",\"54\",\"548998\",\"0.0-54.0\",\"\",\"\",\"2-3\",\"5471\",\"38\",\"1\",\"Training\",\"Stims/Figures/139-J-0-2.bmp\",\"na:ma:na\",\"Down\",\"38\",\"4\",\"3\",\"5\",\"S\",\"J\",\"51\"
\"\",\"\",\"approach-retreat\",\"55\",\"555035\",\"0.0-55.0\",\"\",\"\",\"2-3\",\"4514\",\"37\",\"1\",\"Training\",\"Stims/Figures/27-J-0-1.bmp\",\"nalana\",\"Right\",\"37\",\"4\",\"4\",\"5\",\"S\",\"J\",\"52\"
\"\",\"\",\"approach-retreat\",\"56\",\"561216\",\"0.0-56.0\",\"\",\"\",\"2-3\",\"4656\",\"38\",\"1\",\"Training\",\"Stims/Figures/111-J-10-3.bmp\",\"nala:na\",\"Down\",\"38\",\"4\",\"5\",\"5\",\"S\",\"J\",\"53\"
\"\",\"\",\"approach-retreat\",\"57\",\"567682\",\"0.0-57.0\",\"\",\"\",\"2-3\",\"4942\",\"38\",\"1\",\"Training\",\"Stims/Figures/84-C-20-2.bmp\",\"pa:kata\",\"Up\",\"38\",\"4\",\"6\",\"5\",\"P\",\"J\",\"54\"
\"\",\"\",\"approach-retreat\",\"58\",\"573646\",\"0.0-58.0\",\"\",\"\",\"2-3\",\"4438\",\"40\",\"1\",\"Training\",\"Stims/Figures/139-C-20-2.bmp\",\"pa:kaka\",\"Down\",\"40\",\"4\",\"7\",\"5\",\"P\",\"J\",\"55\"
\"\",\"\",\"approach-retreat\",\"59\",\"580048\",\"0.0-59.0\",\"\",\"\",\"2-3\",\"4871\",\"37\",\"1\",\"Training\",\"Stims/Figures/87-C-20-4.bmp\",\"papata\",\"Left\",\"37\",\"4\",\"8\",\"5\",\"P\",\"J\",\"56\"
\"\",\"\",\"approach-retreat\",\"60\",\"585962\",\"0.0-60.0\",\"\",\"\",\"2-3\",\"4388\",\"40\",\"1\",\"Training\",\"Stims/Figures/27-C-30-1.bmp\",\"pa:pa:ka\",\"Down\",\"40\",\"4\",\"9\",\"5\",\"P\",\"J\",\"57\"
\"\",\"\",\"approach-retreat\",\"61\",\"591712\",\"0.0-61.0\",\"\",\"\",\"2-3\",\"4218\",\"40\",\"0\",\"Training\",\"Stims/Figures/57-C-30-1.bmp\",\"tapaka\",\"Up\",\"38\",\"4\",\"10\",\"5\",\"P\",\"J\",\"58\"
\"\",\"\",\"approach-retreat\",\"62\",\"598996\",\"0.0-62.0\",\"\",\"\",\"2-3\",\"5765\",\"39\",\"1\",\"Training\",\"Stims/Figures/57-J-0-1.bmp\",\"namala\",\"Left\",\"39\",\"4\",\"11\",\"5\",\"S\",\"J\",\"59\"
\"\",\"\",\"approach-retreat\",\"63\",\"605976\",\"0.0-63.0\",\"\",\"\",\"2-3\",\"5443\",\"38\",\"1\",\"Training\",\"Stims/Figures/19-C-20-4.bmp\",\"ta:ka:ta\",\"Up\",\"38\",\"4\",\"12\",\"5\",\"P\",\"J\",\"60\"
\"\",\"\",\"approach-retreat\",\"64\",\"612212\",\"0.0-64.0\",\"\",\"\",\"2-3\",\"4702\",\"37\",\"1\",\"Training\",\"Stims/Figures/84-J-0-2.bmp\",\"ma:mana\",\"Right\",\"37\",\"4\",\"13\",\"5\",\"S\",\"J\",\"61\"
\"\",\"\",\"approach-retreat\",\"65\",\"618292\",\"0.0-65.0\",\"\",\"\",\"2-3\",\"4563\",\"38\",\"1\",\"Training\",\"Stims/Figures/144-C-30-3.bmp\",\"takaka\",\"Up\",\"38\",\"4\",\"14\",\"5\",\"P\",\"J\",\"62\"
\"\",\"\",\"approach-retreat\",\"66\",\"625178\",\"0.0-66.0\",\"\",\"\",\"2-3\",\"5361\",\"37\",\"1\",\"Training\",\"Stims/Figures/19-J-10-4.bmp\",\"na:mana\",\"Right\",\"37\",\"4\",\"15\",\"5\",\"S\",\"J\",\"63\"
\"\",\"\",\"approach-retreat\",\"67\",\"631246\",\"0.0-67.0\",\"\",\"\",\"2-3\",\"4552\",\"39\",\"1\",\"Training\",\"Stims/Figures/111-C-30-3.bmp\",\"tapa:ta\",\"Right\",\"39\",\"4\",\"16\",\"5\",\"P\",\"J\",\"64\"
\"\",\"\",\"approach-retreat\",\"68\",\"639019\",\"0.0-68.0\",\"\",\"\",\"2-3\",\"6243\",\"40\",\"1\",\"Training\",\"Stims/Figures/139-J-0-2.bmp\",\"na:ma:na\",\"Up\",\"40\",\"5\",\"1\",\"5\",\"S\",\"J\",\"65\"
\"\",\"\",\"approach-retreat\",\"69\",\"645187\",\"0.0-69.0\",\"\",\"\",\"2-3\",\"4623\",\"39\",\"1\",\"Training\",\"Stims/Figures/139-C-20-2.bmp\",\"pa:kaka\",\"Right\",\"39\",\"5\",\"2\",\"5\",\"P\",\"J\",\"66\"
\"\",\"\",\"approach-retreat\",\"70\",\"651203\",\"0.0-70.0\",\"\",\"\",\"2-3\",\"4489\",\"38\",\"1\",\"Training\",\"Stims/Figures/27-J-0-1.bmp\",\"nalana\",\"Down\",\"38\",\"5\",\"3\",\"5\",\"S\",\"J\",\"67\"
\"\",\"\",\"approach-retreat\",\"71\",\"657678\",\"0.0-71.0\",\"\",\"\",\"2-3\",\"4957\",\"37\",\"1\",\"Training\",\"Stims/Figures/84-J-0-2.bmp\",\"ma:mana\",\"Right\",\"37\",\"5\",\"4\",\"5\",\"S\",\"J\",\"68\"
\"\",\"\",\"approach-retreat\",\"72\",\"663703\",\"0.0-72.0\",\"\",\"\",\"2-3\",\"4504\",\"37\",\"0\",\"Training\",\"Stims/Figures/111-C-30-3.bmp\",\"tapa:ta\",\"Right\",\"39\",\"5\",\"5\",\"5\",\"P\",\"J\",\"69\"
\"\",\"\",\"approach-retreat\",\"73\",\"669905\",\"0.0-73.0\",\"\",\"\",\"2-3\",\"4681\",\"38\",\"1\",\"Training\",\"Stims/Figures/87-J-10-4.bmp\",\"mama:la\",\"Down\",\"38\",\"5\",\"6\",\"5\",\"S\",\"J\",\"70\"
\"\",\"\",\"approach-retreat\",\"74\",\"676664\",\"0.0-74.0\",\"\",\"\",\"2-3\",\"5243\",\"40\",\"1\",\"Training\",\"Stims/Figures/144-C-30-3.bmp\",\"takaka\",\"Down\",\"40\",\"5\",\"7\",\"5\",\"P\",\"J\",\"71\"
\"\",\"\",\"approach-retreat\",\"75\",\"683435\",\"0.0-75.0\",\"\",\"\",\"2-3\",\"5246\",\"37\",\"1\",\"Training\",\"Stims/Figures/19-C-20-4.bmp\",\"ta:ka:ta\",\"Left\",\"37\",\"5\",\"8\",\"5\",\"P\",\"J\",\"72\"
\"\",\"\",\"approach-retreat\",\"76\",\"690039\",\"0.0-76.0\",\"\",\"\",\"2-3\",\"5084\",\"40\",\"1\",\"Training\",\"Stims/Figures/57-C-30-1.bmp\",\"tapaka\",\"Down\",\"40\",\"5\",\"9\",\"5\",\"P\",\"J\",\"73\"
\"\",\"\",\"approach-retreat\",\"77\",\"696769\",\"0.0-77.0\",\"\",\"\",\"2-3\",\"5207\",\"40\",\"1\",\"Training\",\"Stims/Figures/19-J-10-4.bmp\",\"na:mana\",\"Up\",\"40\",\"5\",\"10\",\"5\",\"S\",\"J\",\"74\"
\"\",\"\",\"approach-retreat\",\"78\",\"704446\",\"0.0-78.0\",\"\",\"\",\"2-3\",\"6159\",\"39\",\"1\",\"Training\",\"Stims/Figures/111-J-10-3.bmp\",\"nala:na\",\"Left\",\"39\",\"5\",\"11\",\"5\",\"S\",\"J\",\"75\"
\"\",\"\",\"approach-retreat\",\"79\",\"712244\",\"0.0-79.0\",\"\",\"\",\"2-3\",\"6275\",\"38\",\"1\",\"Training\",\"Stims/Figures/27-C-30-1.bmp\",\"pa:pa:ka\",\"Up\",\"38\",\"5\",\"12\",\"5\",\"P\",\"J\",\"76\"
\"\",\"\",\"approach-retreat\",\"80\",\"718532\",\"0.0-80.0\",\"\",\"\",\"2-3\",\"4770\",\"37\",\"1\",\"Training\",\"Stims/Figures/84-C-20-2.bmp\",\"pa:kata\",\"Left\",\"37\",\"5\",\"13\",\"5\",\"P\",\"J\",\"77\"
\"\",\"\",\"approach-retreat\",\"81\",\"724646\",\"0.0-81.0\",\"\",\"\",\"2-3\",\"4588\",\"39\",\"1\",\"Training\",\"Stims/Figures/144-J-10-3.bmp\",\"malala\",\"Left\",\"39\",\"5\",\"14\",\"5\",\"S\",\"J\",\"78\"
\"\",\"\",\"approach-retreat\",\"82\",\"731649\",\"0.0-82.0\",\"\",\"\",\"2-3\",\"5482\",\"38\",\"1\",\"Training\",\"Stims/Figures/87-C-20-4.bmp\",\"papata\",\"Up\",\"38\",\"5\",\"15\",\"5\",\"P\",\"J\",\"79\"
\"\",\"\",\"approach-retreat\",\"83\",\"739660\",\"0.0-83.0\",\"\",\"\",\"2-3\",\"6486\",\"37\",\"1\",\"Training\",\"Stims/Figures/57-J-0-1.bmp\",\"namala\",\"Right\",\"37\",\"5\",\"16\",\"5\",\"S\",\"J\",\"80\"
\"\",\"\",\"approach-retreat\",\"84\",\"745957\",\"0.0-84.0\",\"\",\"\",\"2-3\",\"4763\",\"40\",\"1\",\"Training\",\"Stims/Figures/57-C-30-1.bmp\",\"tapaka\",\"Down\",\"40\",\"6\",\"1\",\"5\",\"P\",\"J\",\"81\"
\"\",\"\",\"approach-retreat\",\"85\",\"752010\",\"0.0-85.0\",\"\",\"\",\"2-3\",\"4525\",\"37\",\"1\",\"Training\",\"Stims/Figures/84-C-20-2.bmp\",\"pa:kata\",\"Left\",\"37\",\"6\",\"2\",\"5\",\"P\",\"J\",\"82\"
\"\",\"\",\"approach-retreat\",\"86\",\"758239\",\"0.0-86.0\",\"\",\"\",\"2-3\",\"4702\",\"38\",\"1\",\"Training\",\"Stims/Figures/19-C-20-4.bmp\",\"ta:ka:ta\",\"Up\",\"38\",\"6\",\"3\",\"5\",\"P\",\"J\",\"83\"
\"\",\"\",\"approach-retreat\",\"87\",\"764269\",\"0.0-87.0\",\"\",\"\",\"2-3\",\"4511\",\"40\",\"1\",\"Training\",\"Stims/Figures/139-C-20-2.bmp\",\"pa:kaka\",\"Down\",\"40\",\"6\",\"4\",\"5\",\"P\",\"J\",\"84\"
\"\",\"\",\"approach-retreat\",\"88\",\"770287\",\"0.0-88.0\",\"\",\"\",\"2-3\",\"4489\",\"37\",\"1\",\"Training\",\"Stims/Figures/87-C-20-4.bmp\",\"papata\",\"Left\",\"37\",\"6\",\"5\",\"5\",\"P\",\"J\",\"85\"
\"\",\"\",\"approach-retreat\",\"89\",\"776455\",\"0.0-89.0\",\"\",\"\",\"2-3\",\"4650\",\"40\",\"1\",\"Training\",\"Stims/Figures/27-C-30-1.bmp\",\"pa:pa:ka\",\"Down\",\"40\",\"6\",\"6\",\"5\",\"P\",\"J\",\"86\"
\"\",\"\",\"approach-retreat\",\"90\",\"782421\",\"0.0-90.0\",\"\",\"\",\"2-3\",\"4432\",\"37\",\"1\",\"Training\",\"Stims/Figures/84-J-0-2.bmp\",\"ma:mana\",\"Right\",\"37\",\"6\",\"7\",\"5\",\"S\",\"J\",\"87\"
\"\",\"\",\"approach-retreat\",\"91\",\"788173\",\"0.0-91.0\",\"\",\"\",\"2-3\",\"4220\",\"37\",\"1\",\"Training\",\"Stims/Figures/139-J-0-2.bmp\",\"na:ma:na\",\"Right\",\"37\",\"6\",\"8\",\"5\",\"S\",\"J\",\"88\"
\"\",\"\",\"approach-retreat\",\"92\",\"793773\",\"0.0-92.0\",\"\",\"\",\"2-3\",\"4075\",\"37\",\"1\",\"Training\",\"Stims/Figures/27-J-0-1.bmp\",\"nalana\",\"Right\",\"37\",\"6\",\"9\",\"5\",\"S\",\"J\",\"89\"
\"\",\"\",\"approach-retreat\",\"93\",\"800169\",\"0.0-93.0\",\"\",\"\",\"2-3\",\"4868\",\"40\",\"1\",\"Training\",\"Stims/Figures/111-C-30-3.bmp\",\"tapa:ta\",\"Down\",\"40\",\"6\",\"10\",\"5\",\"P\",\"J\",\"90\"
\"\",\"\",\"approach-retreat\",\"94\",\"806169\",\"0.0-94.0\",\"\",\"\",\"2-3\",\"4484\",\"40\",\"1\",\"Training\",\"Stims/Figures/144-J-10-3.bmp\",\"malala\",\"Up\",\"40\",\"6\",\"11\",\"5\",\"S\",\"J\",\"91\"
\"\",\"\",\"approach-retreat\",\"95\",\"811921\",\"0.0-95.0\",\"\",\"\",\"2-3\",\"4221\",\"40\",\"1\",\"Training\",\"Stims/Figures/87-J-10-4.bmp\",\"mama:la\",\"Up\",\"40\",\"6\",\"12\",\"5\",\"S\",\"J\",\"92\"
\"\",\"\",\"approach-retreat\",\"96\",\"817901\",\"0.0-96.0\",\"\",\"\",\"2-3\",\"4449\",\"39\",\"1\",\"Training\",\"Stims/Figures/144-C-30-3.bmp\",\"takaka\",\"Right\",\"39\",\"6\",\"13\",\"5\",\"P\",\"J\",\"93\"
\"\",\"\",\"approach-retreat\",\"97\",\"824498\",\"0.0-97.0\",\"\",\"\",\"2-3\",\"5070\",\"39\",\"1\",\"Training\",\"Stims/Figures/19-J-10-4.bmp\",\"na:mana\",\"Left\",\"39\",\"6\",\"14\",\"5\",\"S\",\"J\",\"94\"
\"\",\"\",\"approach-retreat\",\"98\",\"831537\",\"0.0-98.0\",\"\",\"\",\"2-3\",\"5523\",\"40\",\"1\",\"Training\",\"Stims/Figures/111-J-10-3.bmp\",\"nala:na\",\"Up\",\"40\",\"6\",\"15\",\"5\",\"S\",\"J\",\"95\"
\"\",\"\",\"approach-retreat\",\"99\",\"837346\",\"0.0-99.0\",\"\",\"\",\"2-3\",\"4279\",\"39\",\"1\",\"Training\",\"Stims/Figures/57-J-0-1.bmp\",\"namala\",\"Left\",\"39\",\"6\",\"16\",\"5\",\"S\",\"J\",\"96\"
\"\",\"\",\"approach-retreat\",\"100\",\"843616\",\"0.0-100.0\",\"\",\"\",\"2-3\",\"4746\",\"37\",\"1\",\"Training\",\"Stims/Figures/111-C-30-3.bmp\",\"tapa:ta\",\"Left\",\"37\",\"7\",\"1\",\"5\",\"P\",\"J\",\"97\"
\"\",\"\",\"approach-retreat\",\"101\",\"849599\",\"0.0-101.0\",\"\",\"\",\"2-3\",\"4462\",\"40\",\"1\",\"Training\",\"Stims/Figures/84-C-20-2.bmp\",\"pa:kata\",\"Down\",\"40\",\"7\",\"2\",\"5\",\"P\",\"J\",\"98\"
\"\",\"\",\"approach-retreat\",\"102\",\"855446\",\"0.0-102.0\",\"\",\"\",\"2-3\",\"4313\",\"37\",\"1\",\"Training\",\"Stims/Figures/84-J-0-2.bmp\",\"ma:mana\",\"Right\",\"37\",\"7\",\"3\",\"5\",\"S\",\"J\",\"99\"
\"\",\"\",\"approach-retreat\",\"103\",\"861578\",\"0.0-103.0\",\"\",\"\",\"2-3\",\"4607\",\"39\",\"1\",\"Training\",\"Stims/Figures/27-J-0-1.bmp\",\"nalana\",\"Left\",\"39\",\"7\",\"4\",\"5\",\"S\",\"J\",\"100\"
\"\",\"\",\"approach-retreat\",\"104\",\"868196\",\"0.0-104.0\",\"\",\"\",\"2-3\",\"5089\",\"37\",\"1\",\"Training\",\"Stims/Figures/57-J-0-1.bmp\",\"namala\",\"Right\",\"37\",\"7\",\"5\",\"5\",\"S\",\"J\",\"101\"
\"\",\"\",\"approach-retreat\",\"105\",\"873994\",\"0.0-105.0\",\"\",\"\",\"2-3\",\"4272\",\"39\",\"1\",\"Training\",\"Stims/Figures/57-C-30-1.bmp\",\"tapaka\",\"Right\",\"39\",\"7\",\"6\",\"5\",\"P\",\"J\",\"102\"
\"\",\"\",\"approach-retreat\",\"106\",\"879973\",\"0.0-106.0\",\"\",\"\",\"2-3\",\"4441\",\"40\",\"1\",\"Training\",\"Stims/Figures/27-C-30-1.bmp\",\"pa:pa:ka\",\"Down\",\"40\",\"7\",\"7\",\"5\",\"P\",\"J\",\"103\"
\"\",\"\",\"approach-retreat\",\"107\",\"887044\",\"0.0-107.0\",\"\",\"\",\"2-3\",\"5550\",\"40\",\"1\",\"Training\",\"Stims/Figures/144-J-10-3.bmp\",\"malala\",\"Up\",\"40\",\"7\",\"8\",\"5\",\"S\",\"J\",\"104\"
\"\",\"\",\"approach-retreat\",\"108\",\"892760\",\"0.0-108.0\",\"\",\"\",\"2-3\",\"4184\",\"37\",\"0\",\"Training\",\"Stims/Figures/19-C-20-4.bmp\",\"ta:ka:ta\",\"Right\",\"39\",\"7\",\"9\",\"5\",\"P\",\"J\",\"105\"
\"\",\"\",\"approach-retreat\",\"109\",\"901737\",\"0.0-109.0\",\"\",\"\",\"2-3\",\"7445\",\"38\",\"1\",\"Training\",\"Stims/Figures/144-C-30-3.bmp\",\"takaka\",\"Up\",\"38\",\"7\",\"10\",\"5\",\"P\",\"J\",\"106\"
\"\",\"\",\"approach-retreat\",\"110\",\"907844\",\"0.0-110.0\",\"\",\"\",\"2-3\",\"4591\",\"38\",\"1\",\"Training\",\"Stims/Figures/19-J-10-4.bmp\",\"na:mana\",\"Down\",\"38\",\"7\",\"11\",\"5\",\"S\",\"J\",\"107\"
\"\",\"\",\"approach-retreat\",\"111\",\"914055\",\"0.0-111.0\",\"\",\"\",\"2-3\",\"4680\",\"37\",\"1\",\"Training\",\"Stims/Figures/87-C-20-4.bmp\",\"papata\",\"Left\",\"37\",\"7\",\"12\",\"5\",\"P\",\"J\",\"108\"
\"\",\"\",\"approach-retreat\",\"112\",\"922266\",\"0.0-112.0\",\"\",\"\",\"2-3\",\"6684\",\"40\",\"1\",\"Training\",\"Stims/Figures/111-J-10-3.bmp\",\"nala:na\",\"Up\",\"40\",\"7\",\"13\",\"5\",\"S\",\"J\",\"109\"
\"\",\"\",\"approach-retreat\",\"113\",\"928055\",\"0.0-113.0\",\"\",\"\",\"2-3\",\"4266\",\"39\",\"1\",\"Training\",\"Stims/Figures/87-J-10-4.bmp\",\"mama:la\",\"Left\",\"39\",\"7\",\"14\",\"5\",\"S\",\"J\",\"110\"
\"\",\"\",\"approach-retreat\",\"114\",\"934300\",\"0.0-114.0\",\"\",\"\",\"2-3\",\"4725\",\"40\",\"1\",\"Training\",\"Stims/Figures/139-J-0-2.bmp\",\"na:ma:na\",\"Up\",\"40\",\"7\",\"15\",\"5\",\"S\",\"J\",\"111\"
\"\",\"\",\"approach-retreat\",\"115\",\"940167\",\"0.0-115.0\",\"\",\"\",\"2-3\",\"4341\",\"40\",\"1\",\"Training\",\"Stims/Figures/139-C-20-2.bmp\",\"pa:kaka\",\"Down\",\"40\",\"7\",\"16\",\"5\",\"P\",\"J\",\"112\"
\"\",\"\",\"approach-retreat\",\"116\",\"947151\",\"0.0-116.0\",\"\",\"\",\"2-3\",\"5455\",\"39\",\"1\",\"Training\",\"Stims/Figures/84-J-0-2.bmp\",\"ma:mana\",\"Left\",\"39\",\"8\",\"1\",\"5\",\"S\",\"J\",\"113\"
\"\",\"\",\"approach-retreat\",\"117\",\"955466\",\"0.0-117.0\",\"\",\"\",\"2-3\",\"6788\",\"39\",\"1\",\"Training\",\"Stims/Figures/111-J-10-3.bmp\",\"nala:na\",\"Left\",\"39\",\"8\",\"2\",\"5\",\"S\",\"J\",\"114\"
\"\",\"\",\"approach-retreat\",\"118\",\"961816\",\"0.0-118.0\",\"\",\"\",\"2-3\",\"4832\",\"39\",\"1\",\"Training\",\"Stims/Figures/57-C-30-1.bmp\",\"tapaka\",\"Right\",\"39\",\"8\",\"3\",\"5\",\"P\",\"J\",\"115\"
\"\",\"\",\"approach-retreat\",\"119\",\"967766\",\"0.0-119.0\",\"\",\"\",\"2-3\",\"4432\",\"37\",\"1\",\"Training\",\"Stims/Figures/57-J-0-1.bmp\",\"namala\",\"Right\",\"37\",\"8\",\"4\",\"5\",\"S\",\"J\",\"116\"
\"\",\"\",\"approach-retreat\",\"120\",\"973794\",\"0.0-120.0\",\"\",\"\",\"2-3\",\"4489\",\"40\",\"1\",\"Training\",\"Stims/Figures/87-C-20-4.bmp\",\"papata\",\"Down\",\"40\",\"8\",\"5\",\"5\",\"P\",\"J\",\"117\"
\"\",\"\",\"approach-retreat\",\"121\",\"982864\",\"0.0-121.0\",\"\",\"\",\"2-3\",\"7548\",\"40\",\"1\",\"Training\",\"Stims/Figures/27-J-0-1.bmp\",\"nalana\",\"Up\",\"40\",\"8\",\"6\",\"5\",\"S\",\"J\",\"118\"
\"\",\"\",\"approach-retreat\",\"122\",\"989362\",\"0.0-122.0\",\"\",\"\",\"2-3\",\"4968\",\"37\",\"1\",\"Training\",\"Stims/Figures/84-C-20-2.bmp\",\"pa:kata\",\"Left\",\"37\",\"8\",\"7\",\"5\",\"P\",\"J\",\"119\"
\"\",\"\",\"approach-retreat\",\"123\",\"995328\",\"0.0-123.0\",\"\",\"\",\"2-3\",\"4441\",\"40\",\"1\",\"Training\",\"Stims/Figures/139-C-20-2.bmp\",\"pa:kaka\",\"Down\",\"40\",\"8\",\"8\",\"5\",\"P\",\"J\",\"120\"
\"\",\"\",\"approach-retreat\",\"124\",\"1001292\",\"0.0-124.0\",\"\",\"\",\"2-3\",\"4441\",\"37\",\"1\",\"Training\",\"Stims/Figures/144-C-30-3.bmp\",\"takaka\",\"Left\",\"37\",\"8\",\"9\",\"5\",\"P\",\"J\",\"121\"
\"\",\"\",\"approach-retreat\",\"125\",\"1010758\",\"0.0-125.0\",\"\",\"\",\"2-3\",\"7929\",\"37\",\"1\",\"Training\",\"Stims/Figures/19-J-10-4.bmp\",\"na:mana\",\"Right\",\"37\",\"8\",\"10\",\"5\",\"S\",\"J\",\"122\"
\"\",\"\",\"approach-retreat\",\"126\",\"1018423\",\"0.0-126.0\",\"\",\"\",\"2-3\",\"6140\",\"39\",\"1\",\"Training\",\"Stims/Figures/19-C-20-4.bmp\",\"ta:ka:ta\",\"Right\",\"39\",\"8\",\"11\",\"5\",\"P\",\"J\",\"123\"
\"\",\"\",\"approach-retreat\",\"127\",\"1025087\",\"0.0-127.0\",\"\",\"\",\"2-3\",\"5127\",\"38\",\"1\",\"Training\",\"Stims/Figures/27-C-30-1.bmp\",\"pa:pa:ka\",\"Up\",\"38\",\"8\",\"12\",\"5\",\"P\",\"J\",\"124\"
\"\",\"\",\"approach-retreat\",\"128\",\"1032169\",\"0.0-128.0\",\"\",\"\",\"2-3\",\"5556\",\"40\",\"1\",\"Training\",\"Stims/Figures/139-J-0-2.bmp\",\"na:ma:na\",\"Up\",\"40\",\"8\",\"13\",\"5\",\"S\",\"J\",\"125\"
\"\",\"\",\"approach-retreat\",\"129\",\"1038671\",\"0.0-129.0\",\"\",\"\",\"2-3\",\"4978\",\"38\",\"1\",\"Training\",\"Stims/Figures/87-J-10-4.bmp\",\"mama:la\",\"Down\",\"38\",\"8\",\"14\",\"5\",\"S\",\"J\",\"126\"
\"\",\"\",\"approach-retreat\",\"130\",\"1044587\",\"0.0-130.0\",\"\",\"\",\"2-3\",\"4394\",\"40\",\"1\",\"Training\",\"Stims/Figures/111-C-30-3.bmp\",\"tapa:ta\",\"Down\",\"40\",\"8\",\"15\",\"5\",\"P\",\"J\",\"127\"
\"\",\"\",\"approach-retreat\",\"131\",\"1050251\",\"0.0-131.0\",\"\",\"\",\"2-3\",\"4143\",\"40\",\"1\",\"Training\",\"Stims/Figures/144-J-10-3.bmp\",\"malala\",\"Up\",\"40\",\"8\",\"16\",\"5\",\"S\",\"J\",\"128\"
\"\",\"\",\"approach-retreat\",\"132\",\"1056233\",\"0.0-132.0\",\"\",\"\",\"2-3\",\"4455\",\"38\",\"1\",\"Training\",\"Stims/Figures/139-J-0-2.bmp\",\"na:ma:na\",\"Down\",\"38\",\"9\",\"1\",\"5\",\"S\",\"J\",\"129\"
\"\",\"\",\"approach-retreat\",\"133\",\"1062753\",\"0.0-133.0\",\"\",\"\",\"2-3\",\"4991\",\"39\",\"1\",\"Training\",\"Stims/Figures/19-C-20-4.bmp\",\"ta:ka:ta\",\"Right\",\"39\",\"9\",\"2\",\"5\",\"P\",\"J\",\"130\"
\"\",\"\",\"approach-retreat\",\"134\",\"1068441\",\"0.0-134.0\",\"\",\"\",\"2-3\",\"4168\",\"39\",\"1\",\"Training\",\"Stims/Figures/111-J-10-3.bmp\",\"nala:na\",\"Left\",\"39\",\"9\",\"3\",\"5\",\"S\",\"J\",\"131\"
\"\",\"\",\"approach-retreat\",\"135\",\"1074419\",\"0.0-135.0\",\"\",\"\",\"2-3\",\"4449\",\"38\",\"1\",\"Training\",\"Stims/Figures/144-C-30-3.bmp\",\"takaka\",\"Up\",\"38\",\"9\",\"4\",\"5\",\"P\",\"J\",\"132\"
\"\",\"\",\"approach-retreat\",\"136\",\"1081033\",\"0.0-136.0\",\"\",\"\",\"2-3\",\"5089\",\"38\",\"1\",\"Training\",\"Stims/Figures/84-J-0-2.bmp\",\"ma:mana\",\"Down\",\"38\",\"9\",\"5\",\"5\",\"S\",\"J\",\"133\"
\"\",\"\",\"approach-retreat\",\"137\",\"1087682\",\"0.0-137.0\",\"\",\"\",\"2-3\",\"5127\",\"38\",\"1\",\"Training\",\"Stims/Figures/27-C-30-1.bmp\",\"pa:pa:ka\",\"Up\",\"38\",\"9\",\"6\",\"5\",\"P\",\"J\",\"134\"
\"\",\"\",\"approach-retreat\",\"138\",\"1093383\",\"0.0-138.0\",\"\",\"\",\"2-3\",\"4182\",\"37\",\"1\",\"Training\",\"Stims/Figures/139-C-20-2.bmp\",\"pa:kaka\",\"Left\",\"37\",\"9\",\"7\",\"5\",\"P\",\"J\",\"135\"
\"\",\"\",\"approach-retreat\",\"139\",\"1099962\",\"0.0-139.0\",\"\",\"\",\"2-3\",\"5021\",\"38\",\"1\",\"Training\",\"Stims/Figures/87-J-10-4.bmp\",\"mama:la\",\"Down\",\"38\",\"9\",\"8\",\"5\",\"S\",\"J\",\"136\"
\"\",\"\",\"approach-retreat\",\"140\",\"1106530\",\"0.0-140.0\",\"\",\"\",\"2-3\",\"5037\",\"38\",\"1\",\"Training\",\"Stims/Figures/57-J-0-1.bmp\",\"namala\",\"Down\",\"38\",\"9\",\"9\",\"5\",\"S\",\"J\",\"137\"
\"\",\"\",\"approach-retreat\",\"141\",\"1113394\",\"0.0-141.0\",\"\",\"\",\"2-3\",\"5324\",\"39\",\"1\",\"Training\",\"Stims/Figures/87-C-20-4.bmp\",\"papata\",\"Right\",\"39\",\"9\",\"10\",\"5\",\"P\",\"J\",\"138\"
\"\",\"\",\"approach-retreat\",\"142\",\"1120610\",\"0.0-142.0\",\"\",\"\",\"2-3\",\"5693\",\"40\",\"1\",\"Training\",\"Stims/Figures/19-J-10-4.bmp\",\"na:mana\",\"Up\",\"40\",\"9\",\"11\",\"5\",\"S\",\"J\",\"139\"
\"\",\"\",\"approach-retreat\",\"143\",\"1127228\",\"0.0-143.0\",\"\",\"\",\"2-3\",\"5102\",\"39\",\"1\",\"Training\",\"Stims/Figures/144-J-10-3.bmp\",\"malala\",\"Left\",\"39\",\"9\",\"12\",\"5\",\"S\",\"J\",\"140\"
\"\",\"\",\"approach-retreat\",\"144\",\"1133324\",\"0.0-144.0\",\"\",\"\",\"2-3\",\"4545\",\"39\",\"1\",\"Training\",\"Stims/Figures/57-C-30-1.bmp\",\"tapaka\",\"Right\",\"39\",\"9\",\"13\",\"5\",\"P\",\"J\",\"141\"
\"\",\"\",\"approach-retreat\",\"145\",\"1139358\",\"0.0-145.0\",\"\",\"\",\"2-3\",\"4508\",\"39\",\"1\",\"Training\",\"Stims/Figures/84-C-20-2.bmp\",\"pa:kata\",\"Right\",\"39\",\"9\",\"14\",\"5\",\"P\",\"J\",\"142\"
\"\",\"\",\"approach-retreat\",\"146\",\"1145457\",\"0.0-146.0\",\"\",\"\",\"2-3\",\"4564\",\"38\",\"1\",\"Training\",\"Stims/Figures/111-C-30-3.bmp\",\"tapa:ta\",\"Up\",\"38\",\"9\",\"15\",\"5\",\"P\",\"J\",\"143\"
\"\",\"\",\"approach-retreat\",\"147\",\"1151623\",\"0.0-147.0\",\"\",\"\",\"2-3\",\"4634\",\"39\",\"1\",\"Training\",\"Stims/Figures/27-J-0-1.bmp\",\"nalana\",\"Left\",\"39\",\"9\",\"16\",\"5\",\"S\",\"J\",\"144\"
\"21809\",\"\",\"instructions\",\"148\",\"1173433\",\"0.0-148.0\",\"[{\"\"page_index\"\":0,\"\"viewing_time\"\":21808}]\",\"\",\"\",\"\",\"\",\"\",\"\",\"\",\"\",\"\",\"\",\"\",\"\",\"\",\"\",\"\",\"\"
\"\",\"\",\"approach-retreat\",\"149\",\"1182574\",\"0.0-149.0\",\"\",\"\",\"2-3\",\"7622\",\"39\",\"1\",\"Testing\",\"Stims/Figures/144-J-10-3.bmp\",\"malala\",\"Left\",\"39\",\"1\",\"1\",\"5\",\"S\",\"J\",\"1\"
\"\",\"\",\"approach-retreat\",\"150\",\"1188758\",\"0.0-150.0\",\"\",\"\",\"2-3\",\"4670\",\"37\",\"1\",\"Testing\",\"Stims/Figures/27-J-0-1.bmp\",\"nalana\",\"Right\",\"37\",\"1\",\"2\",\"5\",\"S\",\"J\",\"2\"
\"\",\"\",\"approach-retreat\",\"151\",\"1194535\",\"0.0-151.0\",\"\",\"\",\"2-3\",\"4255\",\"38\",\"1\",\"Testing\",\"Stims/Figures/57-J-0-1.bmp\",\"namala\",\"Down\",\"38\",\"1\",\"3\",\"5\",\"S\",\"J\",\"3\"
\"\",\"\",\"approach-retreat\",\"152\",\"1200337\",\"0.0-152.0\",\"\",\"\",\"2-3\",\"4289\",\"37\",\"1\",\"Testing\",\"Stims/Figures/87-C-20-4.bmp\",\"papata\",\"Left\",\"37\",\"1\",\"4\",\"5\",\"P\",\"J\",\"4\"
\"\",\"\",\"approach-retreat\",\"153\",\"1207032\",\"0.0-153.0\",\"\",\"\",\"2-3\",\"5160\",\"39\",\"0\",\"Testing\",\"Stims/Figures/7-J-10-4.bmp\",\"malana\",\"Right\",\"37\",\"1\",\"5\",\"5\",\"S\",\"J\",\"5\"
\"\",\"\",\"approach-retreat\",\"154\",\"1212982\",\"0.0-154.0\",\"\",\"\",\"2-3\",\"4429\",\"38\",\"1\",\"Testing\",\"Stims/Figures/111-J-10-3.bmp\",\"nala:na\",\"Down\",\"38\",\"1\",\"6\",\"5\",\"S\",\"J\",\"6\"
\"\",\"\",\"approach-retreat\",\"155\",\"1218780\",\"0.0-155.0\",\"\",\"\",\"2-3\",\"4277\",\"38\",\"1\",\"Testing\",\"Stims/Figures/84-C-20-2.bmp\",\"pa:kata\",\"Up\",\"38\",\"1\",\"7\",\"5\",\"P\",\"J\",\"7\"
\"\",\"\",\"approach-retreat\",\"156\",\"1225598\",\"0.0-156.0\",\"\",\"\",\"2-3\",\"5305\",\"39\",\"1\",\"Testing\",\"Stims/Figures/19-C-20-4.bmp\",\"ta:ka:ta\",\"Right\",\"39\",\"1\",\"8\",\"5\",\"P\",\"J\",\"8\"
\"\",\"\",\"approach-retreat\",\"157\",\"1231675\",\"0.0-157.0\",\"\",\"\",\"2-3\",\"4559\",\"40\",\"1\",\"Testing\",\"Stims/Figures/7-C-20-4.bmp\",\"pa:pata\",\"Down\",\"40\",\"1\",\"9\",\"5\",\"P\",\"J\",\"9\"
\"\",\"\",\"approach-retreat\",\"158\",\"1237382\",\"0.0-158.0\",\"\",\"\",\"2-3\",\"4189\",\"37\",\"1\",\"Testing\",\"Stims/Figures/57-C-30-1.bmp\",\"tapaka\",\"Left\",\"37\",\"1\",\"10\",\"5\",\"P\",\"J\",\"10\"
\"\",\"\",\"approach-retreat\",\"159\",\"1243310\",\"0.0-159.0\",\"\",\"\",\"2-3\",\"4403\",\"38\",\"0\",\"Testing\",\"Stims/Figures/85-J-0-2.bmp\",\"na:lala\",\"Up\",\"40\",\"1\",\"11\",\"5\",\"S\",\"J\",\"11\"
\"\",\"\",\"approach-retreat\",\"160\",\"1250512\",\"0.0-160.0\",\"\",\"\",\"2-3\",\"5677\",\"37\",\"1\",\"Testing\",\"Stims/Figures/71-J-0-1.bmp\",\"nama:na\",\"Right\",\"37\",\"1\",\"12\",\"5\",\"S\",\"J\",\"12\"
\"\",\"\",\"approach-retreat\",\"161\",\"1256807\",\"0.0-161.0\",\"\",\"\",\"2-3\",\"4766\",\"38\",\"0\",\"Testing\",\"Stims/Figures/87-J-10-4.bmp\",\"mama:la\",\"Up\",\"40\",\"1\",\"13\",\"5\",\"S\",\"J\",\"13\"
\"\",\"\",\"approach-retreat\",\"162\",\"1262416\",\"0.0-162.0\",\"\",\"\",\"2-3\",\"4091\",\"38\",\"1\",\"Testing\",\"Stims/Figures/139-C-20-2.bmp\",\"pa:kaka\",\"Up\",\"38\",\"1\",\"14\",\"5\",\"P\",\"J\",\"14\"
\"\",\"\",\"approach-retreat\",\"163\",\"1268523\",\"0.0-163.0\",\"\",\"\",\"2-3\",\"4571\",\"39\",\"1\",\"Testing\",\"Stims/Figures/139-J-0-2.bmp\",\"na:ma:na\",\"Left\",\"39\",\"1\",\"15\",\"5\",\"S\",\"J\",\"15\"
\"\",\"\",\"approach-retreat\",\"164\",\"1274123\",\"0.0-164.0\",\"\",\"\",\"2-3\",\"4081\",\"37\",\"1\",\"Testing\",\"Stims/Figures/85-C-20-2.bmp\",\"papa:ta\",\"Left\",\"37\",\"1\",\"16\",\"5\",\"P\",\"J\",\"16\"
\"\",\"\",\"approach-retreat\",\"165\",\"1279774\",\"0.0-165.0\",\"\",\"\",\"2-3\",\"4125\",\"37\",\"1\",\"Testing\",\"Stims/Figures/144-C-30-3.bmp\",\"takaka\",\"Left\",\"37\",\"1\",\"17\",\"5\",\"P\",\"J\",\"17\"
\"\",\"\",\"approach-retreat\",\"166\",\"1285721\",\"0.0-166.0\",\"\",\"\",\"2-3\",\"4421\",\"38\",\"0\",\"Testing\",\"Stims/Figures/111-C-30-3.bmp\",\"tapa:ta\",\"Down\",\"40\",\"1\",\"18\",\"5\",\"P\",\"J\",\"18\"
\"\",\"\",\"approach-retreat\",\"167\",\"1291507\",\"0.0-167.0\",\"\",\"\",\"2-3\",\"4259\",\"40\",\"1\",\"Testing\",\"Stims/Figures/44-C-30-3.bmp\",\"taka:ta\",\"Down\",\"40\",\"1\",\"19\",\"5\",\"P\",\"J\",\"19\"
\"\",\"\",\"approach-retreat\",\"168\",\"1297157\",\"0.0-168.0\",\"\",\"\",\"2-3\",\"4131\",\"39\",\"1\",\"Testing\",\"Stims/Figures/27-C-30-1.bmp\",\"pa:pa:ka\",\"Right\",\"39\",\"1\",\"20\",\"5\",\"P\",\"J\",\"20\"
\"\",\"\",\"approach-retreat\",\"169\",\"1303248\",\"0.0-169.0\",\"\",\"\",\"2-3\",\"4575\",\"38\",\"1\",\"Testing\",\"Stims/Figures/84-J-0-2.bmp\",\"ma:mana\",\"Down\",\"38\",\"1\",\"21\",\"5\",\"S\",\"J\",\"21\"
\"\",\"\",\"approach-retreat\",\"170\",\"1309853\",\"0.0-170.0\",\"\",\"\",\"2-3\",\"5089\",\"40\",\"1\",\"Testing\",\"Stims/Figures/19-J-10-4.bmp\",\"na:mana\",\"Up\",\"40\",\"1\",\"22\",\"5\",\"S\",\"J\",\"22\"
\"\",\"\",\"approach-retreat\",\"171\",\"1317355\",\"0.0-171.0\",\"\",\"\",\"2-3\",\"5974\",\"40\",\"1\",\"Testing\",\"Stims/Figures/44-J-10-3.bmp\",\"ma:la:la\",\"Up\",\"40\",\"1\",\"23\",\"5\",\"S\",\"J\",\"23\"
\"\",\"\",\"approach-retreat\",\"172\",\"1325587\",\"0.0-172.0\",\"\",\"\",\"2-3\",\"6708\",\"39\",\"1\",\"Testing\",\"Stims/Figures/71-C-30-1.bmp\",\"ta:pa:ta\",\"Right\",\"39\",\"1\",\"24\",\"5\",\"P\",\"J\",\"24\"
\"\",\"\",\"approach-retreat\",\"173\",\"1331369\",\"0.0-173.0\",\"\",\"\",\"2-3\",\"4257\",\"40\",\"1\",\"Testing\",\"Stims/Figures/57-C-30-1.bmp\",\"tapaka\",\"Down\",\"40\",\"2\",\"1\",\"5\",\"P\",\"J\",\"25\"
\"\",\"\",\"approach-retreat\",\"174\",\"1337733\",\"0.0-174.0\",\"\",\"\",\"2-3\",\"4850\",\"39\",\"1\",\"Testing\",\"Stims/Figures/87-J-10-4.bmp\",\"mama:la\",\"Left\",\"39\",\"2\",\"2\",\"5\",\"S\",\"J\",\"26\"
\"\",\"\",\"approach-retreat\",\"175\",\"1344607\",\"0.0-175.0\",\"\",\"\",\"2-3\",\"5356\",\"40\",\"1\",\"Testing\",\"Stims/Figures/111-J-10-3.bmp\",\"nala:na\",\"Up\",\"40\",\"2\",\"3\",\"5\",\"S\",\"J\",\"27\"
\"\",\"\",\"approach-retreat\",\"176\",\"1350780\",\"0.0-176.0\",\"\",\"\",\"2-3\",\"4652\",\"38\",\"1\",\"Testing\",\"Stims/Figures/7-C-20-4.bmp\",\"pa:pata\",\"Up\",\"38\",\"2\",\"4\",\"5\",\"P\",\"J\",\"28\"
\"\",\"\",\"approach-retreat\",\"177\",\"1357182\",\"0.0-177.0\",\"\",\"\",\"2-3\",\"4883\",\"38\",\"1\",\"Testing\",\"Stims/Figures/144-J-10-3.bmp\",\"malala\",\"Down\",\"38\",\"2\",\"5\",\"5\",\"S\",\"J\",\"29\"
\"\",\"\",\"approach-retreat\",\"178\",\"1363400\",\"0.0-178.0\",\"\",\"\",\"2-3\",\"4709\",\"37\",\"1\",\"Testing\",\"Stims/Figures/27-J-0-1.bmp\",\"nalana\",\"Right\",\"37\",\"2\",\"6\",\"5\",\"S\",\"J\",\"30\"
\"\",\"\",\"approach-retreat\",\"179\",\"1369441\",\"0.0-179.0\",\"\",\"\",\"2-3\",\"4527\",\"40\",\"1\",\"Testing\",\"Stims/Figures/71-C-30-1.bmp\",\"ta:pa:ta\",\"Down\",\"40\",\"2\",\"7\",\"5\",\"P\",\"J\",\"31\"
\"\",\"\",\"approach-retreat\",\"180\",\"1375314\",\"0.0-180.0\",\"\",\"\",\"2-3\",\"4347\",\"37\",\"1\",\"Testing\",\"Stims/Figures/44-C-30-3.bmp\",\"taka:ta\",\"Left\",\"37\",\"2\",\"8\",\"5\",\"P\",\"J\",\"32\"
\"\",\"\",\"approach-retreat\",\"181\",\"1381341\",\"0.0-181.0\",\"\",\"\",\"2-3\",\"4485\",\"40\",\"1\",\"Testing\",\"Stims/Figures/19-C-20-4.bmp\",\"ta:ka:ta\",\"Down\",\"40\",\"2\",\"9\",\"5\",\"P\",\"J\",\"33\"
\"\",\"\",\"approach-retreat\",\"182\",\"1388462\",\"0.0-182.0\",\"\",\"\",\"2-3\",\"5604\",\"40\",\"1\",\"Testing\",\"Stims/Figures/84-J-0-2.bmp\",\"ma:mana\",\"Up\",\"40\",\"2\",\"10\",\"5\",\"S\",\"J\",\"34\"
\"\",\"\",\"approach-retreat\",\"183\",\"1394894\",\"0.0-183.0\",\"\",\"\",\"2-3\",\"4919\",\"39\",\"1\",\"Testing\",\"Stims/Figures/85-C-20-2.bmp\",\"papa:ta\",\"Right\",\"39\",\"2\",\"11\",\"5\",\"P\",\"J\",\"35\"
\"\",\"\",\"approach-retreat\",\"184\",\"1401041\",\"0.0-184.0\",\"\",\"\",\"2-3\",\"4630\",\"40\",\"1\",\"Testing\",\"Stims/Figures/7-J-10-4.bmp\",\"malana\",\"Up\",\"40\",\"2\",\"12\",\"5\",\"S\",\"J\",\"36\"
\"\",\"\",\"approach-retreat\",\"185\",\"1406891\",\"0.0-185.0\",\"\",\"\",\"2-3\",\"4336\",\"39\",\"1\",\"Testing\",\"Stims/Figures/111-C-30-3.bmp\",\"tapa:ta\",\"Right\",\"39\",\"2\",\"13\",\"5\",\"P\",\"J\",\"37\"
\"\",\"\",\"approach-retreat\",\"186\",\"1412873\",\"0.0-186.0\",\"\",\"\",\"2-3\",\"4466\",\"37\",\"1\",\"Testing\",\"Stims/Figures/71-J-0-1.bmp\",\"nama:na\",\"Right\",\"37\",\"2\",\"14\",\"5\",\"S\",\"J\",\"38\"
\"\",\"\",\"approach-retreat\",\"187\",\"1419589\",\"0.0-187.0\",\"\",\"\",\"2-3\",\"5194\",\"38\",\"1\",\"Testing\",\"Stims/Figures/85-J-0-2.bmp\",\"na:lala\",\"Down\",\"38\",\"2\",\"15\",\"5\",\"S\",\"J\",\"39\"
\"\",\"\",\"approach-retreat\",\"188\",\"1427508\",\"0.0-188.0\",\"\",\"\",\"2-3\",\"6405\",\"38\",\"1\",\"Testing\",\"Stims/Figures/87-C-20-4.bmp\",\"papata\",\"Up\",\"38\",\"2\",\"16\",\"5\",\"P\",\"J\",\"40\"
\"\",\"\",\"approach-retreat\",\"189\",\"1435041\",\"0.0-189.0\",\"\",\"\",\"2-3\",\"6013\",\"39\",\"1\",\"Testing\",\"Stims/Figures/27-C-30-1.bmp\",\"pa:pa:ka\",\"Right\",\"39\",\"2\",\"17\",\"5\",\"P\",\"J\",\"41\"
\"\",\"\",\"approach-retreat\",\"190\",\"1441544\",\"0.0-190.0\",\"\",\"\",\"2-3\",\"4977\",\"39\",\"1\",\"Testing\",\"Stims/Figures/139-J-0-2.bmp\",\"na:ma:na\",\"Left\",\"39\",\"2\",\"18\",\"5\",\"S\",\"J\",\"42\"
\"\",\"\",\"approach-retreat\",\"191\",\"1448535\",\"0.0-191.0\",\"\",\"\",\"2-3\",\"5464\",\"38\",\"1\",\"Testing\",\"Stims/Figures/144-C-30-3.bmp\",\"takaka\",\"Up\",\"38\",\"2\",\"19\",\"5\",\"P\",\"J\",\"43\"
\"\",\"\",\"approach-retreat\",\"192\",\"1454721\",\"0.0-192.0\",\"\",\"\",\"2-3\",\"4671\",\"39\",\"1\",\"Testing\",\"Stims/Figures/139-C-20-2.bmp\",\"pa:kaka\",\"Right\",\"39\",\"2\",\"20\",\"5\",\"P\",\"J\",\"44\"
\"\",\"\",\"approach-retreat\",\"193\",\"1460669\",\"0.0-193.0\",\"\",\"\",\"2-3\",\"4437\",\"37\",\"1\",\"Testing\",\"Stims/Figures/84-C-20-2.bmp\",\"pa:kata\",\"Left\",\"37\",\"2\",\"21\",\"5\",\"P\",\"J\",\"45\"
\"\",\"\",\"approach-retreat\",\"194\",\"1467571\",\"0.0-194.0\",\"\",\"\",\"2-3\",\"5382\",\"39\",\"1\",\"Testing\",\"Stims/Figures/19-J-10-4.bmp\",\"na:mana\",\"Left\",\"39\",\"2\",\"22\",\"5\",\"S\",\"J\",\"46\"
\"\",\"\",\"approach-retreat\",\"195\",\"1473667\",\"0.0-195.0\",\"\",\"\",\"2-3\",\"4577\",\"39\",\"1\",\"Testing\",\"Stims/Figures/44-J-10-3.bmp\",\"ma:la:la\",\"Left\",\"39\",\"2\",\"23\",\"5\",\"S\",\"J\",\"47\"
\"\",\"\",\"approach-retreat\",\"196\",\"1479782\",\"0.0-196.0\",\"\",\"\",\"2-3\",\"4591\",\"38\",\"1\",\"Testing\",\"Stims/Figures/57-J-0-1.bmp\",\"namala\",\"Down\",\"38\",\"2\",\"24\",\"5\",\"S\",\"J\",\"48\"
\"\",\"\",\"approach-retreat\",\"197\",\"1485814\",\"0.0-197.0\",\"\",\"\",\"2-3\",\"4518\",\"38\",\"1\",\"Testing\",\"Stims/Figures/111-J-10-3.bmp\",\"nala:na\",\"Down\",\"38\",\"3\",\"1\",\"5\",\"S\",\"J\",\"49\"
\"\",\"\",\"approach-retreat\",\"198\",\"1492248\",\"0.0-198.0\",\"\",\"\",\"2-3\",\"4922\",\"38\",\"1\",\"Testing\",\"Stims/Figures/57-C-30-1.bmp\",\"tapaka\",\"Up\",\"38\",\"3\",\"2\",\"5\",\"P\",\"J\",\"50\"
\"\",\"\",\"approach-retreat\",\"199\",\"1497994\",\"0.0-199.0\",\"\",\"\",\"2-3\",\"4206\",\"39\",\"1\",\"Testing\",\"Stims/Figures/7-C-20-4.bmp\",\"pa:pata\",\"Right\",\"39\",\"3\",\"3\",\"5\",\"P\",\"J\",\"51\"
\"\",\"\",\"approach-retreat\",\"200\",\"1504228\",\"0.0-200.0\",\"\",\"\",\"2-3\",\"4720\",\"38\",\"1\",\"Testing\",\"Stims/Figures/71-J-0-1.bmp\",\"nama:na\",\"Down\",\"38\",\"3\",\"4\",\"5\",\"S\",\"J\",\"52\"
\"\",\"\",\"approach-retreat\",\"201\",\"1510725\",\"0.0-201.0\",\"\",\"\",\"2-3\",\"4968\",\"39\",\"1\",\"Testing\",\"Stims/Figures/85-J-0-2.bmp\",\"na:lala\",\"Left\",\"39\",\"3\",\"5\",\"5\",\"S\",\"J\",\"53\"
\"\",\"\",\"approach-retreat\",\"202\",\"1516946\",\"0.0-202.0\",\"\",\"\",\"2-3\",\"4695\",\"38\",\"1\",\"Testing\",\"Stims/Figures/85-C-20-2.bmp\",\"papa:ta\",\"Up\",\"38\",\"3\",\"6\",\"5\",\"P\",\"J\",\"54\"
\"\",\"\",\"approach-retreat\",\"203\",\"1522996\",\"0.0-203.0\",\"\",\"\",\"2-3\",\"4522\",\"38\",\"1\",\"Testing\",\"Stims/Figures/19-C-20-4.bmp\",\"ta:ka:ta\",\"Up\",\"38\",\"3\",\"7\",\"5\",\"P\",\"J\",\"55\"
\"\",\"\",\"approach-retreat\",\"204\",\"1529207\",\"0.0-204.0\",\"\",\"\",\"2-3\",\"4698\",\"40\",\"1\",\"Testing\",\"Stims/Figures/144-C-30-3.bmp\",\"takaka\",\"Down\",\"40\",\"3\",\"8\",\"5\",\"P\",\"J\",\"56\"
\"\",\"\",\"approach-retreat\",\"205\",\"1535639\",\"0.0-205.0\",\"\",\"\",\"2-3\",\"4920\",\"40\",\"1\",\"Testing\",\"Stims/Figures/144-J-10-3.bmp\",\"malala\",\"Up\",\"40\",\"3\",\"9\",\"5\",\"S\",\"J\",\"57\"
\"\",\"\",\"approach-retreat\",\"206\",\"1541655\",\"0.0-206.0\",\"\",\"\",\"2-3\",\"4500\",\"37\",\"1\",\"Testing\",\"Stims/Figures/71-C-30-1.bmp\",\"ta:pa:ta\",\"Left\",\"37\",\"3\",\"10\",\"5\",\"P\",\"J\",\"58\"
\"\",\"\",\"approach-retreat\",\"207\",\"1547390\",\"0.0-207.0\",\"\",\"\",\"2-3\",\"4221\",\"37\",\"1\",\"Testing\",\"Stims/Figures/19-J-10-4.bmp\",\"na:mana\",\"Right\",\"37\",\"3\",\"11\",\"5\",\"S\",\"J\",\"59\"
\"\",\"\",\"approach-retreat\",\"208\",\"1553408\",\"0.0-208.0\",\"\",\"\",\"2-3\",\"4500\",\"37\",\"1\",\"Testing\",\"Stims/Figures/84-C-20-2.bmp\",\"pa:kata\",\"Left\",\"37\",\"3\",\"12\",\"5\",\"P\",\"J\",\"60\"
\"\",\"\",\"approach-retreat\",\"209\",\"1560553\",\"0.0-209.0\",\"\",\"\",\"2-3\",\"5609\",\"37\",\"1\",\"Testing\",\"Stims/Figures/27-C-30-1.bmp\",\"pa:pa:ka\",\"Left\",\"37\",\"3\",\"13\",\"5\",\"P\",\"J\",\"61\"
\"\",\"\",\"approach-retreat\",\"210\",\"1566790\",\"0.0-210.0\",\"\",\"\",\"2-3\",\"4718\",\"40\",\"1\",\"Testing\",\"Stims/Figures/87-C-20-4.bmp\",\"papata\",\"Down\",\"40\",\"3\",\"14\",\"5\",\"P\",\"J\",\"62\"
\"\",\"\",\"approach-retreat\",\"211\",\"1573510\",\"0.0-211.0\",\"\",\"\",\"2-3\",\"5202\",\"40\",\"1\",\"Testing\",\"Stims/Figures/27-J-0-1.bmp\",\"nalana\",\"Up\",\"40\",\"3\",\"15\",\"5\",\"S\",\"J\",\"63\"
\"\",\"\",\"approach-retreat\",\"212\",\"1579485\",\"0.0-212.0\",\"\",\"\",\"2-3\",\"4454\",\"40\",\"1\",\"Testing\",\"Stims/Figures/111-C-30-3.bmp\",\"tapa:ta\",\"Down\",\"40\",\"3\",\"16\",\"5\",\"P\",\"J\",\"64\"
\"\",\"\",\"approach-retreat\",\"213\",\"1585869\",\"0.0-213.0\",\"\",\"\",\"2-3\",\"4852\",\"40\",\"1\",\"Testing\",\"Stims/Figures/84-J-0-2.bmp\",\"ma:mana\",\"Up\",\"40\",\"3\",\"17\",\"5\",\"S\",\"J\",\"65\"
\"\",\"\",\"approach-retreat\",\"214\",\"1592017\",\"0.0-214.0\",\"\",\"\",\"2-3\",\"4623\",\"39\",\"1\",\"Testing\",\"Stims/Figures/44-C-30-3.bmp\",\"taka:ta\",\"Right\",\"39\",\"3\",\"18\",\"5\",\"P\",\"J\",\"66\"
\"\",\"\",\"approach-retreat\",\"215\",\"1600214\",\"0.0-215.0\",\"\",\"\",\"2-3\",\"6680\",\"40\",\"1\",\"Testing\",\"Stims/Figures/139-C-20-2.bmp\",\"pa:kaka\",\"Down\",\"40\",\"3\",\"19\",\"5\",\"P\",\"J\",\"67\"
\"\",\"\",\"approach-retreat\",\"216\",\"1607064\",\"0.0-216.0\",\"\",\"\",\"2-3\",\"5336\",\"37\",\"1\",\"Testing\",\"Stims/Figures/44-J-10-3.bmp\",\"ma:la:la\",\"Right\",\"37\",\"3\",\"20\",\"5\",\"S\",\"J\",\"68\"
\"\",\"\",\"approach-retreat\",\"217\",\"1615062\",\"0.0-217.0\",\"\",\"\",\"2-3\",\"6479\",\"39\",\"1\",\"Testing\",\"Stims/Figures/139-J-0-2.bmp\",\"na:ma:na\",\"Left\",\"39\",\"3\",\"21\",\"5\",\"S\",\"J\",\"69\"
\"\",\"\",\"approach-retreat\",\"218\",\"1621114\",\"0.0-218.0\",\"\",\"\",\"2-3\",\"4530\",\"37\",\"1\",\"Testing\",\"Stims/Figures/57-J-0-1.bmp\",\"namala\",\"Right\",\"37\",\"3\",\"22\",\"5\",\"S\",\"J\",\"70\"
\"\",\"\",\"approach-retreat\",\"219\",\"1627310\",\"0.0-219.0\",\"\",\"\",\"2-3\",\"4673\",\"37\",\"0\",\"Testing\",\"Stims/Figures/87-J-10-4.bmp\",\"mama:la\",\"Left\",\"39\",\"3\",\"23\",\"5\",\"S\",\"J\",\"71\"
\"\",\"\",\"approach-retreat\",\"220\",\"1633344\",\"0.0-220.0\",\"\",\"\",\"2-3\",\"4509\",\"37\",\"1\",\"Testing\",\"Stims/Figures/7-J-10-4.bmp\",\"malana\",\"Right\",\"37\",\"3\",\"24\",\"5\",\"S\",\"J\",\"72\"
\"\",\"\",\"approach-retreat\",\"221\",\"1639528\",\"0.0-221.0\",\"\",\"\",\"2-3\",\"4666\",\"38\",\"1\",\"Testing\",\"Stims/Figures/19-J-10-4.bmp\",\"na:mana\",\"Down\",\"38\",\"4\",\"1\",\"5\",\"S\",\"J\",\"73\"
\"\",\"\",\"approach-retreat\",\"222\",\"1646674\",\"0.0-222.0\",\"\",\"\",\"2-3\",\"5623\",\"40\",\"0\",\"Testing\",\"Stims/Figures/144-J-10-3.bmp\",\"malala\",\"Down\",\"38\",\"4\",\"2\",\"5\",\"S\",\"J\",\"74\"
\"\",\"\",\"approach-retreat\",\"223\",\"1653307\",\"0.0-223.0\",\"\",\"\",\"2-3\",\"5082\",\"40\",\"1\",\"Testing\",\"Stims/Figures/111-J-10-3.bmp\",\"nala:na\",\"Up\",\"40\",\"4\",\"3\",\"5\",\"S\",\"J\",\"75\"
\"\",\"\",\"approach-retreat\",\"224\",\"1659658\",\"0.0-224.0\",\"\",\"\",\"2-3\",\"4838\",\"40\",\"1\",\"Testing\",\"Stims/Figures/139-C-20-2.bmp\",\"pa:kaka\",\"Down\",\"40\",\"4\",\"4\",\"5\",\"P\",\"J\",\"76\"
\"\",\"\",\"approach-retreat\",\"225\",\"1665389\",\"0.0-225.0\",\"\",\"\",\"2-3\",\"4216\",\"37\",\"1\",\"Testing\",\"Stims/Figures/111-C-30-3.bmp\",\"tapa:ta\",\"Left\",\"37\",\"4\",\"5\",\"5\",\"P\",\"J\",\"77\"
\"\",\"\",\"approach-retreat\",\"226\",\"1671641\",\"0.0-226.0\",\"\",\"\",\"2-3\",\"4729\",\"39\",\"1\",\"Testing\",\"Stims/Figures/57-J-0-1.bmp\",\"namala\",\"Left\",\"39\",\"4\",\"6\",\"5\",\"S\",\"J\",\"78\"
\"\",\"\",\"approach-retreat\",\"227\",\"1680721\",\"0.0-227.0\",\"\",\"\",\"2-3\",\"7562\",\"39\",\"1\",\"Testing\",\"Stims/Figures/71-C-30-1.bmp\",\"ta:pa:ta\",\"Right\",\"39\",\"4\",\"7\",\"5\",\"P\",\"J\",\"79\"
\"\",\"\",\"approach-retreat\",\"228\",\"1686807\",\"0.0-228.0\",\"\",\"\",\"2-3\",\"4572\",\"40\",\"1\",\"Testing\",\"Stims/Figures/85-J-0-2.bmp\",\"na:lala\",\"Up\",\"40\",\"4\",\"8\",\"5\",\"S\",\"J\",\"80\"
\"\",\"\",\"approach-retreat\",\"229\",\"1693841\",\"0.0-229.0\",\"\",\"\",\"2-3\",\"5511\",\"39\",\"1\",\"Testing\",\"Stims/Figures/85-C-20-2.bmp\",\"papa:ta\",\"Right\",\"39\",\"4\",\"9\",\"5\",\"P\",\"J\",\"81\"
\"\",\"\",\"approach-retreat\",\"230\",\"1700057\",\"0.0-230.0\",\"\",\"\",\"2-3\",\"4696\",\"39\",\"1\",\"Testing\",\"Stims/Figures/27-J-0-1.bmp\",\"nalana\",\"Left\",\"39\",\"4\",\"10\",\"5\",\"S\",\"J\",\"82\"
\"\",\"\",\"approach-retreat\",\"231\",\"1706085\",\"0.0-231.0\",\"\",\"\",\"2-3\",\"4504\",\"40\",\"1\",\"Testing\",\"Stims/Figures/84-C-20-2.bmp\",\"pa:kata\",\"Down\",\"40\",\"4\",\"11\",\"5\",\"P\",\"J\",\"83\"
\"\",\"\",\"approach-retreat\",\"232\",\"1712167\",\"0.0-232.0\",\"\",\"\",\"2-3\",\"4564\",\"38\",\"1\",\"Testing\",\"Stims/Figures/7-C-20-4.bmp\",\"pa:pata\",\"Up\",\"38\",\"4\",\"12\",\"5\",\"P\",\"J\",\"84\"
\"\",\"\",\"approach-retreat\",\"233\",\"1718212\",\"0.0-233.0\",\"\",\"\",\"2-3\",\"4527\",\"40\",\"1\",\"Testing\",\"Stims/Figures/87-J-10-4.bmp\",\"mama:la\",\"Up\",\"40\",\"4\",\"13\",\"5\",\"S\",\"J\",\"85\"
\"\",\"\",\"approach-retreat\",\"234\",\"1724298\",\"0.0-234.0\",\"\",\"\",\"2-3\",\"4555\",\"37\",\"1\",\"Testing\",\"Stims/Figures/44-J-10-3.bmp\",\"ma:la:la\",\"Right\",\"37\",\"4\",\"14\",\"5\",\"S\",\"J\",\"86\"
\"\",\"\",\"approach-retreat\",\"235\",\"1730389\",\"0.0-235.0\",\"\",\"\",\"2-3\",\"4575\",\"39\",\"1\",\"Testing\",\"Stims/Figures/44-C-30-3.bmp\",\"taka:ta\",\"Right\",\"39\",\"4\",\"15\",\"5\",\"P\",\"J\",\"87\"
\"\",\"\",\"approach-retreat\",\"236\",\"1736580\",\"0.0-236.0\",\"\",\"\",\"2-3\",\"4667\",\"38\",\"1\",\"Testing\",\"Stims/Figures/144-C-30-3.bmp\",\"takaka\",\"Up\",\"38\",\"4\",\"16\",\"5\",\"P\",\"J\",\"88\"
\"\",\"\",\"approach-retreat\",\"237\",\"1742762\",\"0.0-237.0\",\"\",\"\",\"2-3\",\"4669\",\"39\",\"1\",\"Testing\",\"Stims/Figures/7-J-10-4.bmp\",\"malana\",\"Left\",\"39\",\"4\",\"17\",\"5\",\"S\",\"J\",\"89\"
\"\",\"\",\"approach-retreat\",\"238\",\"1748846\",\"0.0-238.0\",\"\",\"\",\"2-3\",\"4558\",\"39\",\"1\",\"Testing\",\"Stims/Figures/87-C-20-4.bmp\",\"papata\",\"Right\",\"39\",\"4\",\"18\",\"5\",\"P\",\"J\",\"90\"
\"\",\"\",\"approach-retreat\",\"239\",\"1754762\",\"0.0-239.0\",\"\",\"\",\"2-3\",\"4395\",\"39\",\"1\",\"Testing\",\"Stims/Figures/71-J-0-1.bmp\",\"nama:na\",\"Left\",\"39\",\"4\",\"19\",\"5\",\"S\",\"J\",\"91\"
\"\",\"\",\"approach-retreat\",\"240\",\"1760594\",\"0.0-240.0\",\"\",\"\",\"2-3\",\"4312\",\"39\",\"1\",\"Testing\",\"Stims/Figures/27-C-30-1.bmp\",\"pa:pa:ka\",\"Right\",\"39\",\"4\",\"20\",\"5\",\"P\",\"J\",\"92\"
\"\",\"\",\"approach-retreat\",\"241\",\"1766498\",\"0.0-241.0\",\"\",\"\",\"2-3\",\"4389\",\"39\",\"0\",\"Testing\",\"Stims/Figures/19-C-20-4.bmp\",\"ta:ka:ta\",\"Left\",\"37\",\"4\",\"21\",\"5\",\"P\",\"J\",\"93\"
\"\",\"\",\"approach-retreat\",\"242\",\"1772312\",\"0.0-242.0\",\"\",\"\",\"2-3\",\"4304\",\"38\",\"1\",\"Testing\",\"Stims/Figures/84-J-0-2.bmp\",\"ma:mana\",\"Down\",\"38\",\"4\",\"22\",\"5\",\"S\",\"J\",\"94\"
\"\",\"\",\"approach-retreat\",\"243\",\"1778075\",\"0.0-243.0\",\"\",\"\",\"2-3\",\"4237\",\"38\",\"1\",\"Testing\",\"Stims/Figures/139-J-0-2.bmp\",\"na:ma:na\",\"Down\",\"38\",\"4\",\"23\",\"5\",\"S\",\"J\",\"95\"
\"\",\"\",\"approach-retreat\",\"244\",\"1784542\",\"0.0-244.0\",\"\",\"\",\"2-3\",\"4952\",\"38\",\"1\",\"Testing\",\"Stims/Figures/57-C-30-1.bmp\",\"tapaka\",\"Up\",\"38\",\"4\",\"24\",\"5\",\"P\",\"J\",\"96\"
\"15744\",\"\",\"survey-text\",\"245\",\"1800294\",\"0.0-245.0\",\"\",\"{\"\"Q0\"\":\"\"PS170033\"\"}\",\"\",\"\",\"\",\"\",\"\",\"\",\"\",\"\",\"\",\"\",\"\",\"\",\"\",\"\",\"\"
