\"rt\",\"key_press\",\"trial_type\",\"trial_index\",\"time_elapsed\",\"internal_node_id\",\"view_history\",\"responses\",\"Id\",\"Rt\",\"ResKeyCode\",\"ResCorr\",\"TrialType2\",\"Image\",\"Label\",\"Location\",\"CorrectResponse\",\"Block\",\"BlockTrial\",\"Condition\",\"LabelType\",\"Subcondition\",\"trialNum\"
\"21602\",\"32\",\"text\",\"0\",\"21609\",\"0.0-0.0-0.0\",\"\",\"\",\"\",\"\",\"\",\"\",\"\",\"\",\"\",\"\",\"\",\"\",\"\",\"\",\"\",\"\",\"\"
\"40256\",\"\",\"instructions\",\"1\",\"61869\",\"0.0-1.0\",\"[{\"\"page_index\"\":0,\"\"viewing_time\"\":40256}]\",\"\",\"\",\"\",\"\",\"\",\"\",\"\",\"\",\"\",\"\",\"\",\"\",\"\",\"\",\"\",\"\"
\"11816\",\"\",\"survey-multi-choice\",\"2\",\"73707\",\"0.0-2.0\",\"\",\"{\"\"Q0\"\":\"\"Da\"\",\"\"Q1\"\":\"\"Da\"\",\"\"Q2\"\":\"\"Da\"\",\"\"Q3\"\":\"\"Da\"\",\"\"Q4\"\":\"\"Da\"\",\"\"Q5\"\":\"\"Da\"\"}\",\"\",\"\",\"\",\"\",\"\",\"\",\"\",\"\",\"\",\"\",\"\",\"\",\"\",\"\",\"\"
\"\",\"\",\"bio\",\"3\",\"83652\",\"0.0-3.0\",\"\",\"{\"\"age\"\":\"\"20\"\",\"\"gender\"\":\"\"f\"\",\"\"specify\"\":\"\"\"\"}\",\"\",\"\",\"\",\"\",\"\",\"\",\"\",\"\",\"\",\"\",\"\",\"\",\"\",\"\",\"\"
\"\",\"\",\"approach-retreat\",\"4\",\"91160\",\"0.0-4.0\",\"\",\"\",\"3-3\",\"5998\",\"39\",\"0\",\"Training\",\"Stims/Figures/102-C-20-4.bmp\",\"vafava\",\"Left\",\"37\",\"1\",\"1\",\"6B\",\"C1\",\"J\",\"1\"
\"\",\"\",\"approach-retreat\",\"5\",\"98232\",\"0.0-5.0\",\"\",\"\",\"3-3\",\"5559\",\"37\",\"1\",\"Training\",\"Stims/Figures/102-J-10-4.bmp\",\"zahaza\",\"Right\",\"37\",\"1\",\"2\",\"6B\",\"C2\",\"J\",\"2\"
\"\",\"\",\"approach-retreat\",\"6\",\"104817\",\"0.0-6.0\",\"\",\"\",\"3-3\",\"5074\",\"38\",\"0\",\"Training\",\"Stims/Figures/144-J-10-3.bmp\",\"za:haha\",\"Up\",\"40\",\"1\",\"3\",\"6B\",\"C2\",\"J\",\"3\"
\"\",\"\",\"approach-retreat\",\"7\",\"110701\",\"0.0-7.0\",\"\",\"\",\"3-3\",\"4373\",\"37\",\"1\",\"Training\",\"Stims/Figures/44-J-10-3.bmp\",\"za:sa:ha\",\"Right\",\"37\",\"1\",\"4\",\"6B\",\"C2\",\"J\",\"4\"
\"\",\"\",\"approach-retreat\",\"8\",\"116911\",\"0.0-8.0\",\"\",\"\",\"3-3\",\"4698\",\"37\",\"0\",\"Training\",\"Stims/Figures/85-J-0-2.bmp\",\"sasa:ha\",\"Left\",\"39\",\"1\",\"5\",\"6B\",\"C2\",\"J\",\"5\"
\"\",\"\",\"approach-retreat\",\"9\",\"122805\",\"0.0-9.0\",\"\",\"\",\"3-3\",\"4389\",\"38\",\"1\",\"Training\",\"Stims/Figures/27-J-0-1.bmp\",\"sa:ha:ha\",\"Down\",\"38\",\"1\",\"6\",\"6B\",\"C2\",\"J\",\"6\"
\"\",\"\",\"approach-retreat\",\"10\",\"129166\",\"0.0-10.0\",\"\",\"\",\"3-3\",\"4855\",\"39\",\"1\",\"Training\",\"Stims/Figures/74-C-20-4.bmp\",\"fafasha\",\"Right\",\"39\",\"1\",\"7\",\"6B\",\"C1\",\"J\",\"7\"
\"\",\"\",\"approach-retreat\",\"11\",\"135183\",\"0.0-11.0\",\"\",\"\",\"3-3\",\"4504\",\"37\",\"0\",\"Training\",\"Stims/Figures/85-C-20-2.bmp\",\"va:shasha\",\"Right\",\"39\",\"1\",\"8\",\"6B\",\"C1\",\"J\",\"8\"
\"\",\"\",\"approach-retreat\",\"12\",\"141496\",\"0.0-12.0\",\"\",\"\",\"3-3\",\"4801\",\"38\",\"0\",\"Training\",\"Stims/Figures/27-C-30-1.bmp\",\"fafava\",\"Down\",\"40\",\"1\",\"9\",\"6B\",\"C1\",\"J\",\"9\"
\"\",\"\",\"approach-retreat\",\"13\",\"147335\",\"0.0-13.0\",\"\",\"\",\"3-3\",\"4328\",\"40\",\"1\",\"Training\",\"Stims/Figures/57-J-0-1.bmp\",\"sa:saha\",\"Up\",\"40\",\"1\",\"10\",\"6B\",\"C2\",\"J\",\"10\"
\"\",\"\",\"approach-retreat\",\"14\",\"153341\",\"0.0-14.0\",\"\",\"\",\"3-3\",\"4495\",\"38\",\"0\",\"Training\",\"Stims/Figures/57-C-30-1.bmp\",\"va:fasha\",\"Down\",\"40\",\"1\",\"11\",\"6B\",\"C1\",\"J\",\"11\"
\"\",\"\",\"approach-retreat\",\"15\",\"159140\",\"0.0-15.0\",\"\",\"\",\"3-3\",\"4286\",\"38\",\"0\",\"Training\",\"Stims/Figures/84-C-20-2.bmp\",\"fasha:sha\",\"Down\",\"40\",\"1\",\"12\",\"6B\",\"C1\",\"J\",\"12\"
\"\",\"\",\"approach-retreat\",\"16\",\"165753\",\"0.0-16.0\",\"\",\"\",\"3-3\",\"5101\",\"37\",\"1\",\"Training\",\"Stims/Figures/144-C-30-3.bmp\",\"va:fa:sha\",\"Left\",\"37\",\"1\",\"13\",\"6B\",\"C1\",\"J\",\"13\"
\"\",\"\",\"approach-retreat\",\"17\",\"171727\",\"0.0-17.0\",\"\",\"\",\"3-3\",\"4462\",\"40\",\"1\",\"Training\",\"Stims/Figures/84-J-0-2.bmp\",\"sasaza\",\"Up\",\"40\",\"1\",\"14\",\"6B\",\"C2\",\"J\",\"14\"
\"\",\"\",\"approach-retreat\",\"18\",\"177747\",\"0.0-18.0\",\"\",\"\",\"3-3\",\"4508\",\"37\",\"1\",\"Training\",\"Stims/Figures/44-C-30-3.bmp\",\"va:sha:va\",\"Left\",\"37\",\"1\",\"15\",\"6B\",\"C1\",\"J\",\"15\"
\"\",\"\",\"approach-retreat\",\"19\",\"183393\",\"0.0-19.0\",\"\",\"\",\"3-3\",\"4141\",\"40\",\"1\",\"Training\",\"Stims/Figures/74-J-10-4.bmp\",\"zasa:ha\",\"Up\",\"40\",\"1\",\"16\",\"6B\",\"C2\",\"J\",\"16\"
\"\",\"\",\"approach-retreat\",\"20\",\"189536\",\"0.0-20.0\",\"\",\"\",\"3-3\",\"4639\",\"40\",\"1\",\"Training\",\"Stims/Figures/144-C-30-3.bmp\",\"va:fa:sha\",\"Down\",\"40\",\"2\",\"1\",\"6B\",\"C1\",\"J\",\"17\"
\"\",\"\",\"approach-retreat\",\"21\",\"195926\",\"0.0-21.0\",\"\",\"\",\"3-3\",\"4885\",\"37\",\"1\",\"Training\",\"Stims/Figures/84-C-20-2.bmp\",\"fasha:sha\",\"Left\",\"37\",\"2\",\"2\",\"6B\",\"C1\",\"J\",\"18\"
\"\",\"\",\"approach-retreat\",\"22\",\"201762\",\"0.0-22.0\",\"\",\"\",\"3-3\",\"4325\",\"38\",\"0\",\"Training\",\"Stims/Figures/44-C-30-3.bmp\",\"va:sha:va\",\"Down\",\"40\",\"2\",\"3\",\"6B\",\"C1\",\"J\",\"19\"
\"\",\"\",\"approach-retreat\",\"23\",\"207899\",\"0.0-23.0\",\"\",\"\",\"3-3\",\"4626\",\"38\",\"1\",\"Training\",\"Stims/Figures/85-C-20-2.bmp\",\"va:shasha\",\"Up\",\"38\",\"2\",\"4\",\"6B\",\"C1\",\"J\",\"20\"
\"\",\"\",\"approach-retreat\",\"24\",\"214078\",\"0.0-24.0\",\"\",\"\",\"3-3\",\"4668\",\"40\",\"1\",\"Training\",\"Stims/Figures/57-J-0-1.bmp\",\"sa:saha\",\"Up\",\"40\",\"2\",\"5\",\"6B\",\"C2\",\"J\",\"21\"
\"\",\"\",\"approach-retreat\",\"25\",\"220321\",\"0.0-25.0\",\"\",\"\",\"3-3\",\"4732\",\"38\",\"1\",\"Training\",\"Stims/Figures/44-J-10-3.bmp\",\"za:sa:ha\",\"Down\",\"38\",\"2\",\"6\",\"6B\",\"C2\",\"J\",\"22\"
\"\",\"\",\"approach-retreat\",\"26\",\"227177\",\"0.0-26.0\",\"\",\"\",\"3-3\",\"5343\",\"39\",\"1\",\"Training\",\"Stims/Figures/74-C-20-4.bmp\",\"fafasha\",\"Right\",\"39\",\"2\",\"7\",\"6B\",\"C1\",\"J\",\"23\"
\"\",\"\",\"approach-retreat\",\"27\",\"234189\",\"0.0-27.0\",\"\",\"\",\"3-3\",\"5502\",\"38\",\"1\",\"Training\",\"Stims/Figures/85-J-0-2.bmp\",\"sasa:ha\",\"Down\",\"38\",\"2\",\"8\",\"6B\",\"C2\",\"J\",\"24\"
\"\",\"\",\"approach-retreat\",\"28\",\"240863\",\"0.0-28.0\",\"\",\"\",\"3-3\",\"5168\",\"37\",\"0\",\"Training\",\"Stims/Figures/144-J-10-3.bmp\",\"za:haha\",\"Left\",\"39\",\"2\",\"9\",\"6B\",\"C2\",\"J\",\"25\"
\"\",\"\",\"approach-retreat\",\"29\",\"246852\",\"0.0-29.0\",\"\",\"\",\"3-3\",\"4483\",\"39\",\"1\",\"Training\",\"Stims/Figures/57-C-30-1.bmp\",\"va:fasha\",\"Right\",\"39\",\"2\",\"10\",\"6B\",\"C1\",\"J\",\"26\"
\"\",\"\",\"approach-retreat\",\"30\",\"252495\",\"0.0-30.0\",\"\",\"\",\"3-3\",\"4133\",\"37\",\"0\",\"Training\",\"Stims/Figures/27-C-30-1.bmp\",\"fafava\",\"Right\",\"39\",\"2\",\"11\",\"6B\",\"C1\",\"J\",\"27\"
\"\",\"\",\"approach-retreat\",\"31\",\"259281\",\"0.0-31.0\",\"\",\"\",\"3-3\",\"5274\",\"39\",\"1\",\"Training\",\"Stims/Figures/84-J-0-2.bmp\",\"sasaza\",\"Left\",\"39\",\"2\",\"12\",\"6B\",\"C2\",\"J\",\"28\"
\"\",\"\",\"approach-retreat\",\"32\",\"265207\",\"0.0-32.0\",\"\",\"\",\"3-3\",\"4414\",\"39\",\"1\",\"Training\",\"Stims/Figures/102-J-10-4.bmp\",\"zahaza\",\"Left\",\"39\",\"2\",\"13\",\"6B\",\"C2\",\"J\",\"29\"
\"\",\"\",\"approach-retreat\",\"33\",\"271609\",\"0.0-33.0\",\"\",\"\",\"3-3\",\"4890\",\"40\",\"0\",\"Training\",\"Stims/Figures/102-C-20-4.bmp\",\"vafava\",\"Up\",\"38\",\"2\",\"14\",\"6B\",\"C1\",\"J\",\"30\"
\"\",\"\",\"approach-retreat\",\"34\",\"277123\",\"0.0-34.0\",\"\",\"\",\"3-3\",\"4002\",\"40\",\"1\",\"Training\",\"Stims/Figures/27-J-0-1.bmp\",\"sa:ha:ha\",\"Up\",\"40\",\"2\",\"15\",\"6B\",\"C2\",\"J\",\"31\"
\"\",\"\",\"approach-retreat\",\"35\",\"282872\",\"0.0-35.0\",\"\",\"\",\"3-3\",\"4236\",\"37\",\"1\",\"Training\",\"Stims/Figures/74-J-10-4.bmp\",\"zasa:ha\",\"Right\",\"37\",\"2\",\"16\",\"6B\",\"C2\",\"J\",\"32\"
\"\",\"\",\"approach-retreat\",\"36\",\"288697\",\"0.0-36.0\",\"\",\"\",\"3-3\",\"4313\",\"40\",\"1\",\"Training\",\"Stims/Figures/27-C-30-1.bmp\",\"fafava\",\"Down\",\"40\",\"3\",\"1\",\"6B\",\"C1\",\"J\",\"33\"
\"\",\"\",\"approach-retreat\",\"37\",\"294757\",\"0.0-37.0\",\"\",\"\",\"3-3\",\"4549\",\"39\",\"1\",\"Training\",\"Stims/Figures/57-J-0-1.bmp\",\"sa:saha\",\"Left\",\"39\",\"3\",\"2\",\"6B\",\"C2\",\"J\",\"34\"
\"\",\"\",\"approach-retreat\",\"38\",\"300646\",\"0.0-38.0\",\"\",\"\",\"3-3\",\"4381\",\"40\",\"1\",\"Training\",\"Stims/Figures/85-J-0-2.bmp\",\"sasa:ha\",\"Up\",\"40\",\"3\",\"3\",\"6B\",\"C2\",\"J\",\"35\"
\"\",\"\",\"approach-retreat\",\"39\",\"306529\",\"0.0-39.0\",\"\",\"\",\"3-3\",\"4378\",\"40\",\"1\",\"Training\",\"Stims/Figures/102-C-20-4.bmp\",\"vafava\",\"Down\",\"40\",\"3\",\"4\",\"6B\",\"C1\",\"J\",\"36\"
\"\",\"\",\"approach-retreat\",\"40\",\"313026\",\"0.0-40.0\",\"\",\"\",\"3-3\",\"4991\",\"37\",\"1\",\"Training\",\"Stims/Figures/27-J-0-1.bmp\",\"sa:ha:ha\",\"Right\",\"37\",\"3\",\"5\",\"6B\",\"C2\",\"J\",\"37\"
\"\",\"\",\"approach-retreat\",\"41\",\"319255\",\"0.0-41.0\",\"\",\"\",\"3-3\",\"4718\",\"40\",\"1\",\"Training\",\"Stims/Figures/44-C-30-3.bmp\",\"va:sha:va\",\"Down\",\"40\",\"3\",\"6\",\"6B\",\"C1\",\"J\",\"38\"
\"\",\"\",\"approach-retreat\",\"42\",\"325167\",\"0.0-42.0\",\"\",\"\",\"3-3\",\"4401\",\"39\",\"1\",\"Training\",\"Stims/Figures/85-C-20-2.bmp\",\"va:shasha\",\"Right\",\"39\",\"3\",\"7\",\"6B\",\"C1\",\"J\",\"39\"
\"\",\"\",\"approach-retreat\",\"43\",\"330957\",\"0.0-43.0\",\"\",\"\",\"3-3\",\"4279\",\"40\",\"1\",\"Training\",\"Stims/Figures/84-J-0-2.bmp\",\"sasaza\",\"Up\",\"40\",\"3\",\"8\",\"6B\",\"C2\",\"J\",\"40\"
\"\",\"\",\"approach-retreat\",\"44\",\"337557\",\"0.0-44.0\",\"\",\"\",\"3-3\",\"5090\",\"39\",\"1\",\"Training\",\"Stims/Figures/144-J-10-3.bmp\",\"za:haha\",\"Left\",\"39\",\"3\",\"9\",\"6B\",\"C2\",\"J\",\"41\"
\"\",\"\",\"approach-retreat\",\"45\",\"343104\",\"0.0-45.0\",\"\",\"\",\"3-3\",\"4036\",\"39\",\"1\",\"Training\",\"Stims/Figures/74-J-10-4.bmp\",\"zasa:ha\",\"Left\",\"39\",\"3\",\"10\",\"6B\",\"C2\",\"J\",\"42\"
\"\",\"\",\"approach-retreat\",\"46\",\"348525\",\"0.0-46.0\",\"\",\"\",\"3-3\",\"3909\",\"39\",\"1\",\"Training\",\"Stims/Figures/102-J-10-4.bmp\",\"zahaza\",\"Left\",\"39\",\"3\",\"11\",\"6B\",\"C2\",\"J\",\"43\"
\"\",\"\",\"approach-retreat\",\"47\",\"354406\",\"0.0-47.0\",\"\",\"\",\"3-3\",\"4370\",\"40\",\"1\",\"Training\",\"Stims/Figures/74-C-20-4.bmp\",\"fafasha\",\"Down\",\"40\",\"3\",\"12\",\"6B\",\"C1\",\"J\",\"44\"
\"\",\"\",\"approach-retreat\",\"48\",\"360473\",\"0.0-48.0\",\"\",\"\",\"3-3\",\"4560\",\"38\",\"1\",\"Training\",\"Stims/Figures/84-C-20-2.bmp\",\"fasha:sha\",\"Up\",\"38\",\"3\",\"13\",\"6B\",\"C1\",\"J\",\"45\"
\"\",\"\",\"approach-retreat\",\"49\",\"367320\",\"0.0-49.0\",\"\",\"\",\"3-3\",\"5342\",\"39\",\"0\",\"Training\",\"Stims/Figures/44-J-10-3.bmp\",\"za:sa:ha\",\"Right\",\"37\",\"3\",\"14\",\"6B\",\"C2\",\"J\",\"46\"
\"\",\"\",\"approach-retreat\",\"50\",\"373080\",\"0.0-50.0\",\"\",\"\",\"3-3\",\"4248\",\"38\",\"1\",\"Training\",\"Stims/Figures/57-C-30-1.bmp\",\"va:fasha\",\"Up\",\"38\",\"3\",\"15\",\"6B\",\"C1\",\"J\",\"47\"
\"\",\"\",\"approach-retreat\",\"51\",\"378906\",\"0.0-51.0\",\"\",\"\",\"3-3\",\"4315\",\"39\",\"1\",\"Training\",\"Stims/Figures/144-C-30-3.bmp\",\"va:fa:sha\",\"Right\",\"39\",\"3\",\"16\",\"6B\",\"C1\",\"J\",\"48\"
\"\",\"\",\"approach-retreat\",\"52\",\"384586\",\"0.0-52.0\",\"\",\"\",\"3-3\",\"4167\",\"37\",\"1\",\"Training\",\"Stims/Figures/84-J-0-2.bmp\",\"sasaza\",\"Right\",\"37\",\"4\",\"1\",\"6B\",\"C2\",\"J\",\"49\"
\"\",\"\",\"approach-retreat\",\"53\",\"390305\",\"0.0-53.0\",\"\",\"\",\"3-3\",\"4209\",\"40\",\"1\",\"Training\",\"Stims/Figures/27-J-0-1.bmp\",\"sa:ha:ha\",\"Up\",\"40\",\"4\",\"2\",\"6B\",\"C2\",\"J\",\"50\"
\"\",\"\",\"approach-retreat\",\"54\",\"396207\",\"0.0-54.0\",\"\",\"\",\"3-3\",\"4390\",\"39\",\"1\",\"Training\",\"Stims/Figures/85-J-0-2.bmp\",\"sasa:ha\",\"Left\",\"39\",\"4\",\"3\",\"6B\",\"C2\",\"J\",\"51\"
\"\",\"\",\"approach-retreat\",\"55\",\"401963\",\"0.0-55.0\",\"\",\"\",\"3-3\",\"4246\",\"37\",\"1\",\"Training\",\"Stims/Figures/57-C-30-1.bmp\",\"va:fasha\",\"Left\",\"37\",\"4\",\"4\",\"6B\",\"C1\",\"J\",\"52\"
\"\",\"\",\"approach-retreat\",\"56\",\"408176\",\"0.0-56.0\",\"\",\"\",\"3-3\",\"4700\",\"37\",\"0\",\"Training\",\"Stims/Figures/102-C-20-4.bmp\",\"vafava\",\"Right\",\"39\",\"4\",\"5\",\"6B\",\"C1\",\"J\",\"53\"
\"\",\"\",\"approach-retreat\",\"57\",\"415983\",\"0.0-57.0\",\"\",\"\",\"3-3\",\"6296\",\"37\",\"1\",\"Training\",\"Stims/Figures/85-C-20-2.bmp\",\"va:shasha\",\"Left\",\"37\",\"4\",\"6\",\"6B\",\"C1\",\"J\",\"54\"
\"\",\"\",\"approach-retreat\",\"58\",\"422989\",\"0.0-58.0\",\"\",\"\",\"3-3\",\"5500\",\"38\",\"1\",\"Training\",\"Stims/Figures/144-J-10-3.bmp\",\"za:haha\",\"Down\",\"38\",\"4\",\"7\",\"6B\",\"C2\",\"J\",\"55\"
\"\",\"\",\"approach-retreat\",\"59\",\"429003\",\"0.0-59.0\",\"\",\"\",\"3-3\",\"4508\",\"40\",\"1\",\"Training\",\"Stims/Figures/102-J-10-4.bmp\",\"zahaza\",\"Up\",\"40\",\"4\",\"8\",\"6B\",\"C2\",\"J\",\"56\"
\"\",\"\",\"approach-retreat\",\"60\",\"435541\",\"0.0-60.0\",\"\",\"\",\"3-3\",\"5024\",\"40\",\"1\",\"Training\",\"Stims/Figures/44-C-30-3.bmp\",\"va:sha:va\",\"Down\",\"40\",\"4\",\"9\",\"6B\",\"C1\",\"J\",\"57\"
\"\",\"\",\"approach-retreat\",\"61\",\"441913\",\"0.0-61.0\",\"\",\"\",\"3-3\",\"4862\",\"37\",\"0\",\"Training\",\"Stims/Figures/74-J-10-4.bmp\",\"zasa:ha\",\"Left\",\"39\",\"4\",\"10\",\"6B\",\"C2\",\"J\",\"58\"
\"\",\"\",\"approach-retreat\",\"62\",\"447725\",\"0.0-62.0\",\"\",\"\",\"3-3\",\"4299\",\"40\",\"1\",\"Training\",\"Stims/Figures/74-C-20-4.bmp\",\"fafasha\",\"Down\",\"40\",\"4\",\"11\",\"6B\",\"C1\",\"J\",\"59\"
\"\",\"\",\"approach-retreat\",\"63\",\"453787\",\"0.0-63.0\",\"\",\"\",\"3-3\",\"4550\",\"39\",\"1\",\"Training\",\"Stims/Figures/27-C-30-1.bmp\",\"fafava\",\"Right\",\"39\",\"4\",\"12\",\"6B\",\"C1\",\"J\",\"60\"
\"\",\"\",\"approach-retreat\",\"64\",\"459593\",\"0.0-64.0\",\"\",\"\",\"3-3\",\"4295\",\"38\",\"1\",\"Training\",\"Stims/Figures/44-J-10-3.bmp\",\"za:sa:ha\",\"Down\",\"38\",\"4\",\"13\",\"6B\",\"C2\",\"J\",\"61\"
\"\",\"\",\"approach-retreat\",\"65\",\"466688\",\"0.0-65.0\",\"\",\"\",\"3-3\",\"5582\",\"40\",\"1\",\"Training\",\"Stims/Figures/57-J-0-1.bmp\",\"sa:saha\",\"Up\",\"40\",\"4\",\"14\",\"6B\",\"C2\",\"J\",\"62\"
\"\",\"\",\"approach-retreat\",\"66\",\"472606\",\"0.0-66.0\",\"\",\"\",\"3-3\",\"4406\",\"37\",\"0\",\"Training\",\"Stims/Figures/144-C-30-3.bmp\",\"va:fa:sha\",\"Right\",\"39\",\"4\",\"15\",\"6B\",\"C1\",\"J\",\"63\"
\"\",\"\",\"approach-retreat\",\"67\",\"481211\",\"0.0-67.0\",\"\",\"\",\"3-3\",\"7092\",\"38\",\"1\",\"Training\",\"Stims/Figures/84-C-20-2.bmp\",\"fasha:sha\",\"Up\",\"38\",\"4\",\"16\",\"6B\",\"C1\",\"J\",\"64\"
\"\",\"\",\"approach-retreat\",\"68\",\"488135\",\"0.0-68.0\",\"\",\"\",\"3-3\",\"5418\",\"38\",\"1\",\"Training\",\"Stims/Figures/85-C-20-2.bmp\",\"va:shasha\",\"Up\",\"38\",\"5\",\"1\",\"6B\",\"C1\",\"J\",\"65\"
\"\",\"\",\"approach-retreat\",\"69\",\"494312\",\"0.0-69.0\",\"\",\"\",\"3-3\",\"4665\",\"37\",\"1\",\"Training\",\"Stims/Figures/57-C-30-1.bmp\",\"va:fasha\",\"Left\",\"37\",\"5\",\"2\",\"6B\",\"C1\",\"J\",\"66\"
\"\",\"\",\"approach-retreat\",\"70\",\"499888\",\"0.0-70.0\",\"\",\"\",\"3-3\",\"4065\",\"39\",\"1\",\"Training\",\"Stims/Figures/102-J-10-4.bmp\",\"zahaza\",\"Left\",\"39\",\"5\",\"3\",\"6B\",\"C2\",\"J\",\"67\"
\"\",\"\",\"approach-retreat\",\"71\",\"506691\",\"0.0-71.0\",\"\",\"\",\"3-3\",\"5291\",\"40\",\"1\",\"Training\",\"Stims/Figures/84-C-20-2.bmp\",\"fasha:sha\",\"Down\",\"40\",\"5\",\"4\",\"6B\",\"C1\",\"J\",\"68\"
\"\",\"\",\"approach-retreat\",\"72\",\"513700\",\"0.0-72.0\",\"\",\"\",\"3-3\",\"5498\",\"40\",\"1\",\"Training\",\"Stims/Figures/44-J-10-3.bmp\",\"za:sa:ha\",\"Up\",\"40\",\"5\",\"5\",\"6B\",\"C2\",\"J\",\"69\"
\"\",\"\",\"approach-retreat\",\"73\",\"520173\",\"0.0-73.0\",\"\",\"\",\"3-3\",\"4962\",\"37\",\"1\",\"Training\",\"Stims/Figures/27-J-0-1.bmp\",\"sa:ha:ha\",\"Right\",\"37\",\"5\",\"6\",\"6B\",\"C2\",\"J\",\"70\"
\"\",\"\",\"approach-retreat\",\"74\",\"526690\",\"0.0-74.0\",\"\",\"\",\"3-3\",\"5005\",\"38\",\"0\",\"Training\",\"Stims/Figures/44-C-30-3.bmp\",\"va:sha:va\",\"Down\",\"40\",\"5\",\"7\",\"6B\",\"C1\",\"J\",\"71\"
\"\",\"\",\"approach-retreat\",\"75\",\"532795\",\"0.0-75.0\",\"\",\"\",\"3-3\",\"4594\",\"40\",\"1\",\"Training\",\"Stims/Figures/84-J-0-2.bmp\",\"sasaza\",\"Up\",\"40\",\"5\",\"8\",\"6B\",\"C2\",\"J\",\"72\"
\"\",\"\",\"approach-retreat\",\"76\",\"539910\",\"0.0-76.0\",\"\",\"\",\"3-3\",\"5604\",\"38\",\"0\",\"Training\",\"Stims/Figures/102-C-20-4.bmp\",\"vafava\",\"Down\",\"40\",\"5\",\"9\",\"6B\",\"C1\",\"J\",\"73\"
\"\",\"\",\"approach-retreat\",\"77\",\"545543\",\"0.0-77.0\",\"\",\"\",\"3-3\",\"4127\",\"39\",\"1\",\"Training\",\"Stims/Figures/74-C-20-4.bmp\",\"fafasha\",\"Right\",\"39\",\"5\",\"10\",\"6B\",\"C1\",\"J\",\"74\"
\"\",\"\",\"approach-retreat\",\"78\",\"552204\",\"0.0-78.0\",\"\",\"\",\"3-3\",\"5154\",\"37\",\"1\",\"Training\",\"Stims/Figures/144-J-10-3.bmp\",\"za:haha\",\"Right\",\"37\",\"5\",\"11\",\"6B\",\"C2\",\"J\",\"75\"
\"\",\"\",\"approach-retreat\",\"79\",\"558401\",\"0.0-79.0\",\"\",\"\",\"3-3\",\"4685\",\"39\",\"1\",\"Training\",\"Stims/Figures/27-C-30-1.bmp\",\"fafava\",\"Right\",\"39\",\"5\",\"12\",\"6B\",\"C1\",\"J\",\"76\"
\"\",\"\",\"approach-retreat\",\"80\",\"565206\",\"0.0-80.0\",\"\",\"\",\"3-3\",\"5291\",\"38\",\"1\",\"Training\",\"Stims/Figures/85-J-0-2.bmp\",\"sasa:ha\",\"Down\",\"38\",\"5\",\"13\",\"6B\",\"C2\",\"J\",\"77\"
\"\",\"\",\"approach-retreat\",\"81\",\"571644\",\"0.0-81.0\",\"\",\"\",\"3-3\",\"4927\",\"37\",\"1\",\"Training\",\"Stims/Figures/144-C-30-3.bmp\",\"va:fa:sha\",\"Left\",\"37\",\"5\",\"14\",\"6B\",\"C1\",\"J\",\"78\"
\"\",\"\",\"approach-retreat\",\"82\",\"577673\",\"0.0-82.0\",\"\",\"\",\"3-3\",\"4516\",\"40\",\"1\",\"Training\",\"Stims/Figures/57-J-0-1.bmp\",\"sa:saha\",\"Up\",\"40\",\"5\",\"15\",\"6B\",\"C2\",\"J\",\"79\"
\"\",\"\",\"approach-retreat\",\"83\",\"584169\",\"0.0-83.0\",\"\",\"\",\"3-3\",\"4983\",\"39\",\"1\",\"Training\",\"Stims/Figures/74-J-10-4.bmp\",\"zasa:ha\",\"Left\",\"39\",\"5\",\"16\",\"6B\",\"C2\",\"J\",\"80\"
\"\",\"\",\"approach-retreat\",\"84\",\"590962\",\"0.0-84.0\",\"\",\"\",\"3-3\",\"5279\",\"38\",\"1\",\"Training\",\"Stims/Figures/102-C-20-4.bmp\",\"vafava\",\"Up\",\"38\",\"6\",\"1\",\"6B\",\"C1\",\"J\",\"81\"
\"\",\"\",\"approach-retreat\",\"85\",\"597464\",\"0.0-85.0\",\"\",\"\",\"3-3\",\"4991\",\"38\",\"1\",\"Training\",\"Stims/Figures/144-J-10-3.bmp\",\"za:haha\",\"Down\",\"38\",\"6\",\"2\",\"6B\",\"C2\",\"J\",\"82\"
\"\",\"\",\"approach-retreat\",\"86\",\"604162\",\"0.0-86.0\",\"\",\"\",\"3-3\",\"5192\",\"37\",\"1\",\"Training\",\"Stims/Figures/27-J-0-1.bmp\",\"sa:ha:ha\",\"Right\",\"37\",\"6\",\"3\",\"6B\",\"C2\",\"J\",\"83\"
\"\",\"\",\"approach-retreat\",\"87\",\"609939\",\"0.0-87.0\",\"\",\"\",\"3-3\",\"4271\",\"38\",\"1\",\"Training\",\"Stims/Figures/85-C-20-2.bmp\",\"va:shasha\",\"Up\",\"38\",\"6\",\"4\",\"6B\",\"C1\",\"J\",\"84\"
\"\",\"\",\"approach-retreat\",\"88\",\"616395\",\"0.0-88.0\",\"\",\"\",\"3-3\",\"4944\",\"38\",\"1\",\"Training\",\"Stims/Figures/57-C-30-1.bmp\",\"va:fasha\",\"Up\",\"38\",\"6\",\"5\",\"6B\",\"C1\",\"J\",\"85\"
\"\",\"\",\"approach-retreat\",\"89\",\"621853\",\"0.0-89.0\",\"\",\"\",\"3-3\",\"3944\",\"40\",\"1\",\"Training\",\"Stims/Figures/44-J-10-3.bmp\",\"za:sa:ha\",\"Up\",\"40\",\"6\",\"6\",\"6B\",\"C2\",\"J\",\"86\"
\"\",\"\",\"approach-retreat\",\"90\",\"628150\",\"0.0-90.0\",\"\",\"\",\"3-3\",\"4786\",\"40\",\"1\",\"Training\",\"Stims/Figures/144-C-30-3.bmp\",\"va:fa:sha\",\"Down\",\"40\",\"6\",\"7\",\"6B\",\"C1\",\"J\",\"87\"
\"\",\"\",\"approach-retreat\",\"91\",\"635709\",\"0.0-91.0\",\"\",\"\",\"3-3\",\"6047\",\"37\",\"1\",\"Training\",\"Stims/Figures/84-J-0-2.bmp\",\"sasaza\",\"Right\",\"37\",\"6\",\"8\",\"6B\",\"C2\",\"J\",\"88\"
\"\",\"\",\"approach-retreat\",\"92\",\"641977\",\"0.0-92.0\",\"\",\"\",\"3-3\",\"4756\",\"38\",\"1\",\"Training\",\"Stims/Figures/102-J-10-4.bmp\",\"zahaza\",\"Down\",\"38\",\"6\",\"9\",\"6B\",\"C2\",\"J\",\"89\"
\"\",\"\",\"approach-retreat\",\"93\",\"647510\",\"0.0-93.0\",\"\",\"\",\"3-3\",\"4021\",\"37\",\"1\",\"Training\",\"Stims/Figures/57-J-0-1.bmp\",\"sa:saha\",\"Right\",\"37\",\"6\",\"10\",\"6B\",\"C2\",\"J\",\"90\"
\"\",\"\",\"approach-retreat\",\"94\",\"653537\",\"0.0-94.0\",\"\",\"\",\"3-3\",\"4516\",\"39\",\"1\",\"Training\",\"Stims/Figures/74-C-20-4.bmp\",\"fafasha\",\"Right\",\"39\",\"6\",\"11\",\"6B\",\"C1\",\"J\",\"91\"
\"\",\"\",\"approach-retreat\",\"95\",\"659861\",\"0.0-95.0\",\"\",\"\",\"3-3\",\"4812\",\"37\",\"1\",\"Training\",\"Stims/Figures/27-C-30-1.bmp\",\"fafava\",\"Left\",\"37\",\"6\",\"12\",\"6B\",\"C1\",\"J\",\"92\"
\"\",\"\",\"approach-retreat\",\"96\",\"666936\",\"0.0-96.0\",\"\",\"\",\"3-3\",\"5571\",\"37\",\"1\",\"Training\",\"Stims/Figures/84-C-20-2.bmp\",\"fasha:sha\",\"Left\",\"37\",\"6\",\"13\",\"6B\",\"C1\",\"J\",\"93\"
\"\",\"\",\"approach-retreat\",\"97\",\"672671\",\"0.0-97.0\",\"\",\"\",\"3-3\",\"4223\",\"39\",\"1\",\"Training\",\"Stims/Figures/74-J-10-4.bmp\",\"zasa:ha\",\"Left\",\"39\",\"6\",\"14\",\"6B\",\"C2\",\"J\",\"94\"
\"\",\"\",\"approach-retreat\",\"98\",\"678939\",\"0.0-98.0\",\"\",\"\",\"3-3\",\"4758\",\"37\",\"1\",\"Training\",\"Stims/Figures/44-C-30-3.bmp\",\"va:sha:va\",\"Left\",\"37\",\"6\",\"15\",\"6B\",\"C1\",\"J\",\"95\"
\"\",\"\",\"approach-retreat\",\"99\",\"684916\",\"0.0-99.0\",\"\",\"\",\"3-3\",\"4465\",\"38\",\"1\",\"Training\",\"Stims/Figures/85-J-0-2.bmp\",\"sasa:ha\",\"Down\",\"38\",\"6\",\"16\",\"6B\",\"C2\",\"J\",\"96\"
\"\",\"\",\"approach-retreat\",\"100\",\"690876\",\"0.0-100.0\",\"\",\"\",\"3-3\",\"4448\",\"38\",\"0\",\"Training\",\"Stims/Figures/44-C-30-3.bmp\",\"va:sha:va\",\"Down\",\"40\",\"7\",\"1\",\"6B\",\"C1\",\"J\",\"97\"
\"\",\"\",\"approach-retreat\",\"101\",\"696650\",\"0.0-101.0\",\"\",\"\",\"3-3\",\"4263\",\"40\",\"1\",\"Training\",\"Stims/Figures/27-C-30-1.bmp\",\"fafava\",\"Down\",\"40\",\"7\",\"2\",\"6B\",\"C1\",\"J\",\"98\"
\"\",\"\",\"approach-retreat\",\"102\",\"703006\",\"0.0-102.0\",\"\",\"\",\"3-3\",\"4845\",\"40\",\"1\",\"Training\",\"Stims/Figures/57-J-0-1.bmp\",\"sa:saha\",\"Up\",\"40\",\"7\",\"3\",\"6B\",\"C2\",\"J\",\"99\"
\"\",\"\",\"approach-retreat\",\"103\",\"709499\",\"0.0-103.0\",\"\",\"\",\"3-3\",\"4980\",\"37\",\"1\",\"Training\",\"Stims/Figures/84-J-0-2.bmp\",\"sasaza\",\"Right\",\"37\",\"7\",\"4\",\"6B\",\"C2\",\"J\",\"100\"
\"\",\"\",\"approach-retreat\",\"104\",\"719683\",\"0.0-104.0\",\"\",\"\",\"3-3\",\"8673\",\"40\",\"1\",\"Training\",\"Stims/Figures/85-C-20-2.bmp\",\"va:shasha\",\"Down\",\"40\",\"7\",\"5\",\"6B\",\"C1\",\"J\",\"101\"
\"\",\"\",\"approach-retreat\",\"105\",\"726250\",\"0.0-105.0\",\"\",\"\",\"3-3\",\"5063\",\"39\",\"1\",\"Training\",\"Stims/Figures/102-C-20-4.bmp\",\"vafava\",\"Right\",\"39\",\"7\",\"6\",\"6B\",\"C1\",\"J\",\"102\"
\"\",\"\",\"approach-retreat\",\"106\",\"732060\",\"0.0-106.0\",\"\",\"\",\"3-3\",\"4305\",\"37\",\"1\",\"Training\",\"Stims/Figures/57-C-30-1.bmp\",\"va:fasha\",\"Left\",\"37\",\"7\",\"7\",\"6B\",\"C1\",\"J\",\"103\"
\"\",\"\",\"approach-retreat\",\"107\",\"737397\",\"0.0-107.0\",\"\",\"\",\"3-3\",\"3825\",\"40\",\"1\",\"Training\",\"Stims/Figures/144-J-10-3.bmp\",\"za:haha\",\"Up\",\"40\",\"7\",\"8\",\"6B\",\"C2\",\"J\",\"104\"
\"\",\"\",\"approach-retreat\",\"108\",\"745096\",\"0.0-108.0\",\"\",\"\",\"3-3\",\"6189\",\"37\",\"0\",\"Training\",\"Stims/Figures/27-J-0-1.bmp\",\"sa:ha:ha\",\"Left\",\"39\",\"7\",\"9\",\"6B\",\"C2\",\"J\",\"105\"
\"\",\"\",\"approach-retreat\",\"109\",\"751805\",\"0.0-109.0\",\"\",\"\",\"3-3\",\"5196\",\"40\",\"1\",\"Training\",\"Stims/Figures/84-C-20-2.bmp\",\"fasha:sha\",\"Down\",\"40\",\"7\",\"10\",\"6B\",\"C1\",\"J\",\"106\"
\"\",\"\",\"approach-retreat\",\"110\",\"760277\",\"0.0-110.0\",\"\",\"\",\"3-3\",\"6958\",\"37\",\"0\",\"Training\",\"Stims/Figures/102-J-10-4.bmp\",\"zahaza\",\"Left\",\"39\",\"7\",\"11\",\"6B\",\"C2\",\"J\",\"107\"
\"\",\"\",\"approach-retreat\",\"111\",\"767689\",\"0.0-111.0\",\"\",\"\",\"3-3\",\"5901\",\"39\",\"1\",\"Training\",\"Stims/Figures/44-J-10-3.bmp\",\"za:sa:ha\",\"Left\",\"39\",\"7\",\"12\",\"6B\",\"C2\",\"J\",\"108\"
\"\",\"\",\"approach-retreat\",\"112\",\"773537\",\"0.0-112.0\",\"\",\"\",\"3-3\",\"4337\",\"38\",\"1\",\"Training\",\"Stims/Figures/74-C-20-4.bmp\",\"fafasha\",\"Up\",\"38\",\"7\",\"13\",\"6B\",\"C1\",\"J\",\"109\"
\"\",\"\",\"approach-retreat\",\"113\",\"780797\",\"0.0-113.0\",\"\",\"\",\"3-3\",\"5748\",\"40\",\"1\",\"Training\",\"Stims/Figures/85-J-0-2.bmp\",\"sasa:ha\",\"Up\",\"40\",\"7\",\"14\",\"6B\",\"C2\",\"J\",\"110\"
\"\",\"\",\"approach-retreat\",\"114\",\"786441\",\"0.0-114.0\",\"\",\"\",\"3-3\",\"4137\",\"37\",\"1\",\"Training\",\"Stims/Figures/74-J-10-4.bmp\",\"zasa:ha\",\"Right\",\"37\",\"7\",\"15\",\"6B\",\"C2\",\"J\",\"111\"
\"\",\"\",\"approach-retreat\",\"115\",\"793033\",\"0.0-115.0\",\"\",\"\",\"3-3\",\"5088\",\"39\",\"1\",\"Training\",\"Stims/Figures/144-C-30-3.bmp\",\"va:fa:sha\",\"Right\",\"39\",\"7\",\"16\",\"6B\",\"C1\",\"J\",\"112\"
\"\",\"\",\"approach-retreat\",\"116\",\"799190\",\"0.0-116.0\",\"\",\"\",\"3-3\",\"4646\",\"38\",\"1\",\"Training\",\"Stims/Figures/27-C-30-1.bmp\",\"fafava\",\"Up\",\"38\",\"8\",\"1\",\"6B\",\"C1\",\"J\",\"113\"
\"\",\"\",\"approach-retreat\",\"117\",\"805429\",\"0.0-117.0\",\"\",\"\",\"3-3\",\"4733\",\"39\",\"1\",\"Training\",\"Stims/Figures/44-J-10-3.bmp\",\"za:sa:ha\",\"Left\",\"39\",\"8\",\"2\",\"6B\",\"C2\",\"J\",\"114\"
\"\",\"\",\"approach-retreat\",\"118\",\"812388\",\"0.0-118.0\",\"\",\"\",\"3-3\",\"5447\",\"40\",\"1\",\"Training\",\"Stims/Figures/44-C-30-3.bmp\",\"va:sha:va\",\"Down\",\"40\",\"8\",\"3\",\"6B\",\"C1\",\"J\",\"115\"
\"\",\"\",\"approach-retreat\",\"119\",\"818517\",\"0.0-119.0\",\"\",\"\",\"3-3\",\"4617\",\"37\",\"1\",\"Training\",\"Stims/Figures/102-J-10-4.bmp\",\"zahaza\",\"Right\",\"37\",\"8\",\"4\",\"6B\",\"C2\",\"J\",\"116\"
\"\",\"\",\"approach-retreat\",\"120\",\"825833\",\"0.0-120.0\",\"\",\"\",\"3-3\",\"5806\",\"40\",\"1\",\"Training\",\"Stims/Figures/57-J-0-1.bmp\",\"sa:saha\",\"Up\",\"40\",\"8\",\"5\",\"6B\",\"C2\",\"J\",\"117\"
\"\",\"\",\"approach-retreat\",\"121\",\"832048\",\"0.0-121.0\",\"\",\"\",\"3-3\",\"4699\",\"40\",\"1\",\"Training\",\"Stims/Figures/102-C-20-4.bmp\",\"vafava\",\"Down\",\"40\",\"8\",\"6\",\"6B\",\"C1\",\"J\",\"118\"
\"\",\"\",\"approach-retreat\",\"122\",\"837988\",\"0.0-122.0\",\"\",\"\",\"3-3\",\"4428\",\"40\",\"1\",\"Training\",\"Stims/Figures/84-C-20-2.bmp\",\"fasha:sha\",\"Down\",\"40\",\"8\",\"7\",\"6B\",\"C1\",\"J\",\"119\"
\"\",\"\",\"approach-retreat\",\"123\",\"844206\",\"0.0-123.0\",\"\",\"\",\"3-3\",\"4711\",\"39\",\"1\",\"Training\",\"Stims/Figures/85-J-0-2.bmp\",\"sasa:ha\",\"Left\",\"39\",\"8\",\"8\",\"6B\",\"C2\",\"J\",\"120\"
\"\",\"\",\"approach-retreat\",\"124\",\"851143\",\"0.0-124.0\",\"\",\"\",\"3-3\",\"5433\",\"40\",\"1\",\"Training\",\"Stims/Figures/57-C-30-1.bmp\",\"va:fasha\",\"Down\",\"40\",\"8\",\"9\",\"6B\",\"C1\",\"J\",\"121\"
\"\",\"\",\"approach-retreat\",\"125\",\"857940\",\"0.0-125.0\",\"\",\"\",\"3-3\",\"5286\",\"39\",\"1\",\"Training\",\"Stims/Figures/144-J-10-3.bmp\",\"za:haha\",\"Left\",\"39\",\"8\",\"10\",\"6B\",\"C2\",\"J\",\"122\"
\"\",\"\",\"approach-retreat\",\"126\",\"864597\",\"0.0-126.0\",\"\",\"\",\"3-3\",\"5147\",\"39\",\"1\",\"Training\",\"Stims/Figures/85-C-20-2.bmp\",\"va:shasha\",\"Right\",\"39\",\"8\",\"11\",\"6B\",\"C1\",\"J\",\"123\"
\"\",\"\",\"approach-retreat\",\"127\",\"870975\",\"0.0-127.0\",\"\",\"\",\"3-3\",\"4867\",\"39\",\"1\",\"Training\",\"Stims/Figures/144-C-30-3.bmp\",\"va:fa:sha\",\"Right\",\"39\",\"8\",\"12\",\"6B\",\"C1\",\"J\",\"124\"
\"\",\"\",\"approach-retreat\",\"128\",\"878478\",\"0.0-128.0\",\"\",\"\",\"3-3\",\"5991\",\"37\",\"0\",\"Training\",\"Stims/Figures/27-J-0-1.bmp\",\"sa:ha:ha\",\"Left\",\"39\",\"8\",\"13\",\"6B\",\"C2\",\"J\",\"125\"
\"\",\"\",\"approach-retreat\",\"129\",\"885399\",\"0.0-129.0\",\"\",\"\",\"3-3\",\"5409\",\"37\",\"1\",\"Training\",\"Stims/Figures/74-J-10-4.bmp\",\"zasa:ha\",\"Right\",\"37\",\"8\",\"14\",\"6B\",\"C2\",\"J\",\"126\"
\"\",\"\",\"approach-retreat\",\"130\",\"891961\",\"0.0-130.0\",\"\",\"\",\"3-3\",\"5052\",\"40\",\"1\",\"Training\",\"Stims/Figures/84-J-0-2.bmp\",\"sasaza\",\"Up\",\"40\",\"8\",\"15\",\"6B\",\"C2\",\"J\",\"127\"
\"\",\"\",\"approach-retreat\",\"131\",\"898474\",\"0.0-131.0\",\"\",\"\",\"3-3\",\"5002\",\"38\",\"1\",\"Training\",\"Stims/Figures/74-C-20-4.bmp\",\"fafasha\",\"Up\",\"38\",\"8\",\"16\",\"6B\",\"C1\",\"J\",\"128\"
\"\",\"\",\"approach-retreat\",\"132\",\"904289\",\"0.0-132.0\",\"\",\"\",\"3-3\",\"4308\",\"40\",\"1\",\"Training\",\"Stims/Figures/57-C-30-1.bmp\",\"va:fasha\",\"Down\",\"40\",\"9\",\"1\",\"6B\",\"C1\",\"J\",\"129\"
\"\",\"\",\"approach-retreat\",\"133\",\"910847\",\"0.0-133.0\",\"\",\"\",\"3-3\",\"5051\",\"40\",\"0\",\"Training\",\"Stims/Figures/102-C-20-4.bmp\",\"vafava\",\"Up\",\"38\",\"9\",\"2\",\"6B\",\"C1\",\"J\",\"130\"
\"\",\"\",\"approach-retreat\",\"134\",\"916651\",\"0.0-134.0\",\"\",\"\",\"3-3\",\"4292\",\"39\",\"1\",\"Training\",\"Stims/Figures/57-J-0-1.bmp\",\"sa:saha\",\"Left\",\"39\",\"9\",\"3\",\"6B\",\"C2\",\"J\",\"131\"
\"\",\"\",\"approach-retreat\",\"135\",\"922984\",\"0.0-135.0\",\"\",\"\",\"3-3\",\"4822\",\"37\",\"1\",\"Training\",\"Stims/Figures/84-J-0-2.bmp\",\"sasaza\",\"Right\",\"37\",\"9\",\"4\",\"6B\",\"C2\",\"J\",\"132\"
\"\",\"\",\"approach-retreat\",\"136\",\"928741\",\"0.0-136.0\",\"\",\"\",\"3-3\",\"4247\",\"38\",\"1\",\"Training\",\"Stims/Figures/27-C-30-1.bmp\",\"fafava\",\"Up\",\"38\",\"9\",\"5\",\"6B\",\"C1\",\"J\",\"133\"
\"\",\"\",\"approach-retreat\",\"137\",\"935322\",\"0.0-137.0\",\"\",\"\",\"3-3\",\"5070\",\"38\",\"1\",\"Training\",\"Stims/Figures/85-J-0-2.bmp\",\"sasa:ha\",\"Down\",\"38\",\"9\",\"6\",\"6B\",\"C2\",\"J\",\"134\"
\"\",\"\",\"approach-retreat\",\"138\",\"941811\",\"0.0-138.0\",\"\",\"\",\"3-3\",\"4978\",\"40\",\"1\",\"Training\",\"Stims/Figures/44-J-10-3.bmp\",\"za:sa:ha\",\"Up\",\"40\",\"9\",\"7\",\"6B\",\"C2\",\"J\",\"135\"
\"\",\"\",\"approach-retreat\",\"139\",\"947902\",\"0.0-139.0\",\"\",\"\",\"3-3\",\"4580\",\"37\",\"1\",\"Training\",\"Stims/Figures/144-J-10-3.bmp\",\"za:haha\",\"Right\",\"37\",\"9\",\"8\",\"6B\",\"C2\",\"J\",\"136\"
\"\",\"\",\"approach-retreat\",\"140\",\"954352\",\"0.0-140.0\",\"\",\"\",\"3-3\",\"4939\",\"37\",\"1\",\"Training\",\"Stims/Figures/74-C-20-4.bmp\",\"fafasha\",\"Left\",\"37\",\"9\",\"9\",\"6B\",\"C1\",\"J\",\"137\"
\"\",\"\",\"approach-retreat\",\"141\",\"960254\",\"0.0-141.0\",\"\",\"\",\"3-3\",\"4394\",\"40\",\"1\",\"Training\",\"Stims/Figures/44-C-30-3.bmp\",\"va:sha:va\",\"Down\",\"40\",\"9\",\"10\",\"6B\",\"C1\",\"J\",\"138\"
\"\",\"\",\"approach-retreat\",\"142\",\"967148\",\"0.0-142.0\",\"\",\"\",\"3-3\",\"5388\",\"38\",\"1\",\"Training\",\"Stims/Figures/144-C-30-3.bmp\",\"va:fa:sha\",\"Up\",\"38\",\"9\",\"11\",\"6B\",\"C1\",\"J\",\"139\"
\"\",\"\",\"approach-retreat\",\"143\",\"975116\",\"0.0-143.0\",\"\",\"\",\"3-3\",\"6457\",\"38\",\"1\",\"Training\",\"Stims/Figures/27-J-0-1.bmp\",\"sa:ha:ha\",\"Down\",\"38\",\"9\",\"12\",\"6B\",\"C2\",\"J\",\"140\"
\"\",\"\",\"approach-retreat\",\"144\",\"981442\",\"0.0-144.0\",\"\",\"\",\"3-3\",\"4814\",\"37\",\"1\",\"Training\",\"Stims/Figures/102-J-10-4.bmp\",\"zahaza\",\"Right\",\"37\",\"9\",\"13\",\"6B\",\"C2\",\"J\",\"141\"
\"\",\"\",\"approach-retreat\",\"145\",\"990354\",\"0.0-145.0\",\"\",\"\",\"3-3\",\"7401\",\"39\",\"1\",\"Training\",\"Stims/Figures/74-J-10-4.bmp\",\"zasa:ha\",\"Left\",\"39\",\"9\",\"14\",\"6B\",\"C2\",\"J\",\"142\"
\"\",\"\",\"approach-retreat\",\"146\",\"998212\",\"0.0-146.0\",\"\",\"\",\"3-3\",\"6346\",\"37\",\"1\",\"Training\",\"Stims/Figures/84-C-20-2.bmp\",\"fasha:sha\",\"Left\",\"37\",\"9\",\"15\",\"6B\",\"C1\",\"J\",\"143\"
\"\",\"\",\"approach-retreat\",\"147\",\"1003808\",\"0.0-147.0\",\"\",\"\",\"3-3\",\"4086\",\"39\",\"1\",\"Training\",\"Stims/Figures/85-C-20-2.bmp\",\"va:shasha\",\"Right\",\"39\",\"9\",\"16\",\"6B\",\"C1\",\"J\",\"144\"
\"14348\",\"\",\"instructions\",\"148\",\"1018157\",\"0.0-148.0\",\"[{\"\"page_index\"\":0,\"\"viewing_time\"\":14348}]\",\"\",\"\",\"\",\"\",\"\",\"\",\"\",\"\",\"\",\"\",\"\",\"\",\"\",\"\",\"\",\"\"
\"\",\"\",\"approach-retreat\",\"149\",\"1023289\",\"0.0-149.0\",\"\",\"\",\"3-3\",\"3629\",\"39\",\"1\",\"Testing\",\"Stims/Figures/111-C-30-3.bmp\",\"vafa:va\",\"Right\",\"39\",\"1\",\"1\",\"6B\",\"C1\",\"J\",\"1\"
\"\",\"\",\"approach-retreat\",\"150\",\"1029542\",\"0.0-150.0\",\"\",\"\",\"3-3\",\"4749\",\"38\",\"0\",\"Testing\",\"Stims/Figures/102-C-20-4.bmp\",\"vafava\",\"Down\",\"40\",\"1\",\"2\",\"6B\",\"C1\",\"J\",\"2\"
\"\",\"\",\"approach-retreat\",\"151\",\"1035084\",\"0.0-151.0\",\"\",\"\",\"3-3\",\"4036\",\"37\",\"0\",\"Testing\",\"Stims/Figures/84-C-20-2.bmp\",\"fasha:sha\",\"Right\",\"39\",\"1\",\"3\",\"6B\",\"C1\",\"J\",\"3\"
\"\",\"\",\"approach-retreat\",\"152\",\"1040566\",\"0.0-152.0\",\"\",\"\",\"3-3\",\"3973\",\"38\",\"1\",\"Testing\",\"Stims/Figures/85-J-0-2.bmp\",\"sasa:ha\",\"Down\",\"38\",\"1\",\"4\",\"6B\",\"C2\",\"J\",\"4\"
\"\",\"\",\"approach-retreat\",\"153\",\"1046666\",\"0.0-153.0\",\"\",\"\",\"3-3\",\"4592\",\"38\",\"0\",\"Testing\",\"Stims/Figures/118-C-20-2.bmp\",\"fa:sha:sha\",\"Down\",\"40\",\"1\",\"5\",\"6B\",\"C1\",\"J\",\"5\"
\"\",\"\",\"approach-retreat\",\"154\",\"1052467\",\"0.0-154.0\",\"\",\"\",\"3-3\",\"4293\",\"40\",\"0\",\"Testing\",\"Stims/Figures/87-C-20-4.bmp\",\"fa:fa:sha\",\"Up\",\"38\",\"1\",\"6\",\"6B\",\"C1\",\"J\",\"6\"
\"\",\"\",\"approach-retreat\",\"155\",\"1058359\",\"0.0-155.0\",\"\",\"\",\"3-3\",\"4380\",\"39\",\"1\",\"Testing\",\"Stims/Figures/44-J-10-3.bmp\",\"za:sa:ha\",\"Left\",\"39\",\"1\",\"7\",\"6B\",\"C2\",\"J\",\"7\"
\"\",\"\",\"approach-retreat\",\"156\",\"1064015\",\"0.0-156.0\",\"\",\"\",\"3-3\",\"4147\",\"39\",\"1\",\"Testing\",\"Stims/Figures/87-J-10-4.bmp\",\"saha:ha\",\"Left\",\"39\",\"1\",\"8\",\"6B\",\"C2\",\"J\",\"8\"
\"\",\"\",\"approach-retreat\",\"157\",\"1069915\",\"0.0-157.0\",\"\",\"\",\"3-3\",\"4390\",\"38\",\"0\",\"Testing\",\"Stims/Figures/74-C-20-4.bmp\",\"fafasha\",\"Down\",\"40\",\"1\",\"9\",\"6B\",\"C1\",\"J\",\"9\"
\"\",\"\",\"approach-retreat\",\"158\",\"1075699\",\"0.0-158.0\",\"\",\"\",\"3-3\",\"4276\",\"39\",\"1\",\"Testing\",\"Stims/Figures/71-J-0-1.bmp\",\"zahaha\",\"Left\",\"39\",\"1\",\"10\",\"6B\",\"C2\",\"J\",\"10\"
\"\",\"\",\"approach-retreat\",\"159\",\"1081396\",\"0.0-159.0\",\"\",\"\",\"3-3\",\"4192\",\"40\",\"1\",\"Testing\",\"Stims/Figures/74-J-10-4.bmp\",\"zasa:ha\",\"Up\",\"40\",\"1\",\"11\",\"6B\",\"C2\",\"J\",\"11\"
\"\",\"\",\"approach-retreat\",\"160\",\"1087223\",\"0.0-160.0\",\"\",\"\",\"3-3\",\"4322\",\"39\",\"0\",\"Testing\",\"Stims/Figures/118-J-0-2.bmp\",\"zasaha\",\"Right\",\"37\",\"1\",\"12\",\"6B\",\"C2\",\"J\",\"12\"
\"\",\"\",\"approach-retreat\",\"161\",\"1092836\",\"0.0-161.0\",\"\",\"\",\"3-3\",\"4104\",\"39\",\"0\",\"Testing\",\"Stims/Figures/44-C-30-3.bmp\",\"va:sha:va\",\"Left\",\"37\",\"1\",\"13\",\"6B\",\"C1\",\"J\",\"13\"
\"\",\"\",\"approach-retreat\",\"162\",\"1098669\",\"0.0-162.0\",\"\",\"\",\"3-3\",\"4323\",\"37\",\"1\",\"Testing\",\"Stims/Figures/27-J-0-1.bmp\",\"sa:ha:ha\",\"Right\",\"37\",\"1\",\"14\",\"6B\",\"C2\",\"J\",\"14\"
\"\",\"\",\"approach-retreat\",\"163\",\"1104421\",\"0.0-163.0\",\"\",\"\",\"3-3\",\"4244\",\"39\",\"0\",\"Testing\",\"Stims/Figures/84-J-0-2.bmp\",\"sasaza\",\"Right\",\"37\",\"1\",\"15\",\"6B\",\"C2\",\"J\",\"15\"
\"\",\"\",\"approach-retreat\",\"164\",\"1110172\",\"0.0-164.0\",\"\",\"\",\"3-3\",\"4241\",\"39\",\"0\",\"Testing\",\"Stims/Figures/57-C-30-1.bmp\",\"va:fasha\",\"Left\",\"37\",\"1\",\"16\",\"6B\",\"C1\",\"J\",\"16\"
\"\",\"\",\"approach-retreat\",\"165\",\"1116090\",\"0.0-165.0\",\"\",\"\",\"3-3\",\"4406\",\"40\",\"1\",\"Testing\",\"Stims/Figures/111-J-10-3.bmp\",\"sasaha\",\"Up\",\"40\",\"1\",\"17\",\"6B\",\"C2\",\"J\",\"17\"
\"\",\"\",\"approach-retreat\",\"166\",\"1121974\",\"0.0-166.0\",\"\",\"\",\"3-3\",\"4374\",\"40\",\"0\",\"Testing\",\"Stims/Figures/144-C-30-3.bmp\",\"va:fa:sha\",\"Up\",\"38\",\"1\",\"18\",\"6B\",\"C1\",\"J\",\"18\"
\"\",\"\",\"approach-retreat\",\"167\",\"1127619\",\"0.0-167.0\",\"\",\"\",\"3-3\",\"4127\",\"40\",\"0\",\"Testing\",\"Stims/Figures/71-C-30-1.bmp\",\"fa:shava\",\"Up\",\"38\",\"1\",\"19\",\"6B\",\"C1\",\"J\",\"19\"
\"\",\"\",\"approach-retreat\",\"168\",\"1133236\",\"0.0-168.0\",\"\",\"\",\"3-3\",\"4108\",\"40\",\"1\",\"Testing\",\"Stims/Figures/102-J-10-4.bmp\",\"zahaza\",\"Up\",\"40\",\"1\",\"20\",\"6B\",\"C2\",\"J\",\"20\"
\"\",\"\",\"approach-retreat\",\"169\",\"1139760\",\"0.0-169.0\",\"\",\"\",\"3-3\",\"5015\",\"37\",\"1\",\"Testing\",\"Stims/Figures/144-J-10-3.bmp\",\"za:haha\",\"Right\",\"37\",\"1\",\"21\",\"6B\",\"C2\",\"J\",\"21\"
\"\",\"\",\"approach-retreat\",\"170\",\"1145638\",\"0.0-170.0\",\"\",\"\",\"3-3\",\"4373\",\"39\",\"0\",\"Testing\",\"Stims/Figures/85-C-20-2.bmp\",\"va:shasha\",\"Left\",\"37\",\"1\",\"22\",\"6B\",\"C1\",\"J\",\"22\"
\"\",\"\",\"approach-retreat\",\"171\",\"1153465\",\"0.0-171.0\",\"\",\"\",\"3-3\",\"6319\",\"38\",\"1\",\"Testing\",\"Stims/Figures/57-J-0-1.bmp\",\"sa:saha\",\"Down\",\"38\",\"1\",\"23\",\"6B\",\"C2\",\"J\",\"23\"
\"\",\"\",\"approach-retreat\",\"172\",\"1159020\",\"0.0-172.0\",\"\",\"\",\"3-3\",\"4046\",\"38\",\"0\",\"Testing\",\"Stims/Figures/27-C-30-1.bmp\",\"fafava\",\"Down\",\"40\",\"1\",\"24\",\"6B\",\"C1\",\"J\",\"24\"
\"\",\"\",\"approach-retreat\",\"173\",\"1167343\",\"0.0-173.0\",\"\",\"\",\"3-3\",\"6816\",\"37\",\"0\",\"Testing\",\"Stims/Figures/57-C-30-1.bmp\",\"va:fasha\",\"Right\",\"39\",\"2\",\"1\",\"6B\",\"C1\",\"J\",\"25\"
\"\",\"\",\"approach-retreat\",\"174\",\"1174099\",\"0.0-174.0\",\"\",\"\",\"3-3\",\"5247\",\"38\",\"0\",\"Testing\",\"Stims/Figures/74-C-20-4.bmp\",\"fafasha\",\"Down\",\"40\",\"2\",\"2\",\"6B\",\"C1\",\"J\",\"26\"
\"\",\"\",\"approach-retreat\",\"175\",\"1180053\",\"0.0-175.0\",\"\",\"\",\"3-3\",\"4443\",\"37\",\"1\",\"Testing\",\"Stims/Figures/102-J-10-4.bmp\",\"zahaza\",\"Right\",\"37\",\"2\",\"3\",\"6B\",\"C2\",\"J\",\"27\"
\"\",\"\",\"approach-retreat\",\"176\",\"1185864\",\"0.0-176.0\",\"\",\"\",\"3-3\",\"4301\",\"38\",\"0\",\"Testing\",\"Stims/Figures/71-J-0-1.bmp\",\"zahaha\",\"Up\",\"40\",\"2\",\"4\",\"6B\",\"C2\",\"J\",\"28\"
\"\",\"\",\"approach-retreat\",\"177\",\"1192096\",\"0.0-177.0\",\"\",\"\",\"3-3\",\"4723\",\"39\",\"0\",\"Testing\",\"Stims/Figures/87-C-20-4.bmp\",\"fa:fa:sha\",\"Left\",\"37\",\"2\",\"5\",\"6B\",\"C1\",\"J\",\"29\"
\"\",\"\",\"approach-retreat\",\"178\",\"1198327\",\"0.0-178.0\",\"\",\"\",\"3-3\",\"4722\",\"38\",\"0\",\"Testing\",\"Stims/Figures/111-J-10-3.bmp\",\"sasaha\",\"Up\",\"40\",\"2\",\"6\",\"6B\",\"C2\",\"J\",\"30\"
\"\",\"\",\"approach-retreat\",\"179\",\"1204309\",\"0.0-179.0\",\"\",\"\",\"3-3\",\"4477\",\"39\",\"1\",\"Testing\",\"Stims/Figures/144-J-10-3.bmp\",\"za:haha\",\"Left\",\"39\",\"2\",\"7\",\"6B\",\"C2\",\"J\",\"31\"
\"\",\"\",\"approach-retreat\",\"180\",\"1211717\",\"0.0-180.0\",\"\",\"\",\"3-3\",\"5901\",\"37\",\"0\",\"Testing\",\"Stims/Figures/111-C-30-3.bmp\",\"vafa:va\",\"Right\",\"39\",\"2\",\"8\",\"6B\",\"C1\",\"J\",\"32\"
\"\",\"\",\"approach-retreat\",\"181\",\"1217805\",\"0.0-181.0\",\"\",\"\",\"3-3\",\"4579\",\"37\",\"0\",\"Testing\",\"Stims/Figures/57-J-0-1.bmp\",\"sa:saha\",\"Left\",\"39\",\"2\",\"9\",\"6B\",\"C2\",\"J\",\"33\"
\"\",\"\",\"approach-retreat\",\"182\",\"1223782\",\"0.0-182.0\",\"\",\"\",\"3-3\",\"4468\",\"40\",\"0\",\"Testing\",\"Stims/Figures/27-J-0-1.bmp\",\"sa:ha:ha\",\"Down\",\"38\",\"2\",\"10\",\"6B\",\"C2\",\"J\",\"34\"
\"\",\"\",\"approach-retreat\",\"183\",\"1236906\",\"0.0-183.0\",\"\",\"\",\"3-3\",\"11614\",\"40\",\"0\",\"Testing\",\"Stims/Figures/102-C-20-4.bmp\",\"vafava\",\"Up\",\"38\",\"2\",\"11\",\"6B\",\"C1\",\"J\",\"35\"
\"\",\"\",\"approach-retreat\",\"184\",\"1243100\",\"0.0-184.0\",\"\",\"\",\"3-3\",\"4686\",\"40\",\"1\",\"Testing\",\"Stims/Figures/144-C-30-3.bmp\",\"va:fa:sha\",\"Down\",\"40\",\"2\",\"12\",\"6B\",\"C1\",\"J\",\"36\"
\"\",\"\",\"approach-retreat\",\"185\",\"1248857\",\"0.0-185.0\",\"\",\"\",\"3-3\",\"4248\",\"37\",\"1\",\"Testing\",\"Stims/Figures/87-J-10-4.bmp\",\"saha:ha\",\"Right\",\"37\",\"2\",\"13\",\"6B\",\"C2\",\"J\",\"37\"
\"\",\"\",\"approach-retreat\",\"186\",\"1255544\",\"0.0-186.0\",\"\",\"\",\"3-3\",\"5178\",\"40\",\"1\",\"Testing\",\"Stims/Figures/44-J-10-3.bmp\",\"za:sa:ha\",\"Up\",\"40\",\"2\",\"14\",\"6B\",\"C2\",\"J\",\"38\"
\"\",\"\",\"approach-retreat\",\"187\",\"1263375\",\"0.0-187.0\",\"\",\"\",\"3-3\",\"6326\",\"40\",\"0\",\"Testing\",\"Stims/Figures/74-J-10-4.bmp\",\"zasa:ha\",\"Down\",\"38\",\"2\",\"15\",\"6B\",\"C2\",\"J\",\"39\"
\"\",\"\",\"approach-retreat\",\"188\",\"1270352\",\"0.0-188.0\",\"\",\"\",\"3-3\",\"5472\",\"40\",\"1\",\"Testing\",\"Stims/Figures/85-C-20-2.bmp\",\"va:shasha\",\"Down\",\"40\",\"2\",\"16\",\"6B\",\"C1\",\"J\",\"40\"
\"\",\"\",\"approach-retreat\",\"189\",\"1277566\",\"0.0-189.0\",\"\",\"\",\"3-3\",\"5705\",\"38\",\"1\",\"Testing\",\"Stims/Figures/84-C-20-2.bmp\",\"fasha:sha\",\"Up\",\"38\",\"2\",\"17\",\"6B\",\"C1\",\"J\",\"41\"
\"\",\"\",\"approach-retreat\",\"190\",\"1283179\",\"0.0-190.0\",\"\",\"\",\"3-3\",\"4104\",\"40\",\"1\",\"Testing\",\"Stims/Figures/27-C-30-1.bmp\",\"fafava\",\"Down\",\"40\",\"2\",\"18\",\"6B\",\"C1\",\"J\",\"42\"
\"\",\"\",\"approach-retreat\",\"191\",\"1289008\",\"0.0-191.0\",\"\",\"\",\"3-3\",\"4319\",\"39\",\"0\",\"Testing\",\"Stims/Figures/44-C-30-3.bmp\",\"va:sha:va\",\"Left\",\"37\",\"2\",\"19\",\"6B\",\"C1\",\"J\",\"43\"
\"\",\"\",\"approach-retreat\",\"192\",\"1294697\",\"0.0-192.0\",\"\",\"\",\"3-3\",\"4180\",\"37\",\"1\",\"Testing\",\"Stims/Figures/84-J-0-2.bmp\",\"sasaza\",\"Right\",\"37\",\"2\",\"20\",\"6B\",\"C2\",\"J\",\"44\"
\"\",\"\",\"approach-retreat\",\"193\",\"1300886\",\"0.0-193.0\",\"\",\"\",\"3-3\",\"4679\",\"40\",\"1\",\"Testing\",\"Stims/Figures/85-J-0-2.bmp\",\"sasa:ha\",\"Up\",\"40\",\"2\",\"21\",\"6B\",\"C2\",\"J\",\"45\"
\"\",\"\",\"approach-retreat\",\"194\",\"1310164\",\"0.0-194.0\",\"\",\"\",\"3-3\",\"7769\",\"39\",\"0\",\"Testing\",\"Stims/Figures/71-C-30-1.bmp\",\"fa:shava\",\"Left\",\"37\",\"2\",\"22\",\"6B\",\"C1\",\"J\",\"46\"
\"\",\"\",\"approach-retreat\",\"195\",\"1316927\",\"0.0-195.0\",\"\",\"\",\"3-3\",\"5255\",\"39\",\"0\",\"Testing\",\"Stims/Figures/118-C-20-2.bmp\",\"fa:sha:sha\",\"Left\",\"37\",\"2\",\"23\",\"6B\",\"C1\",\"J\",\"47\"
\"\",\"\",\"approach-retreat\",\"196\",\"1324542\",\"0.0-196.0\",\"\",\"\",\"3-3\",\"6109\",\"39\",\"0\",\"Testing\",\"Stims/Figures/118-J-0-2.bmp\",\"zasaha\",\"Right\",\"37\",\"2\",\"24\",\"6B\",\"C2\",\"J\",\"48\"
\"\",\"\",\"approach-retreat\",\"197\",\"1330901\",\"0.0-197.0\",\"\",\"\",\"3-3\",\"4856\",\"37\",\"0\",\"Testing\",\"Stims/Figures/84-C-20-2.bmp\",\"fasha:sha\",\"Right\",\"39\",\"3\",\"1\",\"6B\",\"C1\",\"J\",\"49\"
\"\",\"\",\"approach-retreat\",\"198\",\"1337995\",\"0.0-198.0\",\"\",\"\",\"3-3\",\"5582\",\"38\",\"1\",\"Testing\",\"Stims/Figures/111-C-30-3.bmp\",\"vafa:va\",\"Up\",\"38\",\"3\",\"2\",\"6B\",\"C1\",\"J\",\"50\"
\"\",\"\",\"approach-retreat\",\"199\",\"1344479\",\"0.0-199.0\",\"\",\"\",\"3-3\",\"4974\",\"40\",\"1\",\"Testing\",\"Stims/Figures/57-C-30-1.bmp\",\"va:fasha\",\"Down\",\"40\",\"3\",\"3\",\"6B\",\"C1\",\"J\",\"51\"
\"\",\"\",\"approach-retreat\",\"200\",\"1350258\",\"0.0-200.0\",\"\",\"\",\"3-3\",\"4269\",\"37\",\"1\",\"Testing\",\"Stims/Figures/87-J-10-4.bmp\",\"saha:ha\",\"Right\",\"37\",\"3\",\"4\",\"6B\",\"C2\",\"J\",\"52\"
\"\",\"\",\"approach-retreat\",\"201\",\"1356525\",\"0.0-201.0\",\"\",\"\",\"3-3\",\"4757\",\"38\",\"1\",\"Testing\",\"Stims/Figures/44-J-10-3.bmp\",\"za:sa:ha\",\"Down\",\"38\",\"3\",\"5\",\"6B\",\"C2\",\"J\",\"53\"
\"\",\"\",\"approach-retreat\",\"202\",\"1362404\",\"0.0-202.0\",\"\",\"\",\"3-3\",\"4371\",\"37\",\"0\",\"Testing\",\"Stims/Figures/111-J-10-3.bmp\",\"sasaha\",\"Left\",\"39\",\"3\",\"6\",\"6B\",\"C2\",\"J\",\"54\"
\"\",\"\",\"approach-retreat\",\"203\",\"1369492\",\"0.0-203.0\",\"\",\"\",\"3-3\",\"5578\",\"40\",\"1\",\"Testing\",\"Stims/Figures/144-C-30-3.bmp\",\"va:fa:sha\",\"Down\",\"40\",\"3\",\"7\",\"6B\",\"C1\",\"J\",\"55\"
\"\",\"\",\"approach-retreat\",\"204\",\"1376580\",\"0.0-204.0\",\"\",\"\",\"3-3\",\"5578\",\"37\",\"0\",\"Testing\",\"Stims/Figures/27-C-30-1.bmp\",\"fafava\",\"Right\",\"39\",\"3\",\"8\",\"6B\",\"C1\",\"J\",\"56\"
\"\",\"\",\"approach-retreat\",\"205\",\"1382573\",\"0.0-205.0\",\"\",\"\",\"3-3\",\"4488\",\"37\",\"1\",\"Testing\",\"Stims/Figures/118-J-0-2.bmp\",\"zasaha\",\"Right\",\"37\",\"3\",\"9\",\"6B\",\"C2\",\"J\",\"57\"
\"\",\"\",\"approach-retreat\",\"206\",\"1388216\",\"0.0-206.0\",\"\",\"\",\"3-3\",\"4139\",\"39\",\"1\",\"Testing\",\"Stims/Figures/57-J-0-1.bmp\",\"sa:saha\",\"Left\",\"39\",\"3\",\"10\",\"6B\",\"C2\",\"J\",\"58\"
\"\",\"\",\"approach-retreat\",\"207\",\"1394027\",\"0.0-207.0\",\"\",\"\",\"3-3\",\"4300\",\"38\",\"0\",\"Testing\",\"Stims/Figures/74-C-20-4.bmp\",\"fafasha\",\"Down\",\"40\",\"3\",\"11\",\"6B\",\"C1\",\"J\",\"59\"
\"\",\"\",\"approach-retreat\",\"208\",\"1399844\",\"0.0-208.0\",\"\",\"\",\"3-3\",\"4308\",\"40\",\"0\",\"Testing\",\"Stims/Figures/87-C-20-4.bmp\",\"fa:fa:sha\",\"Up\",\"38\",\"3\",\"12\",\"6B\",\"C1\",\"J\",\"60\"
\"\",\"\",\"approach-retreat\",\"209\",\"1406276\",\"0.0-209.0\",\"\",\"\",\"3-3\",\"4922\",\"38\",\"1\",\"Testing\",\"Stims/Figures/85-J-0-2.bmp\",\"sasa:ha\",\"Down\",\"38\",\"3\",\"13\",\"6B\",\"C2\",\"J\",\"61\"
\"\",\"\",\"approach-retreat\",\"210\",\"1412116\",\"0.0-210.0\",\"\",\"\",\"3-3\",\"4331\",\"39\",\"1\",\"Testing\",\"Stims/Figures/144-J-10-3.bmp\",\"za:haha\",\"Left\",\"39\",\"3\",\"14\",\"6B\",\"C2\",\"J\",\"62\"
\"\",\"\",\"approach-retreat\",\"211\",\"1418358\",\"0.0-211.0\",\"\",\"\",\"3-3\",\"4733\",\"39\",\"0\",\"Testing\",\"Stims/Figures/27-J-0-1.bmp\",\"sa:ha:ha\",\"Right\",\"37\",\"3\",\"15\",\"6B\",\"C2\",\"J\",\"63\"
\"\",\"\",\"approach-retreat\",\"212\",\"1428325\",\"0.0-212.0\",\"\",\"\",\"3-3\",\"8456\",\"39\",\"1\",\"Testing\",\"Stims/Figures/71-J-0-1.bmp\",\"zahaha\",\"Left\",\"39\",\"3\",\"16\",\"6B\",\"C2\",\"J\",\"64\"
\"\",\"\",\"approach-retreat\",\"213\",\"1435831\",\"0.0-213.0\",\"\",\"\",\"3-3\",\"5996\",\"40\",\"1\",\"Testing\",\"Stims/Figures/102-J-10-4.bmp\",\"zahaza\",\"Up\",\"40\",\"3\",\"17\",\"6B\",\"C2\",\"J\",\"65\"
\"\",\"\",\"approach-retreat\",\"214\",\"1443447\",\"0.0-214.0\",\"\",\"\",\"3-3\",\"6111\",\"37\",\"0\",\"Testing\",\"Stims/Figures/102-C-20-4.bmp\",\"vafava\",\"Right\",\"39\",\"3\",\"18\",\"6B\",\"C1\",\"J\",\"66\"
\"\",\"\",\"approach-retreat\",\"215\",\"1449308\",\"0.0-215.0\",\"\",\"\",\"3-3\",\"4356\",\"40\",\"0\",\"Testing\",\"Stims/Figures/71-C-30-1.bmp\",\"fa:shava\",\"Up\",\"38\",\"3\",\"19\",\"6B\",\"C1\",\"J\",\"67\"
\"\",\"\",\"approach-retreat\",\"216\",\"1455675\",\"0.0-216.0\",\"\",\"\",\"3-3\",\"4859\",\"39\",\"1\",\"Testing\",\"Stims/Figures/84-J-0-2.bmp\",\"sasaza\",\"Left\",\"39\",\"3\",\"20\",\"6B\",\"C2\",\"J\",\"68\"
\"\",\"\",\"approach-retreat\",\"217\",\"1465386\",\"0.0-217.0\",\"\",\"\",\"3-3\",\"8202\",\"40\",\"0\",\"Testing\",\"Stims/Figures/85-C-20-2.bmp\",\"va:shasha\",\"Up\",\"38\",\"3\",\"21\",\"6B\",\"C1\",\"J\",\"69\"
\"\",\"\",\"approach-retreat\",\"218\",\"1471065\",\"0.0-218.0\",\"\",\"\",\"3-3\",\"4174\",\"39\",\"0\",\"Testing\",\"Stims/Figures/118-C-20-2.bmp\",\"fa:sha:sha\",\"Left\",\"37\",\"3\",\"22\",\"6B\",\"C1\",\"J\",\"70\"
\"\",\"\",\"approach-retreat\",\"219\",\"1476864\",\"0.0-219.0\",\"\",\"\",\"3-3\",\"4290\",\"40\",\"0\",\"Testing\",\"Stims/Figures/44-C-30-3.bmp\",\"va:sha:va\",\"Up\",\"38\",\"3\",\"23\",\"6B\",\"C1\",\"J\",\"71\"
\"\",\"\",\"approach-retreat\",\"220\",\"1482712\",\"0.0-220.0\",\"\",\"\",\"3-3\",\"4337\",\"38\",\"1\",\"Testing\",\"Stims/Figures/74-J-10-4.bmp\",\"zasa:ha\",\"Down\",\"38\",\"3\",\"24\",\"6B\",\"C2\",\"J\",\"72\"
\"\",\"\",\"approach-retreat\",\"221\",\"1488872\",\"0.0-221.0\",\"\",\"\",\"3-3\",\"4650\",\"37\",\"1\",\"Testing\",\"Stims/Figures/144-J-10-3.bmp\",\"za:haha\",\"Right\",\"37\",\"4\",\"1\",\"6B\",\"C2\",\"J\",\"73\"
\"\",\"\",\"approach-retreat\",\"222\",\"1502950\",\"0.0-222.0\",\"\",\"\",\"3-3\",\"12569\",\"37\",\"0\",\"Testing\",\"Stims/Figures/57-C-30-1.bmp\",\"va:fasha\",\"Right\",\"39\",\"4\",\"2\",\"6B\",\"C1\",\"J\",\"74\"
\"\",\"\",\"approach-retreat\",\"223\",\"1508819\",\"0.0-223.0\",\"\",\"\",\"3-3\",\"4365\",\"39\",\"1\",\"Testing\",\"Stims/Figures/102-J-10-4.bmp\",\"zahaza\",\"Left\",\"39\",\"4\",\"3\",\"6B\",\"C2\",\"J\",\"75\"
\"\",\"\",\"approach-retreat\",\"224\",\"1514684\",\"0.0-224.0\",\"\",\"\",\"3-3\",\"4356\",\"40\",\"0\",\"Testing\",\"Stims/Figures/71-C-30-1.bmp\",\"fa:shava\",\"Up\",\"38\",\"4\",\"4\",\"6B\",\"C1\",\"J\",\"76\"
\"\",\"\",\"approach-retreat\",\"225\",\"1520387\",\"0.0-225.0\",\"\",\"\",\"3-3\",\"4193\",\"37\",\"1\",\"Testing\",\"Stims/Figures/84-J-0-2.bmp\",\"sasaza\",\"Right\",\"37\",\"4\",\"5\",\"6B\",\"C2\",\"J\",\"77\"
\"\",\"\",\"approach-retreat\",\"226\",\"1526286\",\"0.0-226.0\",\"\",\"\",\"3-3\",\"4389\",\"37\",\"0\",\"Testing\",\"Stims/Figures/118-C-20-2.bmp\",\"fa:sha:sha\",\"Right\",\"39\",\"4\",\"6\",\"6B\",\"C1\",\"J\",\"78\"
\"\",\"\",\"approach-retreat\",\"227\",\"1532533\",\"0.0-227.0\",\"\",\"\",\"3-3\",\"4738\",\"38\",\"1\",\"Testing\",\"Stims/Figures/84-C-20-2.bmp\",\"fasha:sha\",\"Up\",\"38\",\"4\",\"7\",\"6B\",\"C1\",\"J\",\"79\"
\"\",\"\",\"approach-retreat\",\"228\",\"1538767\",\"0.0-228.0\",\"\",\"\",\"3-3\",\"4725\",\"40\",\"0\",\"Testing\",\"Stims/Figures/111-C-30-3.bmp\",\"vafa:va\",\"Up\",\"38\",\"4\",\"8\",\"6B\",\"C1\",\"J\",\"80\"
\"\",\"\",\"approach-retreat\",\"229\",\"1545380\",\"0.0-229.0\",\"\",\"\",\"3-3\",\"5103\",\"37\",\"0\",\"Testing\",\"Stims/Figures/87-C-20-4.bmp\",\"fa:fa:sha\",\"Right\",\"39\",\"4\",\"9\",\"6B\",\"C1\",\"J\",\"81\"
\"\",\"\",\"approach-retreat\",\"230\",\"1553383\",\"0.0-230.0\",\"\",\"\",\"3-3\",\"6494\",\"40\",\"1\",\"Testing\",\"Stims/Figures/85-C-20-2.bmp\",\"va:shasha\",\"Down\",\"40\",\"4\",\"10\",\"6B\",\"C1\",\"J\",\"82\"
\"\",\"\",\"approach-retreat\",\"231\",\"1560759\",\"0.0-231.0\",\"\",\"\",\"3-3\",\"5866\",\"40\",\"1\",\"Testing\",\"Stims/Figures/57-J-0-1.bmp\",\"sa:saha\",\"Up\",\"40\",\"4\",\"11\",\"6B\",\"C2\",\"J\",\"83\"
\"\",\"\",\"approach-retreat\",\"232\",\"1568138\",\"0.0-232.0\",\"\",\"\",\"3-3\",\"5874\",\"38\",\"1\",\"Testing\",\"Stims/Figures/44-J-10-3.bmp\",\"za:sa:ha\",\"Down\",\"38\",\"4\",\"12\",\"6B\",\"C2\",\"J\",\"84\"
\"\",\"\",\"approach-retreat\",\"233\",\"1573808\",\"0.0-233.0\",\"\",\"\",\"3-3\",\"4158\",\"38\",\"0\",\"Testing\",\"Stims/Figures/144-C-30-3.bmp\",\"va:fa:sha\",\"Down\",\"40\",\"4\",\"13\",\"6B\",\"C1\",\"J\",\"85\"
\"\",\"\",\"approach-retreat\",\"234\",\"1579805\",\"0.0-234.0\",\"\",\"\",\"3-3\",\"4486\",\"40\",\"0\",\"Testing\",\"Stims/Figures/102-C-20-4.bmp\",\"vafava\",\"Up\",\"38\",\"4\",\"14\",\"6B\",\"C1\",\"J\",\"86\"
\"\",\"\",\"approach-retreat\",\"235\",\"1586969\",\"0.0-235.0\",\"\",\"\",\"3-3\",\"5655\",\"40\",\"1\",\"Testing\",\"Stims/Figures/44-C-30-3.bmp\",\"va:sha:va\",\"Down\",\"40\",\"4\",\"15\",\"6B\",\"C1\",\"J\",\"87\"
\"\",\"\",\"approach-retreat\",\"236\",\"1593539\",\"0.0-236.0\",\"\",\"\",\"3-3\",\"5060\",\"39\",\"1\",\"Testing\",\"Stims/Figures/27-J-0-1.bmp\",\"sa:ha:ha\",\"Left\",\"39\",\"4\",\"16\",\"6B\",\"C2\",\"J\",\"88\"
\"\",\"\",\"approach-retreat\",\"237\",\"1600910\",\"0.0-237.0\",\"\",\"\",\"3-3\",\"5858\",\"37\",\"1\",\"Testing\",\"Stims/Figures/74-C-20-4.bmp\",\"fafasha\",\"Left\",\"37\",\"4\",\"17\",\"6B\",\"C1\",\"J\",\"89\"
\"\",\"\",\"approach-retreat\",\"238\",\"1618116\",\"0.0-238.0\",\"\",\"\",\"3-3\",\"15696\",\"40\",\"0\",\"Testing\",\"Stims/Figures/111-J-10-3.bmp\",\"sasaha\",\"Down\",\"38\",\"4\",\"18\",\"6B\",\"C2\",\"J\",\"90\"
\"\",\"\",\"approach-retreat\",\"239\",\"1629731\",\"0.0-239.0\",\"\",\"\",\"3-3\",\"10112\",\"39\",\"1\",\"Testing\",\"Stims/Figures/87-J-10-4.bmp\",\"saha:ha\",\"Left\",\"39\",\"4\",\"19\",\"6B\",\"C2\",\"J\",\"91\"
\"\",\"\",\"approach-retreat\",\"240\",\"1636911\",\"0.0-240.0\",\"\",\"\",\"3-3\",\"5672\",\"40\",\"1\",\"Testing\",\"Stims/Figures/74-J-10-4.bmp\",\"zasa:ha\",\"Up\",\"40\",\"4\",\"20\",\"6B\",\"C2\",\"J\",\"92\"
\"\",\"\",\"approach-retreat\",\"241\",\"1642677\",\"0.0-241.0\",\"\",\"\",\"3-3\",\"4258\",\"37\",\"1\",\"Testing\",\"Stims/Figures/71-J-0-1.bmp\",\"zahaha\",\"Right\",\"37\",\"4\",\"21\",\"6B\",\"C2\",\"J\",\"93\"
\"\",\"\",\"approach-retreat\",\"242\",\"1648945\",\"0.0-242.0\",\"\",\"\",\"3-3\",\"4760\",\"38\",\"1\",\"Testing\",\"Stims/Figures/85-J-0-2.bmp\",\"sasa:ha\",\"Down\",\"38\",\"4\",\"22\",\"6B\",\"C2\",\"J\",\"94\"
\"\",\"\",\"approach-retreat\",\"243\",\"1656311\",\"0.0-243.0\",\"\",\"\",\"3-3\",\"5856\",\"37\",\"1\",\"Testing\",\"Stims/Figures/27-C-30-1.bmp\",\"fafava\",\"Left\",\"37\",\"4\",\"23\",\"6B\",\"C1\",\"J\",\"95\"
\"\",\"\",\"approach-retreat\",\"244\",\"1662990\",\"0.0-244.0\",\"\",\"\",\"3-3\",\"5169\",\"39\",\"1\",\"Testing\",\"Stims/Figures/118-J-0-2.bmp\",\"zasaha\",\"Left\",\"39\",\"4\",\"24\",\"6B\",\"C2\",\"J\",\"96\"
\"28501\",\"\",\"survey-text\",\"245\",\"1691498\",\"0.0-245.0\",\"\",\"{\"\"Q0\"\":\"\"PS160004\"\"}\",\"\",\"\",\"\",\"\",\"\",\"\",\"\",\"\",\"\",\"\",\"\",\"\",\"\",\"\",\"\"
