"rt","key_press","trial_type","trial_index","time_elapsed","internal_node_id","view_history","responses","Id","Rt","ResKeyCode","ResCorr","TrialType2","Image","Label","Location","CorrectResponse","Block","BlockTrial","Condition","LabelType","Subcondition","trialNum"
"4928","32","text","0","4932","0.0-0.0-0.0","","","","","","","","","","","","","","","","",""
"21880","","instructions","1","26814","0.0-1.0","[{""page_index"":0,""viewing_time"":21880}]","","","","","","","","","","","","","","","",""
"23035","","survey-multi-choice","2","49896","0.0-2.0","","{""Q0"":""Ne"",""Q1"":""Da"",""Q2"":""Da"",""Q3"":""Da"",""Q4"":""Da"",""Q5"":""Da""}","","","","","","","","","","","","","","",""
"","","bio","3","57491","0.0-3.0","","{""age"":""19"",""gender"":""f"",""specify"":""""}","","","","","","","","","","","","","","",""
"","","approach-retreat","4","69464","0.0-4.0","","","1-3","10464","40","0","Training","Stims/Figures/94-C-20-2.bmp","papata","Down","38","1","1","5","P","C","1"
"","","approach-retreat","5","98937","0.0-5.0","","","1-3","27962","40","1","Training","Stims/Figures/111-C-30-3.bmp","taka:ta","Up","40","1","2","5","P","C","2"
"","","approach-retreat","6","109245","0.0-6.0","","","1-3","8794","40","0","Training","Stims/Figures/87-C-20-4.bmp","takata","Down","38","1","3","5","P","C","3"
"","","approach-retreat","7","115831","0.0-7.0","","","1-3","5077","40","0","Training","Stims/Figures/100-J-10-3.bmp","ma:mana","Up","38","1","4","5","S","C","4"
"","","approach-retreat","8","124349","0.0-8.0","","","1-3","7006","37","0","Training","Stims/Figures/87-J-10-4.bmp","mala:na","Right","39","1","5","5","S","C","5"
"","","approach-retreat","9","130579","0.0-9.0","","","1-3","4720","38","1","Training","Stims/Figures/57-C-30-1.bmp","tapaka","Down","38","1","6","5","P","C","6"
"","","approach-retreat","10","137126","0.0-10.0","","","1-3","5035","37","1","Training","Stims/Figures/57-J-0-1.bmp","na:ma:la","Left","37","1","7","5","S","C","7"
"","","approach-retreat","11","143406","0.0-11.0","","","1-3","4768","37","1","Training","Stims/Figures/85-C-20-2.bmp","papa:ka","Right","37","1","8","5","P","C","8"
"","","approach-retreat","12","149781","0.0-12.0","","","1-3","4865","39","1","Training","Stims/Figures/86-J-0-1.bmp","nala:la","Right","39","1","9","5","S","C","9"
"","","approach-retreat","13","157838","0.0-13.0","","","1-3","6545","37","0","Training","Stims/Figures/86-C-30-1.bmp","ta:pa:ta","Left","39","1","10","5","P","C","10"
"","","approach-retreat","14","165281","0.0-14.0","","","1-3","5931","39","1","Training","Stims/Figures/74-C-20-4.bmp","pa:kaka","Left","39","1","11","5","P","C","11"
"","","approach-retreat","15","177124","0.0-15.0","","","1-3","10333","38","1","Training","Stims/Figures/111-J-10-3.bmp","ma:la:na","Up","38","1","12","5","S","C","12"
"","","approach-retreat","16","184773","0.0-16.0","","","1-3","6136","39","1","Training","Stims/Figures/74-J-10-4.bmp","ma:lana","Right","39","1","13","5","S","C","13"
"","","approach-retreat","17","191253","0.0-17.0","","","1-3","4968","37","1","Training","Stims/Figures/85-J-0-2.bmp","mama:na","Left","37","1","14","5","S","C","14"
"","","approach-retreat","18","198152","0.0-18.0","","","1-3","5389","40","1","Training","Stims/Figures/94-J-0-2.bmp","mamana","Down","40","1","15","5","S","C","15"
"","","approach-retreat","19","206506","0.0-19.0","","","1-3","6844","38","0","Training","Stims/Figures/100-C-30-3.bmp","pa:pa:ta","Up","40","1","16","5","P","C","16"
"","","approach-retreat","20","213176","0.0-20.0","","","1-3","5158","39","1","Training","Stims/Figures/94-J-0-2.bmp","mamana","Right","39","2","1","5","S","C","17"
"","","approach-retreat","21","218967","0.0-21.0","","","1-3","4280","39","1","Training","Stims/Figures/86-J-0-1.bmp","nala:la","Right","39","2","2","5","S","C","18"
"","","approach-retreat","22","225758","0.0-22.0","","","1-3","5280","38","1","Training","Stims/Figures/94-C-20-2.bmp","papata","Down","38","2","3","5","P","C","19"
"","","approach-retreat","23","232026","0.0-23.0","","","1-3","4758","38","1","Training","Stims/Figures/74-C-20-4.bmp","pa:kaka","Down","38","2","4","5","P","C","20"
"","","approach-retreat","24","239084","0.0-24.0","","","1-3","5548","39","0","Training","Stims/Figures/111-J-10-3.bmp","ma:la:na","Left","37","2","5","5","S","C","21"
"","","approach-retreat","25","245369","0.0-25.0","","","1-3","4776","38","1","Training","Stims/Figures/85-J-0-2.bmp","mama:na","Up","38","2","6","5","S","C","22"
"","","approach-retreat","26","251915","0.0-26.0","","","1-3","5032","40","0","Training","Stims/Figures/86-C-30-1.bmp","ta:pa:ta","Down","38","2","7","5","P","C","23"
"","","approach-retreat","27","259229","0.0-27.0","","","1-3","5803","38","1","Training","Stims/Figures/57-J-0-1.bmp","na:ma:la","Up","38","2","8","5","S","C","24"
"","","approach-retreat","28","265340","0.0-28.0","","","1-3","4597","39","0","Training","Stims/Figures/74-J-10-4.bmp","ma:lana","Left","37","2","9","5","S","C","25"
"","","approach-retreat","29","271265","0.0-29.0","","","1-3","4414","37","1","Training","Stims/Figures/100-C-30-3.bmp","pa:pa:ta","Right","37","2","10","5","P","C","26"
"","","approach-retreat","30","277367","0.0-30.0","","","1-3","4592","40","1","Training","Stims/Figures/85-C-20-2.bmp","papa:ka","Up","40","2","11","5","P","C","27"
"","","approach-retreat","31","283373","0.0-31.0","","","1-3","4494","38","1","Training","Stims/Figures/87-C-20-4.bmp","takata","Down","38","2","12","5","P","C","28"
"","","approach-retreat","32","289804","0.0-32.0","","","1-3","4919","37","0","Training","Stims/Figures/111-C-30-3.bmp","taka:ta","Left","39","2","13","5","P","C","29"
"","","approach-retreat","33","295767","0.0-33.0","","","1-3","4452","39","1","Training","Stims/Figures/57-C-30-1.bmp","tapaka","Left","39","2","14","5","P","C","30"
"","","approach-retreat","34","301798","0.0-34.0","","","1-3","4520","39","1","Training","Stims/Figures/87-J-10-4.bmp","mala:na","Right","39","2","15","5","S","C","31"
"","","approach-retreat","35","307985","0.0-35.0","","","1-3","4675","40","0","Training","Stims/Figures/100-J-10-3.bmp","ma:mana","Up","38","2","16","5","S","C","32"
"","","approach-retreat","36","314477","0.0-36.0","","","1-3","4982","39","1","Training","Stims/Figures/100-J-10-3.bmp","ma:mana","Right","39","3","1","5","S","C","33"
"","","approach-retreat","37","321179","0.0-37.0","","","1-3","5191","38","1","Training","Stims/Figures/111-C-30-3.bmp","taka:ta","Down","38","3","2","5","P","C","34"
"","","approach-retreat","38","331043","0.0-38.0","","","1-3","8351","39","1","Training","Stims/Figures/74-C-20-4.bmp","pa:kaka","Left","39","3","3","5","P","C","35"
"","","approach-retreat","39","336901","0.0-39.0","","","1-3","4344","39","0","Training","Stims/Figures/87-J-10-4.bmp","mala:na","Left","37","3","4","5","S","C","36"
"","","approach-retreat","40","343384","0.0-40.0","","","1-3","4971","39","1","Training","Stims/Figures/57-C-30-1.bmp","tapaka","Left","39","3","5","5","P","C","37"
"","","approach-retreat","41","352284","0.0-41.0","","","1-3","7387","39","1","Training","Stims/Figures/85-J-0-2.bmp","mama:na","Right","39","3","6","5","S","C","38"
"","","approach-retreat","42","358251","0.0-42.0","","","1-3","4456","40","0","Training","Stims/Figures/111-J-10-3.bmp","ma:la:na","Up","38","3","7","5","S","C","39"
"","","approach-retreat","43","364677","0.0-43.0","","","1-3","4914","38","1","Training","Stims/Figures/94-C-20-2.bmp","papata","Down","38","3","8","5","P","C","40"
"","","approach-retreat","44","370841","0.0-44.0","","","1-3","4651","37","1","Training","Stims/Figures/86-C-30-1.bmp","ta:pa:ta","Right","37","3","9","5","P","C","41"
"","","approach-retreat","45","378475","0.0-45.0","","","1-3","6123","40","1","Training","Stims/Figures/74-J-10-4.bmp","ma:lana","Down","40","3","10","5","S","C","42"
"","","approach-retreat","46","384548","0.0-46.0","","","1-3","4562","38","0","Training","Stims/Figures/86-J-0-1.bmp","nala:la","Down","40","3","11","5","S","C","43"
"","","approach-retreat","47","390438","0.0-47.0","","","1-3","4378","39","0","Training","Stims/Figures/57-J-0-1.bmp","na:ma:la","Left","37","3","12","5","S","C","44"
"","","approach-retreat","48","397159","0.0-48.0","","","1-3","5212","40","1","Training","Stims/Figures/85-C-20-2.bmp","papa:ka","Up","40","3","13","5","P","C","45"
"","","approach-retreat","49","403597","0.0-49.0","","","1-3","4928","40","0","Training","Stims/Figures/94-J-0-2.bmp","mamana","Up","38","3","14","5","S","C","46"
"","","approach-retreat","50","409921","0.0-50.0","","","1-3","4810","38","0","Training","Stims/Figures/87-C-20-4.bmp","takata","Up","40","3","15","5","P","C","47"
"","","approach-retreat","51","417187","0.0-51.0","","","1-3","5756","39","0","Training","Stims/Figures/100-C-30-3.bmp","pa:pa:ta","Right","37","3","16","5","P","C","48"
"","","approach-retreat","52","423601","0.0-52.0","","","1-3","4899","40","1","Training","Stims/Figures/57-C-30-1.bmp","tapaka","Up","40","4","1","5","P","C","49"
"","","approach-retreat","53","430377","0.0-53.0","","","1-3","5267","37","0","Training","Stims/Figures/100-J-10-3.bmp","ma:mana","Right","39","4","2","5","S","C","50"
"","","approach-retreat","54","436811","0.0-54.0","","","1-3","4926","38","1","Training","Stims/Figures/74-C-20-4.bmp","pa:kaka","Down","38","4","3","5","P","C","51"
"","","approach-retreat","55","442908","0.0-55.0","","","1-3","4587","37","1","Training","Stims/Figures/74-J-10-4.bmp","ma:lana","Left","37","4","4","5","S","C","52"
"","","approach-retreat","56","448887","0.0-56.0","","","1-3","4466","37","1","Training","Stims/Figures/57-J-0-1.bmp","na:ma:la","Left","37","4","5","5","S","C","53"
"","","approach-retreat","57","455435","0.0-57.0","","","1-3","5034","38","1","Training","Stims/Figures/85-C-20-2.bmp","papa:ka","Down","38","4","6","5","P","C","54"
"","","approach-retreat","58","464936","0.0-58.0","","","1-3","7990","37","1","Training","Stims/Figures/87-J-10-4.bmp","mala:na","Left","37","4","7","5","S","C","55"
"","","approach-retreat","59","472365","0.0-59.0","","","1-3","5920","38","1","Training","Stims/Figures/100-C-30-3.bmp","pa:pa:ta","Down","38","4","8","5","P","C","56"
"","","approach-retreat","60","478334","0.0-60.0","","","1-3","4459","38","1","Training","Stims/Figures/86-C-30-1.bmp","ta:pa:ta","Down","38","4","9","5","P","C","57"
"","","approach-retreat","61","484555","0.0-61.0","","","1-3","4712","39","1","Training","Stims/Figures/85-J-0-2.bmp","mama:na","Right","39","4","10","5","S","C","58"
"","","approach-retreat","62","491327","0.0-62.0","","","1-3","5259","40","0","Training","Stims/Figures/94-J-0-2.bmp","mamana","Up","38","4","11","5","S","C","59"
"","","approach-retreat","63","499265","0.0-63.0","","","1-3","6429","39","0","Training","Stims/Figures/111-J-10-3.bmp","ma:la:na","Left","37","4","12","5","S","C","60"
"","","approach-retreat","64","506688","0.0-64.0","","","1-3","5910","37","1","Training","Stims/Figures/94-C-20-2.bmp","papata","Right","37","4","13","5","P","C","61"
"","","approach-retreat","65","513869","0.0-65.0","","","1-3","5669","39","0","Training","Stims/Figures/87-C-20-4.bmp","takata","Right","37","4","14","5","P","C","62"
"","","approach-retreat","66","520035","0.0-66.0","","","1-3","4656","40","1","Training","Stims/Figures/111-C-30-3.bmp","taka:ta","Up","40","4","15","5","P","C","63"
"","","approach-retreat","67","525834","0.0-67.0","","","1-3","4288","40","0","Training","Stims/Figures/86-J-0-1.bmp","nala:la","Up","38","4","16","5","S","C","64"
"","","approach-retreat","68","532000","0.0-68.0","","","1-3","4656","39","1","Training","Stims/Figures/86-C-30-1.bmp","ta:pa:ta","Left","39","5","1","5","P","C","65"
"","","approach-retreat","69","539002","0.0-69.0","","","1-3","5491","39","0","Training","Stims/Figures/57-C-30-1.bmp","tapaka","Right","37","5","2","5","P","C","66"
"","","approach-retreat","70","545522","0.0-70.0","","","1-3","5011","40","1","Training","Stims/Figures/94-J-0-2.bmp","mamana","Down","40","5","3","5","S","C","67"
"","","approach-retreat","71","551854","0.0-71.0","","","1-3","4820","40","1","Training","Stims/Figures/74-J-10-4.bmp","ma:lana","Down","40","5","4","5","S","C","68"
"","","approach-retreat","72","558347","0.0-72.0","","","1-3","4985","39","1","Training","Stims/Figures/57-J-0-1.bmp","na:ma:la","Right","39","5","5","5","S","C","69"
"","","approach-retreat","73","565142","0.0-73.0","","","1-3","5286","38","0","Training","Stims/Figures/74-C-20-4.bmp","pa:kaka","Up","40","5","6","5","P","C","70"
"","","approach-retreat","74","574554","0.0-74.0","","","1-3","7901","39","1","Training","Stims/Figures/87-J-10-4.bmp","mala:na","Right","39","5","7","5","S","C","71"
"","","approach-retreat","75","580581","0.0-75.0","","","1-3","4518","37","0","Training","Stims/Figures/87-C-20-4.bmp","takata","Left","39","5","8","5","P","C","72"
"","","approach-retreat","76","587628","0.0-76.0","","","1-3","5538","37","1","Training","Stims/Figures/85-J-0-2.bmp","mama:na","Left","37","5","9","5","S","C","73"
"","","approach-retreat","77","593572","0.0-77.0","","","1-3","4432","37","1","Training","Stims/Figures/111-C-30-3.bmp","taka:ta","Right","37","5","10","5","P","C","74"
"","","approach-retreat","78","599904","0.0-78.0","","","1-3","4821","40","0","Training","Stims/Figures/100-J-10-3.bmp","ma:mana","Up","38","5","11","5","S","C","75"
"","","approach-retreat","79","605759","0.0-79.0","","","1-3","4344","38","1","Training","Stims/Figures/94-C-20-2.bmp","papata","Down","38","5","12","5","P","C","76"
"","","approach-retreat","80","612918","0.0-80.0","","","1-3","5647","39","0","Training","Stims/Figures/111-J-10-3.bmp","ma:la:na","Left","37","5","13","5","S","C","77"
"","","approach-retreat","81","618905","0.0-81.0","","","1-3","4477","40","1","Training","Stims/Figures/86-J-0-1.bmp","nala:la","Down","40","5","14","5","S","C","78"
"","","approach-retreat","82","625191","0.0-82.0","","","1-3","4776","40","1","Training","Stims/Figures/100-C-30-3.bmp","pa:pa:ta","Up","40","5","15","5","P","C","79"
"","","approach-retreat","83","630780","0.0-83.0","","","1-3","4075","40","1","Training","Stims/Figures/85-C-20-2.bmp","papa:ka","Up","40","5","16","5","P","C","80"
"","","approach-retreat","84","636723","0.0-84.0","","","1-3","4431","38","1","Training","Stims/Figures/85-C-20-2.bmp","papa:ka","Down","38","6","1","5","P","C","81"
"","","approach-retreat","85","642687","0.0-85.0","","","1-3","4452","38","1","Training","Stims/Figures/85-J-0-2.bmp","mama:na","Up","38","6","2","5","S","C","82"
"","","approach-retreat","86","649004","0.0-86.0","","","1-3","4808","40","0","Training","Stims/Figures/74-C-20-4.bmp","pa:kaka","Down","38","6","3","5","P","C","83"
"","","approach-retreat","87","655593","0.0-87.0","","","1-3","5079","39","1","Training","Stims/Figures/86-C-30-1.bmp","ta:pa:ta","Left","39","6","4","5","P","C","84"
"","","approach-retreat","88","662737","0.0-88.0","","","1-3","5635","40","0","Training","Stims/Figures/111-J-10-3.bmp","ma:la:na","Up","38","6","5","5","S","C","85"
"","","approach-retreat","89","669761","0.0-89.0","","","1-3","5511","37","1","Training","Stims/Figures/87-C-20-4.bmp","takata","Right","37","6","6","5","P","C","86"
"","","approach-retreat","90","677900","0.0-90.0","","","1-3","6629","40","1","Training","Stims/Figures/57-J-0-1.bmp","na:ma:la","Down","40","6","7","5","S","C","87"
"","","approach-retreat","91","683975","0.0-91.0","","","1-3","4564","38","1","Training","Stims/Figures/100-C-30-3.bmp","pa:pa:ta","Down","38","6","8","5","P","C","88"
"","","approach-retreat","92","691381","0.0-92.0","","","1-3","5895","37","1","Training","Stims/Figures/94-C-20-2.bmp","papata","Right","37","6","9","5","P","C","89"
"","","approach-retreat","93","697459","0.0-93.0","","","1-3","4565","37","1","Training","Stims/Figures/87-J-10-4.bmp","mala:na","Left","37","6","10","5","S","C","90"
"","","approach-retreat","94","703385","0.0-94.0","","","1-3","4418","39","1","Training","Stims/Figures/94-J-0-2.bmp","mamana","Right","39","6","11","5","S","C","91"
"","","approach-retreat","95","709478","0.0-95.0","","","1-3","4583","39","1","Training","Stims/Figures/74-J-10-4.bmp","ma:lana","Right","39","6","12","5","S","C","92"
"","","approach-retreat","96","715423","0.0-96.0","","","1-3","4432","40","1","Training","Stims/Figures/111-C-30-3.bmp","taka:ta","Up","40","6","13","5","P","C","93"
"","","approach-retreat","97","721824","0.0-97.0","","","1-3","4889","38","1","Training","Stims/Figures/100-J-10-3.bmp","ma:mana","Up","38","6","14","5","S","C","94"
"","","approach-retreat","98","727711","0.0-98.0","","","1-3","4378","39","0","Training","Stims/Figures/86-J-0-1.bmp","nala:la","Left","37","6","15","5","S","C","95"
"","","approach-retreat","99","733988","0.0-99.0","","","1-3","4764","39","1","Training","Stims/Figures/57-C-30-1.bmp","tapaka","Left","39","6","16","5","P","C","96"
"","","approach-retreat","100","739932","0.0-100.0","","","1-3","4433","38","0","Training","Stims/Figures/111-J-10-3.bmp","ma:la:na","Down","40","7","1","5","S","C","97"
"","","approach-retreat","101","746016","0.0-101.0","","","1-3","4575","37","0","Training","Stims/Figures/74-J-10-4.bmp","ma:lana","Right","39","7","2","5","S","C","98"
"","","approach-retreat","102","752348","0.0-102.0","","","1-3","4822","40","1","Training","Stims/Figures/85-J-0-2.bmp","mama:na","Down","40","7","3","5","S","C","99"
"","","approach-retreat","103","758104","0.0-103.0","","","1-3","4247","37","1","Training","Stims/Figures/86-C-30-1.bmp","ta:pa:ta","Right","37","7","4","5","P","C","100"
"","","approach-retreat","104","763848","0.0-104.0","","","1-3","4232","40","1","Training","Stims/Figures/111-C-30-3.bmp","taka:ta","Up","40","7","5","5","P","C","101"
"","","approach-retreat","105","769507","0.0-105.0","","","1-3","4147","37","0","Training","Stims/Figures/87-J-10-4.bmp","mala:na","Right","39","7","6","5","S","C","102"
"","","approach-retreat","106","775504","0.0-106.0","","","1-3","4484","37","1","Training","Stims/Figures/86-J-0-1.bmp","nala:la","Left","37","7","7","5","S","C","103"
"","","approach-retreat","107","781668","0.0-107.0","","","1-3","4655","40","1","Training","Stims/Figures/94-J-0-2.bmp","mamana","Down","40","7","8","5","S","C","104"
"","","approach-retreat","108","787635","0.0-108.0","","","1-3","4458","40","1","Training","Stims/Figures/57-C-30-1.bmp","tapaka","Up","40","7","9","5","P","C","105"
"","","approach-retreat","109","793598","0.0-109.0","","","1-3","4451","40","1","Training","Stims/Figures/87-C-20-4.bmp","takata","Up","40","7","10","5","P","C","106"
"","","approach-retreat","110","799771","0.0-110.0","","","1-3","4663","39","1","Training","Stims/Figures/85-C-20-2.bmp","papa:ka","Left","39","7","11","5","P","C","107"
"","","approach-retreat","111","805564","0.0-111.0","","","1-3","4282","37","1","Training","Stims/Figures/94-C-20-2.bmp","papata","Right","37","7","12","5","P","C","108"
"","","approach-retreat","112","812141","0.0-112.0","","","1-3","5065","37","1","Training","Stims/Figures/57-J-0-1.bmp","na:ma:la","Left","37","7","13","5","S","C","109"
"","","approach-retreat","113","818304","0.0-113.0","","","1-3","4652","40","1","Training","Stims/Figures/100-J-10-3.bmp","ma:mana","Down","40","7","14","5","S","C","110"
"","","approach-retreat","114","824511","0.0-114.0","","","1-3","4696","40","1","Training","Stims/Figures/74-C-20-4.bmp","pa:kaka","Up","40","7","15","5","P","C","111"
"","","approach-retreat","115","830690","0.0-115.0","","","1-3","4667","39","1","Training","Stims/Figures/100-C-30-3.bmp","pa:pa:ta","Left","39","7","16","5","P","C","112"
"","","approach-retreat","116","836452","0.0-116.0","","","1-3","4249","40","1","Training","Stims/Figures/111-C-30-3.bmp","taka:ta","Up","40","8","1","5","P","C","113"
"","","approach-retreat","117","844687","0.0-117.0","","","1-3","6707","40","0","Training","Stims/Figures/57-C-30-1.bmp","tapaka","Down","38","8","2","5","P","C","114"
"","","approach-retreat","118","850494","0.0-118.0","","","1-3","4295","40","1","Training","Stims/Figures/94-J-0-2.bmp","mamana","Down","40","8","3","5","S","C","115"
"","","approach-retreat","119","856398","0.0-119.0","","","1-3","4391","38","1","Training","Stims/Figures/87-J-10-4.bmp","mala:na","Up","38","8","4","5","S","C","116"
"","","approach-retreat","120","862516","0.0-120.0","","","1-3","4608","40","0","Training","Stims/Figures/100-C-30-3.bmp","pa:pa:ta","Down","38","8","5","5","P","C","117"
"","","approach-retreat","121","869627","0.0-121.0","","","1-3","5600","40","1","Training","Stims/Figures/86-J-0-1.bmp","nala:la","Down","40","8","6","5","S","C","118"
"","","approach-retreat","122","875618","0.0-122.0","","","1-3","4481","37","1","Training","Stims/Figures/74-C-20-4.bmp","pa:kaka","Right","37","8","7","5","P","C","119"
"","","approach-retreat","123","882824","0.0-123.0","","","1-3","5695","37","1","Training","Stims/Figures/57-J-0-1.bmp","na:ma:la","Left","37","8","8","5","S","C","120"
"","","approach-retreat","124","890929","0.0-124.0","","","1-3","6594","39","1","Training","Stims/Figures/85-C-20-2.bmp","papa:ka","Left","39","8","9","5","P","C","121"
"","","approach-retreat","125","899529","0.0-125.0","","","1-3","7091","39","1","Training","Stims/Figures/85-J-0-2.bmp","mama:na","Right","39","8","10","5","S","C","122"
"","","approach-retreat","126","905708","0.0-126.0","","","1-3","4670","39","1","Training","Stims/Figures/100-J-10-3.bmp","ma:mana","Right","39","8","11","5","S","C","123"
"","","approach-retreat","127","911571","0.0-127.0","","","1-3","4352","37","1","Training","Stims/Figures/111-J-10-3.bmp","ma:la:na","Left","37","8","12","5","S","C","124"
"","","approach-retreat","128","917493","0.0-128.0","","","1-3","4411","38","0","Training","Stims/Figures/87-C-20-4.bmp","takata","Up","40","8","13","5","P","C","125"
"","","approach-retreat","129","923279","0.0-129.0","","","1-3","4274","40","1","Training","Stims/Figures/86-C-30-1.bmp","ta:pa:ta","Up","40","8","14","5","P","C","126"
"","","approach-retreat","130","929949","0.0-130.0","","","1-3","5161","39","1","Training","Stims/Figures/94-C-20-2.bmp","papata","Left","39","8","15","5","P","C","127"
"","","approach-retreat","131","936609","0.0-131.0","","","1-3","5148","39","1","Training","Stims/Figures/74-J-10-4.bmp","ma:lana","Right","39","8","16","5","S","C","128"
"","","approach-retreat","132","945199","0.0-132.0","","","1-3","7079","38","1","Training","Stims/Figures/100-J-10-3.bmp","ma:mana","Up","38","9","1","5","S","C","129"
"","","approach-retreat","133","951981","0.0-133.0","","","1-3","5270","38","1","Training","Stims/Figures/100-C-30-3.bmp","pa:pa:ta","Down","38","9","2","5","P","C","130"
"","","approach-retreat","134","959544","0.0-134.0","","","1-3","6054","38","1","Training","Stims/Figures/74-J-10-4.bmp","ma:lana","Up","38","9","3","5","S","C","131"
"","","approach-retreat","135","965452","0.0-135.0","","","1-3","4399","39","1","Training","Stims/Figures/74-C-20-4.bmp","pa:kaka","Left","39","9","4","5","P","C","132"
"","","approach-retreat","136","971328","0.0-136.0","","","1-3","4365","39","1","Training","Stims/Figures/85-C-20-2.bmp","papa:ka","Left","39","9","5","5","P","C","133"
"","","approach-retreat","137","977165","0.0-137.0","","","1-3","4326","38","1","Training","Stims/Figures/86-C-30-1.bmp","ta:pa:ta","Down","38","9","6","5","P","C","134"
"","","approach-retreat","138","983018","0.0-138.0","","","1-3","4341","39","1","Training","Stims/Figures/94-C-20-2.bmp","papata","Left","39","9","7","5","P","C","135"
"","","approach-retreat","139","989822","0.0-139.0","","","1-3","5294","39","1","Training","Stims/Figures/86-J-0-1.bmp","nala:la","Right","39","9","8","5","S","C","136"
"","","approach-retreat","140","996059","0.0-140.0","","","1-3","4726","38","1","Training","Stims/Figures/87-C-20-4.bmp","takata","Down","38","9","9","5","P","C","137"
"","","approach-retreat","141","1002011","0.0-141.0","","","1-3","4443","37","1","Training","Stims/Figures/111-C-30-3.bmp","taka:ta","Right","37","9","10","5","P","C","138"
"","","approach-retreat","142","1007991","0.0-142.0","","","1-3","4467","39","1","Training","Stims/Figures/111-J-10-3.bmp","ma:la:na","Right","39","9","11","5","S","C","139"
"","","approach-retreat","143","1014690","0.0-143.0","","","1-3","5189","39","1","Training","Stims/Figures/57-C-30-1.bmp","tapaka","Left","39","9","12","5","P","C","140"
"","","approach-retreat","144","1020599","0.0-144.0","","","1-3","4397","38","1","Training","Stims/Figures/57-J-0-1.bmp","na:ma:la","Up","38","9","13","5","S","C","141"
"","","approach-retreat","145","1026678","0.0-145.0","","","1-3","4571","40","1","Training","Stims/Figures/87-J-10-4.bmp","mala:na","Down","40","9","14","5","S","C","142"
"","","approach-retreat","146","1032727","0.0-146.0","","","1-3","4537","39","1","Training","Stims/Figures/85-J-0-2.bmp","mama:na","Right","39","9","15","5","S","C","143"
"","","approach-retreat","147","1038532","0.0-147.0","","","1-3","4294","38","1","Training","Stims/Figures/94-J-0-2.bmp","mamana","Up","38","9","16","5","S","C","144"
"14204","","instructions","148","1052736","0.0-148.0","[{""page_index"":0,""viewing_time"":14204}]","","","","","","","","","","","","","","","",""
"","","approach-retreat","149","1064964","0.0-149.0","","","1-3","10718","40","1","Testing","Stims/Figures/19-J-10-4.bmp","ma:la:la","Down","40","1","1","5","S","C","1"
"","","approach-retreat","150","1073412","0.0-150.0","","","1-3","6937","38","1","Testing","Stims/Figures/85-C-20-2.bmp","papa:ka","Down","38","1","2","5","P","C","2"
"","","approach-retreat","151","1080741","0.0-151.0","","","1-3","5818","40","1","Testing","Stims/Figures/100-C-30-3.bmp","pa:pa:ta","Up","40","1","3","5","P","C","3"
"","","approach-retreat","152","1086894","0.0-152.0","","","1-3","4643","37","0","Testing","Stims/Figures/19-C-20-4.bmp","taka:ka","Left","39","1","4","5","P","C","4"
"","","approach-retreat","153","1096637","0.0-153.0","","","1-3","8234","39","0","Testing","Stims/Figures/74-C-20-4.bmp","pa:kaka","Right","37","1","5","5","P","C","5"
"","","approach-retreat","154","1103381","0.0-154.0","","","1-3","5237","37","1","Testing","Stims/Figures/87-J-10-4.bmp","mala:na","Left","37","1","6","5","S","C","6"
"","","approach-retreat","155","1109549","0.0-155.0","","","1-3","4661","38","0","Testing","Stims/Figures/94-C-20-2.bmp","papata","Up","40","1","7","5","P","C","7"
"","","approach-retreat","156","1115898","0.0-156.0","","","1-3","4839","39","1","Testing","Stims/Figures/74-J-10-4.bmp","ma:lana","Right","39","1","8","5","S","C","8"
"","","approach-retreat","157","1122793","0.0-157.0","","","1-3","5383","40","1","Testing","Stims/Figures/111-J-10-3.bmp","ma:la:na","Down","40","1","9","5","S","C","9"
"","","approach-retreat","158","1128743","0.0-158.0","","","1-3","4440","38","1","Testing","Stims/Figures/111-C-30-3.bmp","taka:ta","Down","38","1","10","5","P","C","10"
"","","approach-retreat","159","1134725","0.0-159.0","","","1-3","4473","39","1","Testing","Stims/Figures/57-C-30-1.bmp","tapaka","Left","39","1","11","5","P","C","11"
"","","approach-retreat","160","1141909","0.0-160.0","","","1-3","5674","38","1","Testing","Stims/Figures/94-J-0-2.bmp","mamana","Up","38","1","12","5","S","C","12"
"","","approach-retreat","161","1149273","0.0-161.0","","","1-3","5854","38","1","Testing","Stims/Figures/57-J-0-1.bmp","na:ma:la","Up","38","1","13","5","S","C","13"
"","","approach-retreat","162","1156433","0.0-162.0","","","1-3","5651","37","1","Testing","Stims/Figures/128-J-10-3.bmp","na:mala","Left","37","1","14","5","S","C","14"
"","","approach-retreat","163","1162332","0.0-163.0","","","1-3","4386","39","1","Testing","Stims/Figures/128-C-30-3.bmp","pa:ka:ta","Left","39","1","15","5","P","C","15"
"","","approach-retreat","164","1168571","0.0-164.0","","","1-3","4731","40","0","Testing","Stims/Figures/139-C-20-2.bmp","tapa:ta","Down","38","1","16","5","P","C","16"
"","","approach-retreat","165","1174720","0.0-165.0","","","1-3","4638","37","1","Testing","Stims/Figures/87-C-20-4.bmp","takata","Right","37","1","17","5","P","C","17"
"","","approach-retreat","166","1181025","0.0-166.0","","","1-3","4794","37","1","Testing","Stims/Figures/86-J-0-1.bmp","nala:la","Left","37","1","18","5","S","C","18"
"","","approach-retreat","167","1187080","0.0-167.0","","","1-3","4542","39","1","Testing","Stims/Figures/139-J-0-2.bmp","nama:la","Right","39","1","19","5","S","C","19"
"","","approach-retreat","168","1193954","0.0-168.0","","","1-3","5363","40","1","Testing","Stims/Figures/71-J-0-1.bmp","namala","Down","40","1","20","5","S","C","20"
"","","approach-retreat","169","1199936","0.0-169.0","","","1-3","4476","37","1","Testing","Stims/Figures/71-C-30-1.bmp","papa:ta","Right","37","1","21","5","P","C","21"
"","","approach-retreat","170","1206566","0.0-170.0","","","1-3","5119","39","1","Testing","Stims/Figures/85-J-0-2.bmp","mama:na","Right","39","1","22","5","S","C","22"
"","","approach-retreat","171","1212797","0.0-171.0","","","1-3","4721","40","1","Testing","Stims/Figures/86-C-30-1.bmp","ta:pa:ta","Up","40","1","23","5","P","C","23"
"","","approach-retreat","172","1219183","0.0-172.0","","","1-3","4876","38","1","Testing","Stims/Figures/100-J-10-3.bmp","ma:mana","Up","38","1","24","5","S","C","24"
"","","approach-retreat","173","1228565","0.0-173.0","","","1-3","7873","40","0","Testing","Stims/Figures/74-C-20-4.bmp","pa:kaka","Down","38","2","1","5","P","C","25"
"","","approach-retreat","174","1235503","0.0-174.0","","","1-3","5429","37","1","Testing","Stims/Figures/87-C-20-4.bmp","takata","Right","37","2","2","5","P","C","26"
"","","approach-retreat","175","1241657","0.0-175.0","","","1-3","4646","38","1","Testing","Stims/Figures/19-J-10-4.bmp","ma:la:la","Up","38","2","3","5","S","C","27"
"","","approach-retreat","176","1247709","0.0-176.0","","","1-3","4542","38","0","Testing","Stims/Figures/139-C-20-2.bmp","tapa:ta","Up","40","2","4","5","P","C","28"
"","","approach-retreat","177","1254118","0.0-177.0","","","1-3","4899","37","0","Testing","Stims/Figures/94-C-20-2.bmp","papata","Left","39","2","5","5","P","C","29"
"","","approach-retreat","178","1260542","0.0-178.0","","","1-3","4913","40","1","Testing","Stims/Figures/111-J-10-3.bmp","ma:la:na","Down","40","2","6","5","S","C","30"
"","","approach-retreat","179","1267136","0.0-179.0","","","1-3","5084","40","1","Testing","Stims/Figures/139-J-0-2.bmp","nama:la","Down","40","2","7","5","S","C","31"
"","","approach-retreat","180","1273375","0.0-180.0","","","1-3","4730","40","0","Testing","Stims/Figures/19-C-20-4.bmp","taka:ka","Down","38","2","8","5","P","C","32"
"","","approach-retreat","181","1279293","0.0-181.0","","","1-3","4407","40","1","Testing","Stims/Figures/74-J-10-4.bmp","ma:lana","Down","40","2","9","5","S","C","33"
"","","approach-retreat","182","1286052","0.0-182.0","","","1-3","5247","40","1","Testing","Stims/Figures/57-C-30-1.bmp","tapaka","Up","40","2","10","5","P","C","34"
"","","approach-retreat","183","1292983","0.0-183.0","","","1-3","5420","40","1","Testing","Stims/Figures/71-J-0-1.bmp","namala","Down","40","2","11","5","S","C","35"
"","","approach-retreat","184","1301700","0.0-184.0","","","1-3","7211","37","1","Testing","Stims/Figures/128-J-10-3.bmp","na:mala","Left","37","2","12","5","S","C","36"
"","","approach-retreat","185","1309673","0.0-185.0","","","1-3","6461","37","1","Testing","Stims/Figures/85-C-20-2.bmp","papa:ka","Right","37","2","13","5","P","C","37"
"","","approach-retreat","186","1323072","0.0-186.0","","","1-3","11892","37","1","Testing","Stims/Figures/86-C-30-1.bmp","ta:pa:ta","Right","37","2","14","5","P","C","38"
"","","approach-retreat","187","1331311","0.0-187.0","","","1-3","6728","38","1","Testing","Stims/Figures/57-J-0-1.bmp","na:ma:la","Up","38","2","15","5","S","C","39"
"","","approach-retreat","188","1341364","0.0-188.0","","","1-3","8546","38","1","Testing","Stims/Figures/100-J-10-3.bmp","ma:mana","Up","38","2","16","5","S","C","40"
"","","approach-retreat","189","1347387","0.0-189.0","","","1-3","4512","39","1","Testing","Stims/Figures/71-C-30-1.bmp","papa:ta","Left","39","2","17","5","P","C","41"
"","","approach-retreat","190","1353956","0.0-190.0","","","1-3","5062","37","1","Testing","Stims/Figures/100-C-30-3.bmp","pa:pa:ta","Right","37","2","18","5","P","C","42"
"","","approach-retreat","191","1360027","0.0-191.0","","","1-3","4564","38","1","Testing","Stims/Figures/85-J-0-2.bmp","mama:na","Up","38","2","19","5","S","C","43"
"","","approach-retreat","192","1366598","0.0-192.0","","","1-3","5061","39","1","Testing","Stims/Figures/128-C-30-3.bmp","pa:ka:ta","Left","39","2","20","5","P","C","44"
"","","approach-retreat","193","1372334","0.0-193.0","","","1-3","4229","37","1","Testing","Stims/Figures/87-J-10-4.bmp","mala:na","Left","37","2","21","5","S","C","45"
"","","approach-retreat","194","1378656","0.0-194.0","","","1-3","4812","39","1","Testing","Stims/Figures/86-J-0-1.bmp","nala:la","Right","39","2","22","5","S","C","46"
"","","approach-retreat","195","1385839","0.0-195.0","","","1-3","5673","39","1","Testing","Stims/Figures/111-C-30-3.bmp","taka:ta","Left","39","2","23","5","P","C","47"
"","","approach-retreat","196","1394282","0.0-196.0","","","1-3","6936","39","1","Testing","Stims/Figures/94-J-0-2.bmp","mamana","Right","39","2","24","5","S","C","48"
"","","approach-retreat","197","1400373","0.0-197.0","","","1-3","4582","39","1","Testing","Stims/Figures/94-C-20-2.bmp","papata","Left","39","3","1","5","P","C","49"
"","","approach-retreat","198","1406473","0.0-198.0","","","1-3","4589","38","1","Testing","Stims/Figures/74-J-10-4.bmp","ma:lana","Up","38","3","2","5","S","C","50"
"","","approach-retreat","199","1413845","0.0-199.0","","","1-3","5863","38","1","Testing","Stims/Figures/111-J-10-3.bmp","ma:la:na","Up","38","3","3","5","S","C","51"
"","","approach-retreat","200","1421642","0.0-200.0","","","1-3","6285","40","1","Testing","Stims/Figures/100-J-10-3.bmp","ma:mana","Down","40","3","4","5","S","C","52"
"","","approach-retreat","201","1427608","0.0-201.0","","","1-3","4454","39","1","Testing","Stims/Figures/94-J-0-2.bmp","mamana","Right","39","3","5","5","S","C","53"
"","","approach-retreat","202","1434874","0.0-202.0","","","1-3","5754","37","1","Testing","Stims/Figures/128-C-30-3.bmp","pa:ka:ta","Right","37","3","6","5","P","C","54"
"","","approach-retreat","203","1440644","0.0-203.0","","","1-3","4260","39","0","Testing","Stims/Figures/19-C-20-4.bmp","taka:ka","Right","37","3","7","5","P","C","55"
"","","approach-retreat","204","1447216","0.0-204.0","","","1-3","5064","40","0","Testing","Stims/Figures/139-C-20-2.bmp","tapa:ta","Down","38","3","8","5","P","C","56"
"","","approach-retreat","205","1454229","0.0-205.0","","","1-3","5502","40","1","Testing","Stims/Figures/86-C-30-1.bmp","ta:pa:ta","Up","40","3","9","5","P","C","57"
"","","approach-retreat","206","1461304","0.0-206.0","","","1-3","5567","40","0","Testing","Stims/Figures/87-C-20-4.bmp","takata","Down","38","3","10","5","P","C","58"
"","","approach-retreat","207","1467774","0.0-207.0","","","1-3","4962","37","1","Testing","Stims/Figures/71-C-30-1.bmp","papa:ta","Right","37","3","11","5","P","C","59"
"","","approach-retreat","208","1473626","0.0-208.0","","","1-3","4343","38","1","Testing","Stims/Figures/111-C-30-3.bmp","taka:ta","Down","38","3","12","5","P","C","60"
"","","approach-retreat","209","1481109","0.0-209.0","","","1-3","5972","39","0","Testing","Stims/Figures/100-C-30-3.bmp","pa:pa:ta","Right","37","3","13","5","P","C","61"
"","","approach-retreat","210","1487006","0.0-210.0","","","1-3","4389","37","1","Testing","Stims/Figures/19-J-10-4.bmp","ma:la:la","Left","37","3","14","5","S","C","62"
"","","approach-retreat","211","1494612","0.0-211.0","","","1-3","6099","37","1","Testing","Stims/Figures/128-J-10-3.bmp","na:mala","Left","37","3","15","5","S","C","63"
"","","approach-retreat","212","1500748","0.0-212.0","","","1-3","4629","38","1","Testing","Stims/Figures/87-J-10-4.bmp","mala:na","Up","38","3","16","5","S","C","64"
"","","approach-retreat","213","1512678","0.0-213.0","","","1-3","10420","40","0","Testing","Stims/Figures/57-C-30-1.bmp","tapaka","Down","38","3","17","5","P","C","65"
"","","approach-retreat","214","1521147","0.0-214.0","","","1-3","6960","39","1","Testing","Stims/Figures/71-J-0-1.bmp","namala","Right","39","3","18","5","S","C","66"
"","","approach-retreat","215","1528206","0.0-215.0","","","1-3","5550","40","1","Testing","Stims/Figures/86-J-0-1.bmp","nala:la","Down","40","3","19","5","S","C","67"
"","","approach-retreat","216","1535138","0.0-216.0","","","1-3","5424","40","1","Testing","Stims/Figures/85-C-20-2.bmp","papa:ka","Up","40","3","20","5","P","C","68"
"","","approach-retreat","217","1543628","0.0-217.0","","","1-3","6981","37","1","Testing","Stims/Figures/139-J-0-2.bmp","nama:la","Left","37","3","21","5","S","C","69"
"","","approach-retreat","218","1550240","0.0-218.0","","","1-3","5103","37","1","Testing","Stims/Figures/85-J-0-2.bmp","mama:na","Left","37","3","22","5","S","C","70"
"","","approach-retreat","219","1556957","0.0-219.0","","","1-3","5209","38","1","Testing","Stims/Figures/57-J-0-1.bmp","na:ma:la","Up","38","3","23","5","S","C","71"
"","","approach-retreat","220","1564446","0.0-220.0","","","1-3","5981","37","0","Testing","Stims/Figures/74-C-20-4.bmp","pa:kaka","Left","39","3","24","5","P","C","72"
"","","approach-retreat","221","1571136","0.0-221.0","","","1-3","5181","39","1","Testing","Stims/Figures/128-J-10-3.bmp","na:mala","Right","39","4","1","5","S","C","73"
"","","approach-retreat","222","1577032","0.0-222.0","","","1-3","4388","39","1","Testing","Stims/Figures/94-C-20-2.bmp","papata","Left","39","4","2","5","P","C","74"
"","","approach-retreat","223","1584062","0.0-223.0","","","1-3","5521","38","0","Testing","Stims/Figures/19-C-20-4.bmp","taka:ka","Up","40","4","3","5","P","C","75"
"","","approach-retreat","224","1589918","0.0-224.0","","","1-3","4348","40","1","Testing","Stims/Figures/128-C-30-3.bmp","pa:ka:ta","Up","40","4","4","5","P","C","76"
"","","approach-retreat","225","1596671","0.0-225.0","","","1-3","5241","39","1","Testing","Stims/Figures/57-C-30-1.bmp","tapaka","Left","39","4","5","5","P","C","77"
"","","approach-retreat","226","1602912","0.0-226.0","","","1-3","4731","40","1","Testing","Stims/Figures/19-J-10-4.bmp","ma:la:la","Down","40","4","6","5","S","C","78"
"","","approach-retreat","227","1609950","0.0-227.0","","","1-3","5527","37","0","Testing","Stims/Figures/100-C-30-3.bmp","pa:pa:ta","Left","39","4","7","5","P","C","79"
"","","approach-retreat","228","1615913","0.0-228.0","","","1-3","4454","39","1","Testing","Stims/Figures/71-J-0-1.bmp","namala","Right","39","4","8","5","S","C","80"
"","","approach-retreat","229","1622187","0.0-229.0","","","1-3","4765","39","1","Testing","Stims/Figures/57-J-0-1.bmp","na:ma:la","Right","39","4","9","5","S","C","81"
"","","approach-retreat","230","1628742","0.0-230.0","","","1-3","5048","40","1","Testing","Stims/Figures/87-J-10-4.bmp","mala:na","Down","40","4","10","5","S","C","82"
"","","approach-retreat","231","1635075","0.0-231.0","","","1-3","4822","40","1","Testing","Stims/Figures/111-C-30-3.bmp","taka:ta","Up","40","4","11","5","P","C","83"
"","","approach-retreat","232","1640966","0.0-232.0","","","1-3","4382","40","1","Testing","Stims/Figures/94-J-0-2.bmp","mamana","Down","40","4","12","5","S","C","84"
"","","approach-retreat","233","1648201","0.0-233.0","","","1-3","5722","39","0","Testing","Stims/Figures/74-C-20-4.bmp","pa:kaka","Right","37","4","13","5","P","C","85"
"","","approach-retreat","234","1654736","0.0-234.0","","","1-3","5029","38","1","Testing","Stims/Figures/71-C-30-1.bmp","papa:ta","Down","38","4","14","5","P","C","86"
"","","approach-retreat","235","1660967","0.0-235.0","","","1-3","4720","38","1","Testing","Stims/Figures/100-J-10-3.bmp","ma:mana","Up","38","4","15","5","S","C","87"
"","","approach-retreat","236","1667150","0.0-236.0","","","1-3","4674","40","1","Testing","Stims/Figures/74-J-10-4.bmp","ma:lana","Down","40","4","16","5","S","C","88"
"","","approach-retreat","237","1673418","0.0-237.0","","","1-3","4759","38","1","Testing","Stims/Figures/111-J-10-3.bmp","ma:la:na","Up","38","4","17","5","S","C","89"
"","","approach-retreat","238","1679721","0.0-238.0","","","1-3","4795","39","1","Testing","Stims/Figures/85-J-0-2.bmp","mama:na","Right","39","4","18","5","S","C","90"
"","","approach-retreat","239","1685932","0.0-239.0","","","1-3","4700","40","1","Testing","Stims/Figures/139-J-0-2.bmp","nama:la","Down","40","4","19","5","S","C","91"
"","","approach-retreat","240","1692184","0.0-240.0","","","1-3","4743","39","1","Testing","Stims/Figures/85-C-20-2.bmp","papa:ka","Left","39","4","20","5","P","C","92"
"","","approach-retreat","241","1706049","0.0-241.0","","","1-3","12354","37","0","Testing","Stims/Figures/87-C-20-4.bmp","takata","Left","39","4","21","5","P","C","93"
"","","approach-retreat","242","1712758","0.0-242.0","","","1-3","5199","40","1","Testing","Stims/Figures/86-C-30-1.bmp","ta:pa:ta","Up","40","4","22","5","P","C","94"
"","","approach-retreat","243","1718795","0.0-243.0","","","1-3","4527","39","1","Testing","Stims/Figures/86-J-0-1.bmp","nala:la","Right","39","4","23","5","S","C","95"
"","","approach-retreat","244","1725239","0.0-244.0","","","1-3","4936","37","0","Testing","Stims/Figures/139-C-20-2.bmp","tapa:ta","Left","39","4","24","5","P","C","96"
"24122","","survey-text","245","1749367","0.0-245.0","","{""Q0"":""1083/2018""}","","","","","","","","","","","","","","",""
