\"rt\",\"key_press\",\"trial_type\",\"trial_index\",\"time_elapsed\",\"internal_node_id\",\"view_history\",\"responses\",\"Id\",\"Rt\",\"ResKeyCode\",\"ResCorr\",\"TrialType2\",\"Image\",\"Label\",\"Location\",\"CorrectResponse\",\"Block\",\"BlockTrial\",\"Condition\",\"LabelType\",\"Subcondition\",\"trialNum\"
\"45224\",\"32\",\"text\",\"0\",\"45230\",\"0.0-0.0-0.0\",\"\",\"\",\"\",\"\",\"\",\"\",\"\",\"\",\"\",\"\",\"\",\"\",\"\",\"\",\"\",\"\",\"\"
\"106514\",\"\",\"instructions\",\"1\",\"151746\",\"0.0-1.0\",\"[{\"\"page_index\"\":0,\"\"viewing_time\"\":106514}]\",\"\",\"\",\"\",\"\",\"\",\"\",\"\",\"\",\"\",\"\",\"\",\"\",\"\",\"\",\"\",\"\"
\"22472\",\"\",\"survey-multi-choice\",\"2\",\"174252\",\"0.0-2.0\",\"\",\"{\"\"Q0\"\":\"\"Da\"\",\"\"Q1\"\":\"\"Da\"\",\"\"Q2\"\":\"\"Da\"\",\"\"Q3\"\":\"\"Da\"\",\"\"Q4\"\":\"\"Da\"\",\"\"Q5\"\":\"\"Da\"\"}\",\"\",\"\",\"\",\"\",\"\",\"\",\"\",\"\",\"\",\"\",\"\",\"\",\"\",\"\",\"\"
\"\",\"\",\"bio\",\"3\",\"182314\",\"0.0-3.0\",\"\",\"{\"\"age\"\":\"\"21\"\",\"\"gender\"\":\"\"f\"\",\"\"specify\"\":\"\"\"\"}\",\"\",\"\",\"\",\"\",\"\",\"\",\"\",\"\",\"\",\"\",\"\",\"\",\"\",\"\",\"\"
\"\",\"\",\"approach-retreat\",\"4\",\"190642\",\"0.0-4.0\",\"\",\"\",\"3-2\",\"6788\",\"37\",\"1\",\"Training\",\"Stims/Figures/128-J-10-3.bmp\",\"sasaha\",\"Right\",\"37\",\"1\",\"1\",\"3B\",\"C2\",\"J\",\"1\"
\"\",\"\",\"approach-retreat\",\"5\",\"197874\",\"0.0-5.0\",\"\",\"\",\"3-2\",\"5720\",\"40\",\"0\",\"Training\",\"Stims/Figures/87-C-20-4.bmp\",\"vashava\",\"Up\",\"38\",\"1\",\"2\",\"3B\",\"C1\",\"J\",\"2\"
\"\",\"\",\"approach-retreat\",\"6\",\"205134\",\"0.0-6.0\",\"\",\"\",\"3-2\",\"5740\",\"39\",\"0\",\"Training\",\"Stims/Figures/85-C-20-2.bmp\",\"vashava\",\"Left\",\"37\",\"1\",\"3\",\"3B\",\"C1\",\"J\",\"3\"
\"\",\"\",\"approach-retreat\",\"7\",\"213036\",\"0.0-7.0\",\"\",\"\",\"3-2\",\"6398\",\"38\",\"1\",\"Training\",\"Stims/Figures/44-C-30-3.bmp\",\"vashava\",\"Up\",\"38\",\"1\",\"4\",\"3B\",\"C1\",\"J\",\"4\"
\"\",\"\",\"approach-retreat\",\"8\",\"221892\",\"0.0-8.0\",\"\",\"\",\"3-2\",\"7352\",\"40\",\"1\",\"Training\",\"Stims/Figures/85-J-0-2.bmp\",\"sasaha\",\"Up\",\"40\",\"1\",\"5\",\"3B\",\"C2\",\"J\",\"5\"
\"\",\"\",\"approach-retreat\",\"9\",\"229464\",\"0.0-9.0\",\"\",\"\",\"3-2\",\"6066\",\"39\",\"1\",\"Training\",\"Stims/Figures/44-J-10-3.bmp\",\"sasaha\",\"Left\",\"39\",\"1\",\"6\",\"3B\",\"C2\",\"J\",\"6\"
\"\",\"\",\"approach-retreat\",\"10\",\"237232\",\"0.0-10.0\",\"\",\"\",\"3-2\",\"6266\",\"39\",\"1\",\"Training\",\"Stims/Figures/118-C-20-2.bmp\",\"vashava\",\"Right\",\"39\",\"1\",\"7\",\"3B\",\"C1\",\"J\",\"7\"
\"\",\"\",\"approach-retreat\",\"11\",\"244474\",\"0.0-11.0\",\"\",\"\",\"3-2\",\"5722\",\"38\",\"0\",\"Training\",\"Stims/Figures/74-C-20-4.bmp\",\"vashava\",\"Down\",\"40\",\"1\",\"8\",\"3B\",\"C1\",\"J\",\"8\"
\"\",\"\",\"approach-retreat\",\"12\",\"251176\",\"0.0-12.0\",\"\",\"\",\"3-2\",\"5192\",\"37\",\"1\",\"Training\",\"Stims/Figures/93-J-0-1.bmp\",\"sasaha\",\"Right\",\"37\",\"1\",\"9\",\"3B\",\"C2\",\"J\",\"9\"
\"\",\"\",\"approach-retreat\",\"13\",\"257282\",\"0.0-13.0\",\"\",\"\",\"3-2\",\"4598\",\"38\",\"1\",\"Training\",\"Stims/Figures/118-J-0-2.bmp\",\"sasaha\",\"Down\",\"38\",\"1\",\"10\",\"3B\",\"C2\",\"J\",\"10\"
\"\",\"\",\"approach-retreat\",\"14\",\"263296\",\"0.0-14.0\",\"\",\"\",\"3-2\",\"4508\",\"40\",\"1\",\"Training\",\"Stims/Figures/128-C-30-3.bmp\",\"vashava\",\"Down\",\"40\",\"1\",\"11\",\"3B\",\"C1\",\"J\",\"11\"
\"\",\"\",\"approach-retreat\",\"15\",\"269378\",\"0.0-15.0\",\"\",\"\",\"3-2\",\"4572\",\"39\",\"1\",\"Training\",\"Stims/Figures/74-J-10-4.bmp\",\"sasaha\",\"Left\",\"39\",\"1\",\"12\",\"3B\",\"C2\",\"J\",\"12\"
\"\",\"\",\"approach-retreat\",\"16\",\"275062\",\"0.0-16.0\",\"\",\"\",\"3-2\",\"4174\",\"40\",\"1\",\"Training\",\"Stims/Figures/87-J-10-4.bmp\",\"sasaha\",\"Up\",\"40\",\"1\",\"13\",\"3B\",\"C2\",\"J\",\"13\"
\"\",\"\",\"approach-retreat\",\"17\",\"281338\",\"0.0-17.0\",\"\",\"\",\"3-2\",\"4768\",\"40\",\"1\",\"Training\",\"Stims/Figures/71-C-30-1.bmp\",\"vashava\",\"Down\",\"40\",\"1\",\"14\",\"3B\",\"C1\",\"J\",\"14\"
\"\",\"\",\"approach-retreat\",\"18\",\"287346\",\"0.0-18.0\",\"\",\"\",\"3-2\",\"4498\",\"39\",\"1\",\"Training\",\"Stims/Figures/93-C-30-1.bmp\",\"vashava\",\"Right\",\"39\",\"1\",\"15\",\"3B\",\"C1\",\"J\",\"15\"
\"\",\"\",\"approach-retreat\",\"19\",\"293086\",\"0.0-19.0\",\"\",\"\",\"3-2\",\"4228\",\"39\",\"1\",\"Training\",\"Stims/Figures/71-J-0-1.bmp\",\"sasaha\",\"Left\",\"39\",\"1\",\"16\",\"3B\",\"C2\",\"J\",\"16\"
\"\",\"\",\"approach-retreat\",\"20\",\"298992\",\"0.0-20.0\",\"\",\"\",\"3-2\",\"4386\",\"39\",\"0\",\"Training\",\"Stims/Figures/128-C-30-3.bmp\",\"vashava\",\"Left\",\"37\",\"2\",\"1\",\"3B\",\"C1\",\"J\",\"17\"
\"\",\"\",\"approach-retreat\",\"21\",\"305320\",\"0.0-21.0\",\"\",\"\",\"3-2\",\"4820\",\"38\",\"1\",\"Training\",\"Stims/Figures/87-J-10-4.bmp\",\"sasaha\",\"Down\",\"38\",\"2\",\"2\",\"3B\",\"C2\",\"J\",\"18\"
\"\",\"\",\"approach-retreat\",\"22\",\"311056\",\"0.0-22.0\",\"\",\"\",\"3-2\",\"4230\",\"37\",\"1\",\"Training\",\"Stims/Figures/74-J-10-4.bmp\",\"sasaha\",\"Right\",\"37\",\"2\",\"3\",\"3B\",\"C2\",\"J\",\"19\"
\"\",\"\",\"approach-retreat\",\"23\",\"317074\",\"0.0-23.0\",\"\",\"\",\"3-2\",\"4512\",\"40\",\"1\",\"Training\",\"Stims/Figures/71-C-30-1.bmp\",\"vashava\",\"Down\",\"40\",\"2\",\"4\",\"3B\",\"C1\",\"J\",\"20\"
\"\",\"\",\"approach-retreat\",\"24\",\"323934\",\"0.0-24.0\",\"\",\"\",\"3-2\",\"5346\",\"38\",\"1\",\"Training\",\"Stims/Figures/44-C-30-3.bmp\",\"vashava\",\"Up\",\"38\",\"2\",\"5\",\"3B\",\"C1\",\"J\",\"21\"
\"\",\"\",\"approach-retreat\",\"25\",\"330614\",\"0.0-25.0\",\"\",\"\",\"3-2\",\"5172\",\"40\",\"1\",\"Training\",\"Stims/Figures/118-J-0-2.bmp\",\"sasaha\",\"Up\",\"40\",\"2\",\"6\",\"3B\",\"C2\",\"J\",\"22\"
\"\",\"\",\"approach-retreat\",\"26\",\"336870\",\"0.0-26.0\",\"\",\"\",\"3-2\",\"4752\",\"40\",\"1\",\"Training\",\"Stims/Figures/85-C-20-2.bmp\",\"vashava\",\"Down\",\"40\",\"2\",\"7\",\"3B\",\"C1\",\"J\",\"23\"
\"\",\"\",\"approach-retreat\",\"27\",\"342908\",\"0.0-27.0\",\"\",\"\",\"3-2\",\"4536\",\"37\",\"1\",\"Training\",\"Stims/Figures/74-C-20-4.bmp\",\"vashava\",\"Left\",\"37\",\"2\",\"8\",\"3B\",\"C1\",\"J\",\"24\"
\"\",\"\",\"approach-retreat\",\"28\",\"348512\",\"0.0-28.0\",\"\",\"\",\"3-2\",\"4098\",\"37\",\"1\",\"Training\",\"Stims/Figures/128-J-10-3.bmp\",\"sasaha\",\"Right\",\"37\",\"2\",\"9\",\"3B\",\"C2\",\"J\",\"25\"
\"\",\"\",\"approach-retreat\",\"29\",\"354214\",\"0.0-29.0\",\"\",\"\",\"3-2\",\"4196\",\"37\",\"1\",\"Training\",\"Stims/Figures/71-J-0-1.bmp\",\"sasaha\",\"Right\",\"37\",\"2\",\"10\",\"3B\",\"C2\",\"J\",\"26\"
\"\",\"\",\"approach-retreat\",\"30\",\"360172\",\"0.0-30.0\",\"\",\"\",\"3-2\",\"4452\",\"37\",\"1\",\"Training\",\"Stims/Figures/87-C-20-4.bmp\",\"vashava\",\"Left\",\"37\",\"2\",\"11\",\"3B\",\"C1\",\"J\",\"27\"
\"\",\"\",\"approach-retreat\",\"31\",\"365934\",\"0.0-31.0\",\"\",\"\",\"3-2\",\"4252\",\"38\",\"1\",\"Training\",\"Stims/Figures/93-J-0-1.bmp\",\"sasaha\",\"Down\",\"38\",\"2\",\"12\",\"3B\",\"C2\",\"J\",\"28\"
\"\",\"\",\"approach-retreat\",\"32\",\"371824\",\"0.0-32.0\",\"\",\"\",\"3-2\",\"4374\",\"40\",\"0\",\"Training\",\"Stims/Figures/118-C-20-2.bmp\",\"vashava\",\"Up\",\"38\",\"2\",\"13\",\"3B\",\"C1\",\"J\",\"29\"
\"\",\"\",\"approach-retreat\",\"33\",\"377808\",\"0.0-33.0\",\"\",\"\",\"3-2\",\"4478\",\"40\",\"1\",\"Training\",\"Stims/Figures/85-J-0-2.bmp\",\"sasaha\",\"Up\",\"40\",\"2\",\"14\",\"3B\",\"C2\",\"J\",\"30\"
\"\",\"\",\"approach-retreat\",\"34\",\"383652\",\"0.0-34.0\",\"\",\"\",\"3-2\",\"4338\",\"37\",\"1\",\"Training\",\"Stims/Figures/44-J-10-3.bmp\",\"sasaha\",\"Right\",\"37\",\"2\",\"15\",\"3B\",\"C2\",\"J\",\"31\"
\"\",\"\",\"approach-retreat\",\"35\",\"389314\",\"0.0-35.0\",\"\",\"\",\"3-2\",\"4158\",\"37\",\"1\",\"Training\",\"Stims/Figures/93-C-30-1.bmp\",\"vashava\",\"Left\",\"37\",\"2\",\"16\",\"3B\",\"C1\",\"J\",\"32\"
\"\",\"\",\"approach-retreat\",\"36\",\"394972\",\"0.0-36.0\",\"\",\"\",\"3-2\",\"4150\",\"40\",\"1\",\"Training\",\"Stims/Figures/87-J-10-4.bmp\",\"sasaha\",\"Up\",\"40\",\"3\",\"1\",\"3B\",\"C2\",\"J\",\"33\"
\"\",\"\",\"approach-retreat\",\"37\",\"400686\",\"0.0-37.0\",\"\",\"\",\"3-2\",\"4194\",\"38\",\"1\",\"Training\",\"Stims/Figures/44-C-30-3.bmp\",\"vashava\",\"Up\",\"38\",\"3\",\"2\",\"3B\",\"C1\",\"J\",\"34\"
\"\",\"\",\"approach-retreat\",\"38\",\"407088\",\"0.0-38.0\",\"\",\"\",\"3-2\",\"4894\",\"39\",\"1\",\"Training\",\"Stims/Figures/118-J-0-2.bmp\",\"sasaha\",\"Left\",\"39\",\"3\",\"3\",\"3B\",\"C2\",\"J\",\"35\"
\"\",\"\",\"approach-retreat\",\"39\",\"412752\",\"0.0-39.0\",\"\",\"\",\"3-2\",\"4158\",\"37\",\"1\",\"Training\",\"Stims/Figures/44-J-10-3.bmp\",\"sasaha\",\"Right\",\"37\",\"3\",\"4\",\"3B\",\"C2\",\"J\",\"36\"
\"\",\"\",\"approach-retreat\",\"40\",\"418410\",\"0.0-40.0\",\"\",\"\",\"3-2\",\"4150\",\"37\",\"1\",\"Training\",\"Stims/Figures/85-J-0-2.bmp\",\"sasaha\",\"Right\",\"37\",\"3\",\"5\",\"3B\",\"C2\",\"J\",\"37\"
\"\",\"\",\"approach-retreat\",\"41\",\"424218\",\"0.0-41.0\",\"\",\"\",\"3-2\",\"4302\",\"40\",\"1\",\"Training\",\"Stims/Figures/118-C-20-2.bmp\",\"vashava\",\"Down\",\"40\",\"3\",\"6\",\"3B\",\"C1\",\"J\",\"38\"
\"\",\"\",\"approach-retreat\",\"42\",\"430384\",\"0.0-42.0\",\"\",\"\",\"3-2\",\"4660\",\"40\",\"1\",\"Training\",\"Stims/Figures/85-C-20-2.bmp\",\"vashava\",\"Down\",\"40\",\"3\",\"7\",\"3B\",\"C1\",\"J\",\"39\"
\"\",\"\",\"approach-retreat\",\"43\",\"436484\",\"0.0-43.0\",\"\",\"\",\"3-2\",\"4598\",\"40\",\"1\",\"Training\",\"Stims/Figures/74-J-10-4.bmp\",\"sasaha\",\"Up\",\"40\",\"3\",\"8\",\"3B\",\"C2\",\"J\",\"40\"
\"\",\"\",\"approach-retreat\",\"44\",\"442858\",\"0.0-44.0\",\"\",\"\",\"3-2\",\"4868\",\"37\",\"1\",\"Training\",\"Stims/Figures/74-C-20-4.bmp\",\"vashava\",\"Left\",\"37\",\"3\",\"9\",\"3B\",\"C1\",\"J\",\"41\"
\"\",\"\",\"approach-retreat\",\"45\",\"448992\",\"0.0-45.0\",\"\",\"\",\"3-2\",\"4628\",\"38\",\"1\",\"Training\",\"Stims/Figures/128-J-10-3.bmp\",\"sasaha\",\"Down\",\"38\",\"3\",\"10\",\"3B\",\"C2\",\"J\",\"42\"
\"\",\"\",\"approach-retreat\",\"46\",\"455172\",\"0.0-46.0\",\"\",\"\",\"3-2\",\"4672\",\"39\",\"1\",\"Training\",\"Stims/Figures/128-C-30-3.bmp\",\"vashava\",\"Right\",\"39\",\"3\",\"11\",\"3B\",\"C1\",\"J\",\"43\"
\"\",\"\",\"approach-retreat\",\"47\",\"461088\",\"0.0-47.0\",\"\",\"\",\"3-2\",\"4412\",\"39\",\"1\",\"Training\",\"Stims/Figures/87-C-20-4.bmp\",\"vashava\",\"Right\",\"39\",\"3\",\"12\",\"3B\",\"C1\",\"J\",\"44\"
\"\",\"\",\"approach-retreat\",\"48\",\"466746\",\"0.0-48.0\",\"\",\"\",\"3-2\",\"4150\",\"37\",\"1\",\"Training\",\"Stims/Figures/71-C-30-1.bmp\",\"vashava\",\"Left\",\"37\",\"3\",\"13\",\"3B\",\"C1\",\"J\",\"45\"
\"\",\"\",\"approach-retreat\",\"49\",\"472492\",\"0.0-49.0\",\"\",\"\",\"3-2\",\"4240\",\"37\",\"1\",\"Training\",\"Stims/Figures/93-C-30-1.bmp\",\"vashava\",\"Left\",\"37\",\"3\",\"14\",\"3B\",\"C1\",\"J\",\"46\"
\"\",\"\",\"approach-retreat\",\"50\",\"478144\",\"0.0-50.0\",\"\",\"\",\"3-2\",\"4144\",\"38\",\"1\",\"Training\",\"Stims/Figures/93-J-0-1.bmp\",\"sasaha\",\"Down\",\"38\",\"3\",\"15\",\"3B\",\"C2\",\"J\",\"47\"
\"\",\"\",\"approach-retreat\",\"51\",\"483708\",\"0.0-51.0\",\"\",\"\",\"3-2\",\"4056\",\"40\",\"1\",\"Training\",\"Stims/Figures/71-J-0-1.bmp\",\"sasaha\",\"Up\",\"40\",\"3\",\"16\",\"3B\",\"C2\",\"J\",\"48\"
\"\",\"\",\"approach-retreat\",\"52\",\"489462\",\"0.0-52.0\",\"\",\"\",\"3-2\",\"4250\",\"39\",\"1\",\"Training\",\"Stims/Figures/44-C-30-3.bmp\",\"vashava\",\"Right\",\"39\",\"4\",\"1\",\"3B\",\"C1\",\"J\",\"49\"
\"\",\"\",\"approach-retreat\",\"53\",\"495136\",\"0.0-53.0\",\"\",\"\",\"3-2\",\"4170\",\"38\",\"1\",\"Training\",\"Stims/Figures/93-C-30-1.bmp\",\"vashava\",\"Up\",\"38\",\"4\",\"2\",\"3B\",\"C1\",\"J\",\"50\"
\"\",\"\",\"approach-retreat\",\"54\",\"500754\",\"0.0-54.0\",\"\",\"\",\"3-2\",\"4114\",\"40\",\"1\",\"Training\",\"Stims/Figures/71-J-0-1.bmp\",\"sasaha\",\"Up\",\"40\",\"4\",\"3\",\"3B\",\"C2\",\"J\",\"51\"
\"\",\"\",\"approach-retreat\",\"55\",\"506272\",\"0.0-55.0\",\"\",\"\",\"3-2\",\"4014\",\"39\",\"1\",\"Training\",\"Stims/Figures/118-J-0-2.bmp\",\"sasaha\",\"Left\",\"39\",\"4\",\"4\",\"3B\",\"C2\",\"J\",\"52\"
\"\",\"\",\"approach-retreat\",\"56\",\"511872\",\"0.0-56.0\",\"\",\"\",\"3-2\",\"4096\",\"40\",\"1\",\"Training\",\"Stims/Figures/93-J-0-1.bmp\",\"sasaha\",\"Up\",\"40\",\"4\",\"5\",\"3B\",\"C2\",\"J\",\"53\"
\"\",\"\",\"approach-retreat\",\"57\",\"517468\",\"0.0-57.0\",\"\",\"\",\"3-2\",\"4090\",\"37\",\"1\",\"Training\",\"Stims/Figures/87-C-20-4.bmp\",\"vashava\",\"Left\",\"37\",\"4\",\"6\",\"3B\",\"C1\",\"J\",\"54\"
\"\",\"\",\"approach-retreat\",\"58\",\"523034\",\"0.0-58.0\",\"\",\"\",\"3-2\",\"4058\",\"38\",\"1\",\"Training\",\"Stims/Figures/74-C-20-4.bmp\",\"vashava\",\"Up\",\"38\",\"4\",\"7\",\"3B\",\"C1\",\"J\",\"55\"
\"\",\"\",\"approach-retreat\",\"59\",\"528668\",\"0.0-59.0\",\"\",\"\",\"3-2\",\"4128\",\"40\",\"1\",\"Training\",\"Stims/Figures/118-C-20-2.bmp\",\"vashava\",\"Down\",\"40\",\"4\",\"8\",\"3B\",\"C1\",\"J\",\"56\"
\"\",\"\",\"approach-retreat\",\"60\",\"534224\",\"0.0-60.0\",\"\",\"\",\"3-2\",\"4050\",\"40\",\"1\",\"Training\",\"Stims/Figures/85-C-20-2.bmp\",\"vashava\",\"Down\",\"40\",\"4\",\"9\",\"3B\",\"C1\",\"J\",\"57\"
\"\",\"\",\"approach-retreat\",\"61\",\"539722\",\"0.0-61.0\",\"\",\"\",\"3-2\",\"3992\",\"39\",\"1\",\"Training\",\"Stims/Figures/44-J-10-3.bmp\",\"sasaha\",\"Left\",\"39\",\"4\",\"10\",\"3B\",\"C2\",\"J\",\"58\"
\"\",\"\",\"approach-retreat\",\"62\",\"545384\",\"0.0-62.0\",\"\",\"\",\"3-2\",\"4156\",\"39\",\"1\",\"Training\",\"Stims/Figures/128-C-30-3.bmp\",\"vashava\",\"Right\",\"39\",\"4\",\"11\",\"3B\",\"C1\",\"J\",\"59\"
\"\",\"\",\"approach-retreat\",\"63\",\"551480\",\"0.0-63.0\",\"\",\"\",\"3-2\",\"4592\",\"37\",\"1\",\"Training\",\"Stims/Figures/87-J-10-4.bmp\",\"sasaha\",\"Right\",\"37\",\"4\",\"12\",\"3B\",\"C2\",\"J\",\"60\"
\"\",\"\",\"approach-retreat\",\"64\",\"557038\",\"0.0-64.0\",\"\",\"\",\"3-2\",\"4050\",\"38\",\"1\",\"Training\",\"Stims/Figures/128-J-10-3.bmp\",\"sasaha\",\"Down\",\"38\",\"4\",\"13\",\"3B\",\"C2\",\"J\",\"61\"
\"\",\"\",\"approach-retreat\",\"65\",\"562746\",\"0.0-65.0\",\"\",\"\",\"3-2\",\"4202\",\"39\",\"1\",\"Training\",\"Stims/Figures/71-C-30-1.bmp\",\"vashava\",\"Right\",\"39\",\"4\",\"14\",\"3B\",\"C1\",\"J\",\"62\"
\"\",\"\",\"approach-retreat\",\"66\",\"568334\",\"0.0-66.0\",\"\",\"\",\"3-2\",\"4082\",\"39\",\"1\",\"Training\",\"Stims/Figures/74-J-10-4.bmp\",\"sasaha\",\"Left\",\"39\",\"4\",\"15\",\"3B\",\"C2\",\"J\",\"63\"
\"\",\"\",\"approach-retreat\",\"67\",\"573946\",\"0.0-67.0\",\"\",\"\",\"3-2\",\"4108\",\"38\",\"1\",\"Training\",\"Stims/Figures/85-J-0-2.bmp\",\"sasaha\",\"Down\",\"38\",\"4\",\"16\",\"3B\",\"C2\",\"J\",\"64\"
\"\",\"\",\"approach-retreat\",\"68\",\"579736\",\"0.0-68.0\",\"\",\"\",\"3-2\",\"4284\",\"39\",\"1\",\"Training\",\"Stims/Figures/44-C-30-3.bmp\",\"vashava\",\"Right\",\"39\",\"5\",\"1\",\"3B\",\"C1\",\"J\",\"65\"
\"\",\"\",\"approach-retreat\",\"69\",\"586030\",\"0.0-69.0\",\"\",\"\",\"3-2\",\"4786\",\"40\",\"1\",\"Training\",\"Stims/Figures/93-J-0-1.bmp\",\"sasaha\",\"Up\",\"40\",\"5\",\"2\",\"3B\",\"C2\",\"J\",\"66\"
\"\",\"\",\"approach-retreat\",\"70\",\"591588\",\"0.0-70.0\",\"\",\"\",\"3-2\",\"4052\",\"39\",\"1\",\"Training\",\"Stims/Figures/44-J-10-3.bmp\",\"sasaha\",\"Left\",\"39\",\"5\",\"3\",\"3B\",\"C2\",\"J\",\"67\"
\"\",\"\",\"approach-retreat\",\"71\",\"597224\",\"0.0-71.0\",\"\",\"\",\"3-2\",\"4132\",\"40\",\"1\",\"Training\",\"Stims/Figures/118-J-0-2.bmp\",\"sasaha\",\"Up\",\"40\",\"5\",\"4\",\"3B\",\"C2\",\"J\",\"68\"
\"\",\"\",\"approach-retreat\",\"72\",\"603182\",\"0.0-72.0\",\"\",\"\",\"3-2\",\"4450\",\"38\",\"1\",\"Training\",\"Stims/Figures/74-J-10-4.bmp\",\"sasaha\",\"Down\",\"38\",\"5\",\"5\",\"3B\",\"C2\",\"J\",\"69\"
\"\",\"\",\"approach-retreat\",\"73\",\"608778\",\"0.0-73.0\",\"\",\"\",\"3-2\",\"4088\",\"39\",\"1\",\"Training\",\"Stims/Figures/128-C-30-3.bmp\",\"vashava\",\"Right\",\"39\",\"5\",\"6\",\"3B\",\"C1\",\"J\",\"70\"
\"\",\"\",\"approach-retreat\",\"74\",\"614716\",\"0.0-74.0\",\"\",\"\",\"3-2\",\"4432\",\"40\",\"1\",\"Training\",\"Stims/Figures/118-C-20-2.bmp\",\"vashava\",\"Down\",\"40\",\"5\",\"7\",\"3B\",\"C1\",\"J\",\"71\"
\"\",\"\",\"approach-retreat\",\"75\",\"620310\",\"0.0-75.0\",\"\",\"\",\"3-2\",\"4088\",\"39\",\"1\",\"Training\",\"Stims/Figures/128-J-10-3.bmp\",\"sasaha\",\"Left\",\"39\",\"5\",\"8\",\"3B\",\"C2\",\"J\",\"72\"
\"\",\"\",\"approach-retreat\",\"76\",\"626036\",\"0.0-76.0\",\"\",\"\",\"3-2\",\"4222\",\"39\",\"1\",\"Training\",\"Stims/Figures/93-C-30-1.bmp\",\"vashava\",\"Right\",\"39\",\"5\",\"9\",\"3B\",\"C1\",\"J\",\"73\"
\"\",\"\",\"approach-retreat\",\"77\",\"631686\",\"0.0-77.0\",\"\",\"\",\"3-2\",\"4144\",\"39\",\"1\",\"Training\",\"Stims/Figures/85-C-20-2.bmp\",\"vashava\",\"Right\",\"39\",\"5\",\"10\",\"3B\",\"C1\",\"J\",\"74\"
\"\",\"\",\"approach-retreat\",\"78\",\"637326\",\"0.0-78.0\",\"\",\"\",\"3-2\",\"4134\",\"38\",\"1\",\"Training\",\"Stims/Figures/87-C-20-4.bmp\",\"vashava\",\"Up\",\"38\",\"5\",\"11\",\"3B\",\"C1\",\"J\",\"75\"
\"\",\"\",\"approach-retreat\",\"79\",\"643542\",\"0.0-79.0\",\"\",\"\",\"3-2\",\"4710\",\"38\",\"1\",\"Training\",\"Stims/Figures/87-J-10-4.bmp\",\"sasaha\",\"Down\",\"38\",\"5\",\"12\",\"3B\",\"C2\",\"J\",\"76\"
\"\",\"\",\"approach-retreat\",\"80\",\"649786\",\"0.0-80.0\",\"\",\"\",\"3-2\",\"4738\",\"39\",\"1\",\"Training\",\"Stims/Figures/71-J-0-1.bmp\",\"sasaha\",\"Left\",\"39\",\"5\",\"13\",\"3B\",\"C2\",\"J\",\"77\"
\"\",\"\",\"approach-retreat\",\"81\",\"655664\",\"0.0-81.0\",\"\",\"\",\"3-2\",\"4372\",\"38\",\"0\",\"Training\",\"Stims/Figures/74-C-20-4.bmp\",\"vashava\",\"Down\",\"40\",\"5\",\"14\",\"3B\",\"C1\",\"J\",\"78\"
\"\",\"\",\"approach-retreat\",\"82\",\"661438\",\"0.0-82.0\",\"\",\"\",\"3-2\",\"4266\",\"38\",\"1\",\"Training\",\"Stims/Figures/71-C-30-1.bmp\",\"vashava\",\"Up\",\"38\",\"5\",\"15\",\"3B\",\"C1\",\"J\",\"79\"
\"\",\"\",\"approach-retreat\",\"83\",\"667246\",\"0.0-83.0\",\"\",\"\",\"3-2\",\"4304\",\"39\",\"1\",\"Training\",\"Stims/Figures/85-J-0-2.bmp\",\"sasaha\",\"Left\",\"39\",\"5\",\"16\",\"3B\",\"C2\",\"J\",\"80\"
\"\",\"\",\"approach-retreat\",\"84\",\"673560\",\"0.0-84.0\",\"\",\"\",\"3-2\",\"4808\",\"40\",\"1\",\"Training\",\"Stims/Figures/128-J-10-3.bmp\",\"sasaha\",\"Up\",\"40\",\"6\",\"1\",\"3B\",\"C2\",\"J\",\"81\"
\"\",\"\",\"approach-retreat\",\"85\",\"679148\",\"0.0-85.0\",\"\",\"\",\"3-2\",\"4084\",\"39\",\"1\",\"Training\",\"Stims/Figures/85-J-0-2.bmp\",\"sasaha\",\"Left\",\"39\",\"6\",\"2\",\"3B\",\"C2\",\"J\",\"82\"
\"\",\"\",\"approach-retreat\",\"86\",\"685358\",\"0.0-86.0\",\"\",\"\",\"3-2\",\"4706\",\"38\",\"1\",\"Training\",\"Stims/Figures/44-J-10-3.bmp\",\"sasaha\",\"Down\",\"38\",\"6\",\"3\",\"3B\",\"C2\",\"J\",\"83\"
\"\",\"\",\"approach-retreat\",\"87\",\"690990\",\"0.0-87.0\",\"\",\"\",\"3-2\",\"4124\",\"40\",\"1\",\"Training\",\"Stims/Figures/93-J-0-1.bmp\",\"sasaha\",\"Up\",\"40\",\"6\",\"4\",\"3B\",\"C2\",\"J\",\"84\"
\"\",\"\",\"approach-retreat\",\"88\",\"697036\",\"0.0-88.0\",\"\",\"\",\"3-2\",\"4536\",\"38\",\"1\",\"Training\",\"Stims/Figures/87-C-20-4.bmp\",\"vashava\",\"Up\",\"38\",\"6\",\"5\",\"3B\",\"C1\",\"J\",\"85\"
\"\",\"\",\"approach-retreat\",\"89\",\"702944\",\"0.0-89.0\",\"\",\"\",\"3-2\",\"4402\",\"40\",\"0\",\"Training\",\"Stims/Figures/128-C-30-3.bmp\",\"vashava\",\"Up\",\"38\",\"6\",\"6\",\"3B\",\"C1\",\"J\",\"86\"
\"\",\"\",\"approach-retreat\",\"90\",\"709092\",\"0.0-90.0\",\"\",\"\",\"3-2\",\"4642\",\"40\",\"1\",\"Training\",\"Stims/Figures/44-C-30-3.bmp\",\"vashava\",\"Down\",\"40\",\"6\",\"7\",\"3B\",\"C1\",\"J\",\"87\"
\"\",\"\",\"approach-retreat\",\"91\",\"715272\",\"0.0-91.0\",\"\",\"\",\"3-2\",\"4678\",\"39\",\"1\",\"Training\",\"Stims/Figures/93-C-30-1.bmp\",\"vashava\",\"Right\",\"39\",\"6\",\"8\",\"3B\",\"C1\",\"J\",\"88\"
\"\",\"\",\"approach-retreat\",\"92\",\"721478\",\"0.0-92.0\",\"\",\"\",\"3-2\",\"4700\",\"38\",\"1\",\"Training\",\"Stims/Figures/87-J-10-4.bmp\",\"sasaha\",\"Down\",\"38\",\"6\",\"9\",\"3B\",\"C2\",\"J\",\"89\"
\"\",\"\",\"approach-retreat\",\"93\",\"727324\",\"0.0-93.0\",\"\",\"\",\"3-2\",\"4344\",\"40\",\"1\",\"Training\",\"Stims/Figures/85-C-20-2.bmp\",\"vashava\",\"Down\",\"40\",\"6\",\"10\",\"3B\",\"C1\",\"J\",\"90\"
\"\",\"\",\"approach-retreat\",\"94\",\"733114\",\"0.0-94.0\",\"\",\"\",\"3-2\",\"4284\",\"37\",\"1\",\"Training\",\"Stims/Figures/71-C-30-1.bmp\",\"vashava\",\"Left\",\"37\",\"6\",\"11\",\"3B\",\"C1\",\"J\",\"91\"
\"\",\"\",\"approach-retreat\",\"95\",\"738746\",\"0.0-95.0\",\"\",\"\",\"3-2\",\"4126\",\"37\",\"1\",\"Training\",\"Stims/Figures/118-J-0-2.bmp\",\"sasaha\",\"Right\",\"37\",\"6\",\"12\",\"3B\",\"C2\",\"J\",\"92\"
\"\",\"\",\"approach-retreat\",\"96\",\"745128\",\"0.0-96.0\",\"\",\"\",\"3-2\",\"4878\",\"39\",\"1\",\"Training\",\"Stims/Figures/71-J-0-1.bmp\",\"sasaha\",\"Left\",\"39\",\"6\",\"13\",\"3B\",\"C2\",\"J\",\"93\"
\"\",\"\",\"approach-retreat\",\"97\",\"751486\",\"0.0-97.0\",\"\",\"\",\"3-2\",\"4852\",\"39\",\"1\",\"Training\",\"Stims/Figures/74-C-20-4.bmp\",\"vashava\",\"Right\",\"39\",\"6\",\"14\",\"3B\",\"C1\",\"J\",\"94\"
\"\",\"\",\"approach-retreat\",\"98\",\"757032\",\"0.0-98.0\",\"\",\"\",\"3-2\",\"4042\",\"37\",\"1\",\"Training\",\"Stims/Figures/74-J-10-4.bmp\",\"sasaha\",\"Right\",\"37\",\"6\",\"15\",\"3B\",\"C2\",\"J\",\"95\"
\"\",\"\",\"approach-retreat\",\"99\",\"763168\",\"0.0-99.0\",\"\",\"\",\"3-2\",\"4630\",\"37\",\"1\",\"Training\",\"Stims/Figures/118-C-20-2.bmp\",\"vashava\",\"Left\",\"37\",\"6\",\"16\",\"3B\",\"C1\",\"J\",\"96\"
\"\",\"\",\"approach-retreat\",\"100\",\"768806\",\"0.0-100.0\",\"\",\"\",\"3-2\",\"4136\",\"37\",\"1\",\"Training\",\"Stims/Figures/128-C-30-3.bmp\",\"vashava\",\"Left\",\"37\",\"7\",\"1\",\"3B\",\"C1\",\"J\",\"97\"
\"\",\"\",\"approach-retreat\",\"101\",\"774454\",\"0.0-101.0\",\"\",\"\",\"3-2\",\"4144\",\"38\",\"1\",\"Training\",\"Stims/Figures/85-J-0-2.bmp\",\"sasaha\",\"Down\",\"38\",\"7\",\"2\",\"3B\",\"C2\",\"J\",\"98\"
\"\",\"\",\"approach-retreat\",\"102\",\"780044\",\"0.0-102.0\",\"\",\"\",\"3-2\",\"4086\",\"39\",\"1\",\"Training\",\"Stims/Figures/71-C-30-1.bmp\",\"vashava\",\"Right\",\"39\",\"7\",\"3\",\"3B\",\"C1\",\"J\",\"99\"
\"\",\"\",\"approach-retreat\",\"103\",\"786114\",\"0.0-103.0\",\"\",\"\",\"3-2\",\"4564\",\"38\",\"1\",\"Training\",\"Stims/Figures/44-C-30-3.bmp\",\"vashava\",\"Up\",\"38\",\"7\",\"4\",\"3B\",\"C1\",\"J\",\"100\"
\"\",\"\",\"approach-retreat\",\"104\",\"792310\",\"0.0-104.0\",\"\",\"\",\"3-2\",\"4686\",\"39\",\"0\",\"Training\",\"Stims/Figures/87-J-10-4.bmp\",\"sasaha\",\"Right\",\"37\",\"7\",\"5\",\"3B\",\"C2\",\"J\",\"101\"
\"\",\"\",\"approach-retreat\",\"105\",\"798026\",\"0.0-105.0\",\"\",\"\",\"3-2\",\"4212\",\"37\",\"1\",\"Training\",\"Stims/Figures/44-J-10-3.bmp\",\"sasaha\",\"Right\",\"37\",\"7\",\"6\",\"3B\",\"C2\",\"J\",\"102\"
\"\",\"\",\"approach-retreat\",\"106\",\"803526\",\"0.0-106.0\",\"\",\"\",\"3-2\",\"3992\",\"37\",\"1\",\"Training\",\"Stims/Figures/74-C-20-4.bmp\",\"vashava\",\"Left\",\"37\",\"7\",\"7\",\"3B\",\"C1\",\"J\",\"103\"
\"\",\"\",\"approach-retreat\",\"107\",\"809548\",\"0.0-107.0\",\"\",\"\",\"3-2\",\"4518\",\"37\",\"1\",\"Training\",\"Stims/Figures/128-J-10-3.bmp\",\"sasaha\",\"Right\",\"37\",\"7\",\"8\",\"3B\",\"C2\",\"J\",\"104\"
\"\",\"\",\"approach-retreat\",\"108\",\"815726\",\"0.0-108.0\",\"\",\"\",\"3-2\",\"4676\",\"38\",\"1\",\"Training\",\"Stims/Figures/118-C-20-2.bmp\",\"vashava\",\"Up\",\"38\",\"7\",\"9\",\"3B\",\"C1\",\"J\",\"105\"
\"\",\"\",\"approach-retreat\",\"109\",\"821662\",\"0.0-109.0\",\"\",\"\",\"3-2\",\"4428\",\"38\",\"1\",\"Training\",\"Stims/Figures/85-C-20-2.bmp\",\"vashava\",\"Up\",\"38\",\"7\",\"10\",\"3B\",\"C1\",\"J\",\"106\"
\"\",\"\",\"approach-retreat\",\"110\",\"827826\",\"0.0-110.0\",\"\",\"\",\"3-2\",\"4658\",\"38\",\"1\",\"Training\",\"Stims/Figures/71-J-0-1.bmp\",\"sasaha\",\"Down\",\"38\",\"7\",\"11\",\"3B\",\"C2\",\"J\",\"107\"
\"\",\"\",\"approach-retreat\",\"111\",\"833530\",\"0.0-111.0\",\"\",\"\",\"3-2\",\"4200\",\"38\",\"1\",\"Training\",\"Stims/Figures/93-J-0-1.bmp\",\"sasaha\",\"Down\",\"38\",\"7\",\"12\",\"3B\",\"C2\",\"J\",\"108\"
\"\",\"\",\"approach-retreat\",\"112\",\"839342\",\"0.0-112.0\",\"\",\"\",\"3-2\",\"4306\",\"38\",\"1\",\"Training\",\"Stims/Figures/93-C-30-1.bmp\",\"vashava\",\"Up\",\"38\",\"7\",\"13\",\"3B\",\"C1\",\"J\",\"109\"
\"\",\"\",\"approach-retreat\",\"113\",\"845012\",\"0.0-113.0\",\"\",\"\",\"3-2\",\"4164\",\"37\",\"1\",\"Training\",\"Stims/Figures/87-C-20-4.bmp\",\"vashava\",\"Left\",\"37\",\"7\",\"14\",\"3B\",\"C1\",\"J\",\"110\"
\"\",\"\",\"approach-retreat\",\"114\",\"850634\",\"0.0-114.0\",\"\",\"\",\"3-2\",\"4118\",\"38\",\"1\",\"Training\",\"Stims/Figures/74-J-10-4.bmp\",\"sasaha\",\"Down\",\"38\",\"7\",\"15\",\"3B\",\"C2\",\"J\",\"111\"
\"\",\"\",\"approach-retreat\",\"115\",\"856194\",\"0.0-115.0\",\"\",\"\",\"3-2\",\"4056\",\"39\",\"1\",\"Training\",\"Stims/Figures/118-J-0-2.bmp\",\"sasaha\",\"Left\",\"39\",\"7\",\"16\",\"3B\",\"C2\",\"J\",\"112\"
\"\",\"\",\"approach-retreat\",\"116\",\"862312\",\"0.0-116.0\",\"\",\"\",\"3-2\",\"4610\",\"40\",\"1\",\"Training\",\"Stims/Figures/44-C-30-3.bmp\",\"vashava\",\"Down\",\"40\",\"8\",\"1\",\"3B\",\"C1\",\"J\",\"113\"
\"\",\"\",\"approach-retreat\",\"117\",\"868252\",\"0.0-117.0\",\"\",\"\",\"3-2\",\"4436\",\"39\",\"1\",\"Training\",\"Stims/Figures/128-J-10-3.bmp\",\"sasaha\",\"Left\",\"39\",\"8\",\"2\",\"3B\",\"C2\",\"J\",\"114\"
\"\",\"\",\"approach-retreat\",\"118\",\"875744\",\"0.0-118.0\",\"\",\"\",\"3-2\",\"5988\",\"38\",\"1\",\"Training\",\"Stims/Figures/118-C-20-2.bmp\",\"vashava\",\"Up\",\"38\",\"8\",\"3\",\"3B\",\"C1\",\"J\",\"115\"
\"\",\"\",\"approach-retreat\",\"119\",\"881328\",\"0.0-119.0\",\"\",\"\",\"3-2\",\"4080\",\"39\",\"1\",\"Training\",\"Stims/Figures/87-J-10-4.bmp\",\"sasaha\",\"Left\",\"39\",\"8\",\"4\",\"3B\",\"C2\",\"J\",\"116\"
\"\",\"\",\"approach-retreat\",\"120\",\"887090\",\"0.0-120.0\",\"\",\"\",\"3-2\",\"4256\",\"40\",\"1\",\"Training\",\"Stims/Figures/74-C-20-4.bmp\",\"vashava\",\"Down\",\"40\",\"8\",\"5\",\"3B\",\"C1\",\"J\",\"117\"
\"\",\"\",\"approach-retreat\",\"121\",\"893192\",\"0.0-121.0\",\"\",\"\",\"3-2\",\"4596\",\"37\",\"1\",\"Training\",\"Stims/Figures/71-J-0-1.bmp\",\"sasaha\",\"Right\",\"37\",\"8\",\"6\",\"3B\",\"C2\",\"J\",\"118\"
\"\",\"\",\"approach-retreat\",\"122\",\"899110\",\"0.0-122.0\",\"\",\"\",\"3-2\",\"4414\",\"38\",\"1\",\"Training\",\"Stims/Figures/85-C-20-2.bmp\",\"vashava\",\"Up\",\"38\",\"8\",\"7\",\"3B\",\"C1\",\"J\",\"119\"
\"\",\"\",\"approach-retreat\",\"123\",\"905436\",\"0.0-123.0\",\"\",\"\",\"3-2\",\"4820\",\"40\",\"1\",\"Training\",\"Stims/Figures/74-J-10-4.bmp\",\"sasaha\",\"Up\",\"40\",\"8\",\"8\",\"3B\",\"C2\",\"J\",\"120\"
\"\",\"\",\"approach-retreat\",\"124\",\"911260\",\"0.0-124.0\",\"\",\"\",\"3-2\",\"4318\",\"37\",\"1\",\"Training\",\"Stims/Figures/93-C-30-1.bmp\",\"vashava\",\"Left\",\"37\",\"8\",\"9\",\"3B\",\"C1\",\"J\",\"121\"
\"\",\"\",\"approach-retreat\",\"125\",\"916836\",\"0.0-125.0\",\"\",\"\",\"3-2\",\"4072\",\"38\",\"1\",\"Training\",\"Stims/Figures/85-J-0-2.bmp\",\"sasaha\",\"Down\",\"38\",\"8\",\"10\",\"3B\",\"C2\",\"J\",\"122\"
\"\",\"\",\"approach-retreat\",\"126\",\"922644\",\"0.0-126.0\",\"\",\"\",\"3-2\",\"4304\",\"39\",\"1\",\"Training\",\"Stims/Figures/118-J-0-2.bmp\",\"sasaha\",\"Left\",\"39\",\"8\",\"11\",\"3B\",\"C2\",\"J\",\"123\"
\"\",\"\",\"approach-retreat\",\"127\",\"928768\",\"0.0-127.0\",\"\",\"\",\"3-2\",\"4620\",\"37\",\"1\",\"Training\",\"Stims/Figures/44-J-10-3.bmp\",\"sasaha\",\"Right\",\"37\",\"8\",\"12\",\"3B\",\"C2\",\"J\",\"124\"
\"\",\"\",\"approach-retreat\",\"128\",\"934724\",\"0.0-128.0\",\"\",\"\",\"3-2\",\"4452\",\"39\",\"1\",\"Training\",\"Stims/Figures/87-C-20-4.bmp\",\"vashava\",\"Right\",\"39\",\"8\",\"13\",\"3B\",\"C1\",\"J\",\"125\"
\"\",\"\",\"approach-retreat\",\"129\",\"941228\",\"0.0-129.0\",\"\",\"\",\"3-2\",\"4998\",\"40\",\"1\",\"Training\",\"Stims/Figures/128-C-30-3.bmp\",\"vashava\",\"Down\",\"40\",\"8\",\"14\",\"3B\",\"C1\",\"J\",\"126\"
\"\",\"\",\"approach-retreat\",\"130\",\"947004\",\"0.0-130.0\",\"\",\"\",\"3-2\",\"4274\",\"40\",\"1\",\"Training\",\"Stims/Figures/93-J-0-1.bmp\",\"sasaha\",\"Up\",\"40\",\"8\",\"15\",\"3B\",\"C2\",\"J\",\"127\"
\"\",\"\",\"approach-retreat\",\"131\",\"952986\",\"0.0-131.0\",\"\",\"\",\"3-2\",\"4478\",\"39\",\"1\",\"Training\",\"Stims/Figures/71-C-30-1.bmp\",\"vashava\",\"Right\",\"39\",\"8\",\"16\",\"3B\",\"C1\",\"J\",\"128\"
\"\",\"\",\"approach-retreat\",\"132\",\"958396\",\"0.0-132.0\",\"\",\"\",\"3-2\",\"3906\",\"39\",\"1\",\"Training\",\"Stims/Figures/44-J-10-3.bmp\",\"sasaha\",\"Left\",\"39\",\"9\",\"1\",\"3B\",\"C2\",\"J\",\"129\"
\"\",\"\",\"approach-retreat\",\"133\",\"964848\",\"0.0-133.0\",\"\",\"\",\"3-2\",\"4948\",\"38\",\"1\",\"Training\",\"Stims/Figures/85-C-20-2.bmp\",\"vashava\",\"Up\",\"38\",\"9\",\"2\",\"3B\",\"C1\",\"J\",\"130\"
\"\",\"\",\"approach-retreat\",\"134\",\"971180\",\"0.0-134.0\",\"\",\"\",\"3-2\",\"4828\",\"37\",\"1\",\"Training\",\"Stims/Figures/118-J-0-2.bmp\",\"sasaha\",\"Right\",\"37\",\"9\",\"3\",\"3B\",\"C2\",\"J\",\"131\"
\"\",\"\",\"approach-retreat\",\"135\",\"976854\",\"0.0-135.0\",\"\",\"\",\"3-2\",\"4172\",\"39\",\"1\",\"Training\",\"Stims/Figures/128-C-30-3.bmp\",\"vashava\",\"Right\",\"39\",\"9\",\"4\",\"3B\",\"C1\",\"J\",\"132\"
\"\",\"\",\"approach-retreat\",\"136\",\"982650\",\"0.0-136.0\",\"\",\"\",\"3-2\",\"4290\",\"37\",\"1\",\"Training\",\"Stims/Figures/44-C-30-3.bmp\",\"vashava\",\"Left\",\"37\",\"9\",\"5\",\"3B\",\"C1\",\"J\",\"133\"
\"\",\"\",\"approach-retreat\",\"137\",\"988274\",\"0.0-137.0\",\"\",\"\",\"3-2\",\"4122\",\"40\",\"1\",\"Training\",\"Stims/Figures/74-C-20-4.bmp\",\"vashava\",\"Down\",\"40\",\"9\",\"6\",\"3B\",\"C1\",\"J\",\"134\"
\"\",\"\",\"approach-retreat\",\"138\",\"994028\",\"0.0-138.0\",\"\",\"\",\"3-2\",\"4248\",\"39\",\"1\",\"Training\",\"Stims/Figures/93-C-30-1.bmp\",\"vashava\",\"Right\",\"39\",\"9\",\"7\",\"3B\",\"C1\",\"J\",\"135\"
\"\",\"\",\"approach-retreat\",\"139\",\"1000122\",\"0.0-139.0\",\"\",\"\",\"3-2\",\"4580\",\"40\",\"1\",\"Training\",\"Stims/Figures/128-J-10-3.bmp\",\"sasaha\",\"Up\",\"40\",\"9\",\"8\",\"3B\",\"C2\",\"J\",\"136\"
\"\",\"\",\"approach-retreat\",\"140\",\"1006336\",\"0.0-140.0\",\"\",\"\",\"3-2\",\"4704\",\"40\",\"1\",\"Training\",\"Stims/Figures/74-J-10-4.bmp\",\"sasaha\",\"Up\",\"40\",\"9\",\"9\",\"3B\",\"C2\",\"J\",\"137\"
\"\",\"\",\"approach-retreat\",\"141\",\"1012618\",\"0.0-141.0\",\"\",\"\",\"3-2\",\"4774\",\"40\",\"1\",\"Training\",\"Stims/Figures/71-C-30-1.bmp\",\"vashava\",\"Down\",\"40\",\"9\",\"10\",\"3B\",\"C1\",\"J\",\"138\"
\"\",\"\",\"approach-retreat\",\"142\",\"1018492\",\"0.0-142.0\",\"\",\"\",\"3-2\",\"4370\",\"37\",\"1\",\"Training\",\"Stims/Figures/71-J-0-1.bmp\",\"sasaha\",\"Right\",\"37\",\"9\",\"11\",\"3B\",\"C2\",\"J\",\"139\"
\"\",\"\",\"approach-retreat\",\"143\",\"1024200\",\"0.0-143.0\",\"\",\"\",\"3-2\",\"4206\",\"39\",\"1\",\"Training\",\"Stims/Figures/85-J-0-2.bmp\",\"sasaha\",\"Left\",\"39\",\"9\",\"12\",\"3B\",\"C2\",\"J\",\"140\"
\"\",\"\",\"approach-retreat\",\"144\",\"1029888\",\"0.0-144.0\",\"\",\"\",\"3-2\",\"4182\",\"38\",\"1\",\"Training\",\"Stims/Figures/118-C-20-2.bmp\",\"vashava\",\"Up\",\"38\",\"9\",\"13\",\"3B\",\"C1\",\"J\",\"141\"
\"\",\"\",\"approach-retreat\",\"145\",\"1035616\",\"0.0-145.0\",\"\",\"\",\"3-2\",\"4222\",\"38\",\"1\",\"Training\",\"Stims/Figures/93-J-0-1.bmp\",\"sasaha\",\"Down\",\"38\",\"9\",\"14\",\"3B\",\"C2\",\"J\",\"142\"
\"\",\"\",\"approach-retreat\",\"146\",\"1041966\",\"0.0-146.0\",\"\",\"\",\"3-2\",\"4846\",\"40\",\"1\",\"Training\",\"Stims/Figures/87-C-20-4.bmp\",\"vashava\",\"Down\",\"40\",\"9\",\"15\",\"3B\",\"C1\",\"J\",\"143\"
\"\",\"\",\"approach-retreat\",\"147\",\"1048574\",\"0.0-147.0\",\"\",\"\",\"3-2\",\"5104\",\"39\",\"1\",\"Training\",\"Stims/Figures/87-J-10-4.bmp\",\"sasaha\",\"Left\",\"39\",\"9\",\"16\",\"3B\",\"C2\",\"J\",\"144\"
\"28816\",\"\",\"instructions\",\"148\",\"1077390\",\"0.0-148.0\",\"[{\"\"page_index\"\":0,\"\"viewing_time\"\":28814}]\",\"\",\"\",\"\",\"\",\"\",\"\",\"\",\"\",\"\",\"\",\"\",\"\",\"\",\"\",\"\",\"\"
\"\",\"\",\"approach-retreat\",\"149\",\"1084748\",\"0.0-149.0\",\"\",\"\",\"3-2\",\"5842\",\"38\",\"1\",\"Testing\",\"Stims/Figures/7-C-20-4.bmp\",\"vashava\",\"Up\",\"38\",\"1\",\"1\",\"3B\",\"C1\",\"J\",\"1\"
\"\",\"\",\"approach-retreat\",\"150\",\"1091384\",\"0.0-150.0\",\"\",\"\",\"3-2\",\"5122\",\"37\",\"0\",\"Testing\",\"Stims/Figures/118-J-0-2.bmp\",\"sasaha\",\"Left\",\"39\",\"1\",\"2\",\"3B\",\"C2\",\"J\",\"2\"
\"\",\"\",\"approach-retreat\",\"151\",\"1097900\",\"0.0-151.0\",\"\",\"\",\"3-2\",\"5006\",\"39\",\"0\",\"Testing\",\"Stims/Figures/94-J-0-2.bmp\",\"sasaha\",\"Right\",\"37\",\"1\",\"3\",\"3B\",\"C2\",\"J\",\"3\"
\"\",\"\",\"approach-retreat\",\"152\",\"1106164\",\"0.0-152.0\",\"\",\"\",\"3-2\",\"6760\",\"38\",\"1\",\"Testing\",\"Stims/Figures/118-C-20-2.bmp\",\"vashava\",\"Up\",\"38\",\"1\",\"4\",\"3B\",\"C1\",\"J\",\"4\"
\"\",\"\",\"approach-retreat\",\"153\",\"1112138\",\"0.0-153.0\",\"\",\"\",\"3-2\",\"4468\",\"37\",\"0\",\"Testing\",\"Stims/Figures/74-C-20-4.bmp\",\"vashava\",\"Right\",\"39\",\"1\",\"5\",\"3B\",\"C1\",\"J\",\"5\"
\"\",\"\",\"approach-retreat\",\"154\",\"1118126\",\"0.0-154.0\",\"\",\"\",\"3-2\",\"4470\",\"38\",\"0\",\"Testing\",\"Stims/Figures/87-C-20-4.bmp\",\"vashava\",\"Down\",\"40\",\"1\",\"6\",\"3B\",\"C1\",\"J\",\"6\"
\"\",\"\",\"approach-retreat\",\"155\",\"1125064\",\"0.0-155.0\",\"\",\"\",\"3-2\",\"5422\",\"37\",\"1\",\"Testing\",\"Stims/Figures/94-C-20-2.bmp\",\"vashava\",\"Left\",\"37\",\"1\",\"7\",\"3B\",\"C1\",\"J\",\"7\"
\"\",\"\",\"approach-retreat\",\"156\",\"1130840\",\"0.0-156.0\",\"\",\"\",\"3-2\",\"4272\",\"40\",\"0\",\"Testing\",\"Stims/Figures/128-C-30-3.bmp\",\"vashava\",\"Up\",\"38\",\"1\",\"8\",\"3B\",\"C1\",\"J\",\"8\"
\"\",\"\",\"approach-retreat\",\"157\",\"1137256\",\"0.0-157.0\",\"\",\"\",\"3-2\",\"4902\",\"38\",\"1\",\"Testing\",\"Stims/Figures/85-J-0-2.bmp\",\"sasaha\",\"Down\",\"38\",\"1\",\"9\",\"3B\",\"C2\",\"J\",\"9\"
\"\",\"\",\"approach-retreat\",\"158\",\"1144546\",\"0.0-158.0\",\"\",\"\",\"3-2\",\"5772\",\"38\",\"1\",\"Testing\",\"Stims/Figures/85-C-20-2.bmp\",\"vashava\",\"Up\",\"38\",\"1\",\"10\",\"3B\",\"C1\",\"J\",\"10\"
\"\",\"\",\"approach-retreat\",\"159\",\"1150290\",\"0.0-159.0\",\"\",\"\",\"3-2\",\"4236\",\"38\",\"1\",\"Testing\",\"Stims/Figures/87-J-10-4.bmp\",\"sasaha\",\"Down\",\"38\",\"1\",\"11\",\"3B\",\"C2\",\"J\",\"11\"
\"\",\"\",\"approach-retreat\",\"160\",\"1160360\",\"0.0-160.0\",\"\",\"\",\"3-2\",\"8560\",\"39\",\"0\",\"Testing\",\"Stims/Figures/57-J-0-1.bmp\",\"sasaha\",\"Right\",\"37\",\"1\",\"12\",\"3B\",\"C2\",\"J\",\"12\"
\"\",\"\",\"approach-retreat\",\"161\",\"1166280\",\"0.0-161.0\",\"\",\"\",\"3-2\",\"4412\",\"37\",\"0\",\"Testing\",\"Stims/Figures/144-J-10-3.bmp\",\"sasaha\",\"Left\",\"39\",\"1\",\"13\",\"3B\",\"C2\",\"J\",\"13\"
\"\",\"\",\"approach-retreat\",\"162\",\"1173810\",\"0.0-162.0\",\"\",\"\",\"3-2\",\"6022\",\"39\",\"0\",\"Testing\",\"Stims/Figures/93-C-30-1.bmp\",\"vashava\",\"Left\",\"37\",\"1\",\"14\",\"3B\",\"C1\",\"J\",\"14\"
\"\",\"\",\"approach-retreat\",\"163\",\"1179506\",\"0.0-163.0\",\"\",\"\",\"3-2\",\"4182\",\"37\",\"1\",\"Testing\",\"Stims/Figures/71-J-0-1.bmp\",\"sasaha\",\"Right\",\"37\",\"1\",\"15\",\"3B\",\"C2\",\"J\",\"15\"
\"\",\"\",\"approach-retreat\",\"164\",\"1185206\",\"0.0-164.0\",\"\",\"\",\"3-2\",\"4194\",\"37\",\"0\",\"Testing\",\"Stims/Figures/7-J-10-4.bmp\",\"sasaha\",\"Left\",\"39\",\"1\",\"16\",\"3B\",\"C2\",\"J\",\"16\"
\"\",\"\",\"approach-retreat\",\"165\",\"1190994\",\"0.0-165.0\",\"\",\"\",\"3-2\",\"4270\",\"38\",\"1\",\"Testing\",\"Stims/Figures/128-J-10-3.bmp\",\"sasaha\",\"Down\",\"38\",\"1\",\"17\",\"3B\",\"C2\",\"J\",\"17\"
\"\",\"\",\"approach-retreat\",\"166\",\"1196958\",\"0.0-166.0\",\"\",\"\",\"3-2\",\"4454\",\"38\",\"0\",\"Testing\",\"Stims/Figures/44-C-30-3.bmp\",\"vashava\",\"Down\",\"40\",\"1\",\"18\",\"3B\",\"C1\",\"J\",\"18\"
\"\",\"\",\"approach-retreat\",\"167\",\"1202680\",\"0.0-167.0\",\"\",\"\",\"3-2\",\"4202\",\"40\",\"1\",\"Testing\",\"Stims/Figures/71-C-30-1.bmp\",\"vashava\",\"Down\",\"40\",\"1\",\"19\",\"3B\",\"C1\",\"J\",\"19\"
\"\",\"\",\"approach-retreat\",\"168\",\"1208534\",\"0.0-168.0\",\"\",\"\",\"3-2\",\"4348\",\"40\",\"1\",\"Testing\",\"Stims/Figures/44-J-10-3.bmp\",\"sasaha\",\"Up\",\"40\",\"1\",\"20\",\"3B\",\"C2\",\"J\",\"20\"
\"\",\"\",\"approach-retreat\",\"169\",\"1214480\",\"0.0-169.0\",\"\",\"\",\"3-2\",\"4434\",\"37\",\"1\",\"Testing\",\"Stims/Figures/93-J-0-1.bmp\",\"sasaha\",\"Right\",\"37\",\"1\",\"21\",\"3B\",\"C2\",\"J\",\"21\"
\"\",\"\",\"approach-retreat\",\"170\",\"1220236\",\"0.0-170.0\",\"\",\"\",\"3-2\",\"4248\",\"37\",\"1\",\"Testing\",\"Stims/Figures/144-C-30-3.bmp\",\"vashava\",\"Left\",\"37\",\"1\",\"22\",\"3B\",\"C1\",\"J\",\"22\"
\"\",\"\",\"approach-retreat\",\"171\",\"1226010\",\"0.0-171.0\",\"\",\"\",\"3-2\",\"4258\",\"40\",\"1\",\"Testing\",\"Stims/Figures/74-J-10-4.bmp\",\"sasaha\",\"Up\",\"40\",\"1\",\"23\",\"3B\",\"C2\",\"J\",\"23\"
\"\",\"\",\"approach-retreat\",\"172\",\"1232082\",\"0.0-172.0\",\"\",\"\",\"3-2\",\"4556\",\"39\",\"1\",\"Testing\",\"Stims/Figures/57-C-30-1.bmp\",\"vashava\",\"Right\",\"39\",\"1\",\"24\",\"3B\",\"C1\",\"J\",\"24\"
\"\",\"\",\"approach-retreat\",\"173\",\"1237810\",\"0.0-173.0\",\"\",\"\",\"3-2\",\"4212\",\"40\",\"1\",\"Testing\",\"Stims/Figures/94-C-20-2.bmp\",\"vashava\",\"Down\",\"40\",\"2\",\"1\",\"3B\",\"C1\",\"J\",\"25\"
\"\",\"\",\"approach-retreat\",\"174\",\"1243524\",\"0.0-174.0\",\"\",\"\",\"3-2\",\"4204\",\"40\",\"1\",\"Testing\",\"Stims/Figures/71-J-0-1.bmp\",\"sasaha\",\"Up\",\"40\",\"2\",\"2\",\"3B\",\"C2\",\"J\",\"26\"
\"\",\"\",\"approach-retreat\",\"175\",\"1249648\",\"0.0-175.0\",\"\",\"\",\"3-2\",\"4610\",\"37\",\"1\",\"Testing\",\"Stims/Figures/71-C-30-1.bmp\",\"vashava\",\"Left\",\"37\",\"2\",\"3\",\"3B\",\"C1\",\"J\",\"27\"
\"\",\"\",\"approach-retreat\",\"176\",\"1255290\",\"0.0-176.0\",\"\",\"\",\"3-2\",\"4128\",\"37\",\"1\",\"Testing\",\"Stims/Figures/93-J-0-1.bmp\",\"sasaha\",\"Right\",\"37\",\"2\",\"4\",\"3B\",\"C2\",\"J\",\"28\"
\"\",\"\",\"approach-retreat\",\"177\",\"1261584\",\"0.0-177.0\",\"\",\"\",\"3-2\",\"4780\",\"37\",\"1\",\"Testing\",\"Stims/Figures/44-J-10-3.bmp\",\"sasaha\",\"Right\",\"37\",\"2\",\"5\",\"3B\",\"C2\",\"J\",\"29\"
\"\",\"\",\"approach-retreat\",\"178\",\"1267174\",\"0.0-178.0\",\"\",\"\",\"3-2\",\"4078\",\"37\",\"1\",\"Testing\",\"Stims/Figures/128-J-10-3.bmp\",\"sasaha\",\"Right\",\"37\",\"2\",\"6\",\"3B\",\"C2\",\"J\",\"30\"
\"\",\"\",\"approach-retreat\",\"179\",\"1273306\",\"0.0-179.0\",\"\",\"\",\"3-2\",\"4616\",\"40\",\"0\",\"Testing\",\"Stims/Figures/85-C-20-2.bmp\",\"vashava\",\"Up\",\"38\",\"2\",\"7\",\"3B\",\"C1\",\"J\",\"31\"
\"\",\"\",\"approach-retreat\",\"180\",\"1278980\",\"0.0-180.0\",\"\",\"\",\"3-2\",\"4154\",\"37\",\"0\",\"Testing\",\"Stims/Figures/44-C-30-3.bmp\",\"vashava\",\"Right\",\"39\",\"2\",\"8\",\"3B\",\"C1\",\"J\",\"32\"
\"\",\"\",\"approach-retreat\",\"181\",\"1284830\",\"0.0-181.0\",\"\",\"\",\"3-2\",\"4324\",\"38\",\"0\",\"Testing\",\"Stims/Figures/57-C-30-1.bmp\",\"vashava\",\"Down\",\"40\",\"2\",\"9\",\"3B\",\"C1\",\"J\",\"33\"
\"\",\"\",\"approach-retreat\",\"182\",\"1290428\",\"0.0-182.0\",\"\",\"\",\"3-2\",\"4088\",\"37\",\"0\",\"Testing\",\"Stims/Figures/57-J-0-1.bmp\",\"sasaha\",\"Left\",\"39\",\"2\",\"10\",\"3B\",\"C2\",\"J\",\"34\"
\"\",\"\",\"approach-retreat\",\"183\",\"1296212\",\"0.0-183.0\",\"\",\"\",\"3-2\",\"4280\",\"39\",\"0\",\"Testing\",\"Stims/Figures/87-C-20-4.bmp\",\"vashava\",\"Left\",\"37\",\"2\",\"11\",\"3B\",\"C1\",\"J\",\"35\"
\"\",\"\",\"approach-retreat\",\"184\",\"1302040\",\"0.0-184.0\",\"\",\"\",\"3-2\",\"4316\",\"40\",\"0\",\"Testing\",\"Stims/Figures/144-J-10-3.bmp\",\"sasaha\",\"Down\",\"38\",\"2\",\"12\",\"3B\",\"C2\",\"J\",\"36\"
\"\",\"\",\"approach-retreat\",\"185\",\"1307590\",\"0.0-185.0\",\"\",\"\",\"3-2\",\"4036\",\"38\",\"1\",\"Testing\",\"Stims/Figures/85-J-0-2.bmp\",\"sasaha\",\"Down\",\"38\",\"2\",\"13\",\"3B\",\"C2\",\"J\",\"37\"
\"\",\"\",\"approach-retreat\",\"186\",\"1315280\",\"0.0-186.0\",\"\",\"\",\"3-2\",\"6182\",\"40\",\"0\",\"Testing\",\"Stims/Figures/74-C-20-4.bmp\",\"vashava\",\"Up\",\"38\",\"2\",\"14\",\"3B\",\"C1\",\"J\",\"38\"
\"\",\"\",\"approach-retreat\",\"187\",\"1321064\",\"0.0-187.0\",\"\",\"\",\"3-2\",\"4280\",\"38\",\"1\",\"Testing\",\"Stims/Figures/118-C-20-2.bmp\",\"vashava\",\"Up\",\"38\",\"2\",\"15\",\"3B\",\"C1\",\"J\",\"39\"
\"\",\"\",\"approach-retreat\",\"188\",\"1326814\",\"0.0-188.0\",\"\",\"\",\"3-2\",\"4242\",\"40\",\"1\",\"Testing\",\"Stims/Figures/7-C-20-4.bmp\",\"vashava\",\"Down\",\"40\",\"2\",\"16\",\"3B\",\"C1\",\"J\",\"40\"
\"\",\"\",\"approach-retreat\",\"189\",\"1332406\",\"0.0-189.0\",\"\",\"\",\"3-2\",\"4078\",\"37\",\"0\",\"Testing\",\"Stims/Figures/94-J-0-2.bmp\",\"sasaha\",\"Left\",\"39\",\"2\",\"17\",\"3B\",\"C2\",\"J\",\"41\"
\"\",\"\",\"approach-retreat\",\"190\",\"1339066\",\"0.0-190.0\",\"\",\"\",\"3-2\",\"5148\",\"40\",\"0\",\"Testing\",\"Stims/Figures/118-J-0-2.bmp\",\"sasaha\",\"Down\",\"38\",\"2\",\"18\",\"3B\",\"C2\",\"J\",\"42\"
\"\",\"\",\"approach-retreat\",\"191\",\"1344658\",\"0.0-191.0\",\"\",\"\",\"3-2\",\"4080\",\"39\",\"0\",\"Testing\",\"Stims/Figures/7-J-10-4.bmp\",\"sasaha\",\"Right\",\"37\",\"2\",\"19\",\"3B\",\"C2\",\"J\",\"43\"
\"\",\"\",\"approach-retreat\",\"192\",\"1350956\",\"0.0-192.0\",\"\",\"\",\"3-2\",\"4788\",\"39\",\"0\",\"Testing\",\"Stims/Figures/93-C-30-1.bmp\",\"vashava\",\"Left\",\"37\",\"2\",\"20\",\"3B\",\"C1\",\"J\",\"44\"
\"\",\"\",\"approach-retreat\",\"193\",\"1357464\",\"0.0-193.0\",\"\",\"\",\"3-2\",\"4994\",\"37\",\"0\",\"Testing\",\"Stims/Figures/74-J-10-4.bmp\",\"sasaha\",\"Left\",\"39\",\"2\",\"21\",\"3B\",\"C2\",\"J\",\"45\"
\"\",\"\",\"approach-retreat\",\"194\",\"1363132\",\"0.0-194.0\",\"\",\"\",\"3-2\",\"4162\",\"37\",\"0\",\"Testing\",\"Stims/Figures/128-C-30-3.bmp\",\"vashava\",\"Right\",\"39\",\"2\",\"22\",\"3B\",\"C1\",\"J\",\"46\"
\"\",\"\",\"approach-retreat\",\"195\",\"1368952\",\"0.0-195.0\",\"\",\"\",\"3-2\",\"4304\",\"38\",\"1\",\"Testing\",\"Stims/Figures/144-C-30-3.bmp\",\"vashava\",\"Up\",\"38\",\"2\",\"23\",\"3B\",\"C1\",\"J\",\"47\"
\"\",\"\",\"approach-retreat\",\"196\",\"1374590\",\"0.0-196.0\",\"\",\"\",\"3-2\",\"4122\",\"40\",\"1\",\"Testing\",\"Stims/Figures/87-J-10-4.bmp\",\"sasaha\",\"Up\",\"40\",\"2\",\"24\",\"3B\",\"C2\",\"J\",\"48\"
\"\",\"\",\"approach-retreat\",\"197\",\"1380294\",\"0.0-197.0\",\"\",\"\",\"3-2\",\"4198\",\"37\",\"1\",\"Testing\",\"Stims/Figures/118-C-20-2.bmp\",\"vashava\",\"Left\",\"37\",\"3\",\"1\",\"3B\",\"C1\",\"J\",\"49\"
\"\",\"\",\"approach-retreat\",\"198\",\"1386006\",\"0.0-198.0\",\"\",\"\",\"3-2\",\"4198\",\"38\",\"0\",\"Testing\",\"Stims/Figures/74-J-10-4.bmp\",\"sasaha\",\"Up\",\"40\",\"3\",\"2\",\"3B\",\"C2\",\"J\",\"50\"
\"\",\"\",\"approach-retreat\",\"199\",\"1391612\",\"0.0-199.0\",\"\",\"\",\"3-2\",\"4090\",\"38\",\"1\",\"Testing\",\"Stims/Figures/93-J-0-1.bmp\",\"sasaha\",\"Down\",\"38\",\"3\",\"3\",\"3B\",\"C2\",\"J\",\"51\"
\"\",\"\",\"approach-retreat\",\"200\",\"1401094\",\"0.0-200.0\",\"\",\"\",\"3-2\",\"7968\",\"37\",\"1\",\"Testing\",\"Stims/Figures/85-C-20-2.bmp\",\"vashava\",\"Left\",\"37\",\"3\",\"4\",\"3B\",\"C1\",\"J\",\"52\"
\"\",\"\",\"approach-retreat\",\"201\",\"1406858\",\"0.0-201.0\",\"\",\"\",\"3-2\",\"4248\",\"38\",\"0\",\"Testing\",\"Stims/Figures/7-J-10-4.bmp\",\"sasaha\",\"Up\",\"40\",\"3\",\"5\",\"3B\",\"C2\",\"J\",\"53\"
\"\",\"\",\"approach-retreat\",\"202\",\"1412472\",\"0.0-202.0\",\"\",\"\",\"3-2\",\"4104\",\"38\",\"0\",\"Testing\",\"Stims/Figures/87-C-20-4.bmp\",\"vashava\",\"Down\",\"40\",\"3\",\"6\",\"3B\",\"C1\",\"J\",\"54\"
\"\",\"\",\"approach-retreat\",\"203\",\"1418824\",\"0.0-203.0\",\"\",\"\",\"3-2\",\"4838\",\"39\",\"1\",\"Testing\",\"Stims/Figures/94-C-20-2.bmp\",\"vashava\",\"Right\",\"39\",\"3\",\"7\",\"3B\",\"C1\",\"J\",\"55\"
\"\",\"\",\"approach-retreat\",\"204\",\"1424680\",\"0.0-204.0\",\"\",\"\",\"3-2\",\"4336\",\"40\",\"0\",\"Testing\",\"Stims/Figures/93-C-30-1.bmp\",\"vashava\",\"Up\",\"38\",\"3\",\"8\",\"3B\",\"C1\",\"J\",\"56\"
\"\",\"\",\"approach-retreat\",\"205\",\"1431808\",\"0.0-205.0\",\"\",\"\",\"3-2\",\"5616\",\"40\",\"0\",\"Testing\",\"Stims/Figures/94-J-0-2.bmp\",\"sasaha\",\"Down\",\"38\",\"3\",\"9\",\"3B\",\"C2\",\"J\",\"57\"
\"\",\"\",\"approach-retreat\",\"206\",\"1437578\",\"0.0-206.0\",\"\",\"\",\"3-2\",\"4256\",\"37\",\"0\",\"Testing\",\"Stims/Figures/118-J-0-2.bmp\",\"sasaha\",\"Left\",\"39\",\"3\",\"10\",\"3B\",\"C2\",\"J\",\"58\"
\"\",\"\",\"approach-retreat\",\"207\",\"1443188\",\"0.0-207.0\",\"\",\"\",\"3-2\",\"4100\",\"38\",\"1\",\"Testing\",\"Stims/Figures/128-J-10-3.bmp\",\"sasaha\",\"Down\",\"38\",\"3\",\"11\",\"3B\",\"C2\",\"J\",\"59\"
\"\",\"\",\"approach-retreat\",\"208\",\"1448944\",\"0.0-208.0\",\"\",\"\",\"3-2\",\"4248\",\"39\",\"1\",\"Testing\",\"Stims/Figures/71-C-30-1.bmp\",\"vashava\",\"Right\",\"39\",\"3\",\"12\",\"3B\",\"C1\",\"J\",\"60\"
\"\",\"\",\"approach-retreat\",\"209\",\"1454674\",\"0.0-209.0\",\"\",\"\",\"3-2\",\"4220\",\"40\",\"1\",\"Testing\",\"Stims/Figures/87-J-10-4.bmp\",\"sasaha\",\"Up\",\"40\",\"3\",\"13\",\"3B\",\"C2\",\"J\",\"61\"
\"\",\"\",\"approach-retreat\",\"210\",\"1460408\",\"0.0-210.0\",\"\",\"\",\"3-2\",\"4220\",\"37\",\"1\",\"Testing\",\"Stims/Figures/44-J-10-3.bmp\",\"sasaha\",\"Right\",\"37\",\"3\",\"14\",\"3B\",\"C2\",\"J\",\"62\"
\"\",\"\",\"approach-retreat\",\"211\",\"1466116\",\"0.0-211.0\",\"\",\"\",\"3-2\",\"4188\",\"38\",\"0\",\"Testing\",\"Stims/Figures/57-J-0-1.bmp\",\"sasaha\",\"Up\",\"40\",\"3\",\"15\",\"3B\",\"C2\",\"J\",\"63\"
\"\",\"\",\"approach-retreat\",\"212\",\"1473126\",\"0.0-212.0\",\"\",\"\",\"3-2\",\"5494\",\"38\",\"0\",\"Testing\",\"Stims/Figures/44-C-30-3.bmp\",\"vashava\",\"Down\",\"40\",\"3\",\"16\",\"3B\",\"C1\",\"J\",\"64\"
\"\",\"\",\"approach-retreat\",\"213\",\"1479160\",\"0.0-213.0\",\"\",\"\",\"3-2\",\"4524\",\"37\",\"0\",\"Testing\",\"Stims/Figures/144-J-10-3.bmp\",\"sasaha\",\"Left\",\"39\",\"3\",\"17\",\"3B\",\"C2\",\"J\",\"65\"
\"\",\"\",\"approach-retreat\",\"214\",\"1484874\",\"0.0-214.0\",\"\",\"\",\"3-2\",\"4198\",\"37\",\"1\",\"Testing\",\"Stims/Figures/144-C-30-3.bmp\",\"vashava\",\"Left\",\"37\",\"3\",\"18\",\"3B\",\"C1\",\"J\",\"66\"
\"\",\"\",\"approach-retreat\",\"215\",\"1490494\",\"0.0-215.0\",\"\",\"\",\"3-2\",\"4110\",\"39\",\"0\",\"Testing\",\"Stims/Figures/128-C-30-3.bmp\",\"vashava\",\"Left\",\"37\",\"3\",\"19\",\"3B\",\"C1\",\"J\",\"67\"
\"\",\"\",\"approach-retreat\",\"216\",\"1496198\",\"0.0-216.0\",\"\",\"\",\"3-2\",\"4200\",\"39\",\"1\",\"Testing\",\"Stims/Figures/7-C-20-4.bmp\",\"vashava\",\"Right\",\"39\",\"3\",\"20\",\"3B\",\"C1\",\"J\",\"68\"
\"\",\"\",\"approach-retreat\",\"217\",\"1503124\",\"0.0-217.0\",\"\",\"\",\"3-2\",\"5416\",\"39\",\"1\",\"Testing\",\"Stims/Figures/57-C-30-1.bmp\",\"vashava\",\"Right\",\"39\",\"3\",\"21\",\"3B\",\"C1\",\"J\",\"69\"
\"\",\"\",\"approach-retreat\",\"218\",\"1510546\",\"0.0-218.0\",\"\",\"\",\"3-2\",\"5904\",\"39\",\"1\",\"Testing\",\"Stims/Figures/74-C-20-4.bmp\",\"vashava\",\"Right\",\"39\",\"3\",\"22\",\"3B\",\"C1\",\"J\",\"70\"
\"\",\"\",\"approach-retreat\",\"219\",\"1516274\",\"0.0-219.0\",\"\",\"\",\"3-2\",\"4220\",\"40\",\"1\",\"Testing\",\"Stims/Figures/85-J-0-2.bmp\",\"sasaha\",\"Up\",\"40\",\"3\",\"23\",\"3B\",\"C2\",\"J\",\"71\"
\"\",\"\",\"approach-retreat\",\"220\",\"1523416\",\"0.0-220.0\",\"\",\"\",\"3-2\",\"5640\",\"40\",\"0\",\"Testing\",\"Stims/Figures/71-J-0-1.bmp\",\"sasaha\",\"Down\",\"38\",\"3\",\"24\",\"3B\",\"C2\",\"J\",\"72\"
\"\",\"\",\"approach-retreat\",\"221\",\"1531790\",\"0.0-221.0\",\"\",\"\",\"3-2\",\"6862\",\"37\",\"0\",\"Testing\",\"Stims/Figures/57-C-30-1.bmp\",\"vashava\",\"Right\",\"39\",\"4\",\"1\",\"3B\",\"C1\",\"J\",\"73\"
\"\",\"\",\"approach-retreat\",\"222\",\"1537722\",\"0.0-222.0\",\"\",\"\",\"3-2\",\"4420\",\"39\",\"1\",\"Testing\",\"Stims/Figures/44-J-10-3.bmp\",\"sasaha\",\"Left\",\"39\",\"4\",\"2\",\"3B\",\"C2\",\"J\",\"74\"
\"\",\"\",\"approach-retreat\",\"223\",\"1544220\",\"0.0-223.0\",\"\",\"\",\"3-2\",\"4980\",\"39\",\"0\",\"Testing\",\"Stims/Figures/118-J-0-2.bmp\",\"sasaha\",\"Right\",\"37\",\"4\",\"3\",\"3B\",\"C2\",\"J\",\"75\"
\"\",\"\",\"approach-retreat\",\"224\",\"1550046\",\"0.0-224.0\",\"\",\"\",\"3-2\",\"4312\",\"37\",\"1\",\"Testing\",\"Stims/Figures/71-C-30-1.bmp\",\"vashava\",\"Left\",\"37\",\"4\",\"4\",\"3B\",\"C1\",\"J\",\"76\"
\"\",\"\",\"approach-retreat\",\"225\",\"1555686\",\"0.0-225.0\",\"\",\"\",\"3-2\",\"4126\",\"38\",\"0\",\"Testing\",\"Stims/Figures/44-C-30-3.bmp\",\"vashava\",\"Down\",\"40\",\"4\",\"5\",\"3B\",\"C1\",\"J\",\"77\"
\"\",\"\",\"approach-retreat\",\"226\",\"1561568\",\"0.0-226.0\",\"\",\"\",\"3-2\",\"4362\",\"37\",\"0\",\"Testing\",\"Stims/Figures/57-J-0-1.bmp\",\"sasaha\",\"Left\",\"39\",\"4\",\"6\",\"3B\",\"C2\",\"J\",\"78\"
\"\",\"\",\"approach-retreat\",\"227\",\"1567316\",\"0.0-227.0\",\"\",\"\",\"3-2\",\"4234\",\"37\",\"0\",\"Testing\",\"Stims/Figures/87-C-20-4.bmp\",\"vashava\",\"Right\",\"39\",\"4\",\"7\",\"3B\",\"C1\",\"J\",\"79\"
\"\",\"\",\"approach-retreat\",\"228\",\"1573012\",\"0.0-228.0\",\"\",\"\",\"3-2\",\"4178\",\"40\",\"0\",\"Testing\",\"Stims/Figures/94-J-0-2.bmp\",\"sasaha\",\"Down\",\"38\",\"4\",\"8\",\"3B\",\"C2\",\"J\",\"80\"
\"\",\"\",\"approach-retreat\",\"229\",\"1579052\",\"0.0-229.0\",\"\",\"\",\"3-2\",\"4534\",\"37\",\"0\",\"Testing\",\"Stims/Figures/74-J-10-4.bmp\",\"sasaha\",\"Left\",\"39\",\"4\",\"9\",\"3B\",\"C2\",\"J\",\"81\"
\"\",\"\",\"approach-retreat\",\"230\",\"1586188\",\"0.0-230.0\",\"\",\"\",\"3-2\",\"5620\",\"37\",\"0\",\"Testing\",\"Stims/Figures/128-C-30-3.bmp\",\"vashava\",\"Right\",\"39\",\"4\",\"10\",\"3B\",\"C1\",\"J\",\"82\"
\"\",\"\",\"approach-retreat\",\"231\",\"1593684\",\"0.0-231.0\",\"\",\"\",\"3-2\",\"5988\",\"40\",\"1\",\"Testing\",\"Stims/Figures/85-J-0-2.bmp\",\"sasaha\",\"Up\",\"40\",\"4\",\"11\",\"3B\",\"C2\",\"J\",\"83\"
\"\",\"\",\"approach-retreat\",\"232\",\"1599464\",\"0.0-232.0\",\"\",\"\",\"3-2\",\"4276\",\"38\",\"1\",\"Testing\",\"Stims/Figures/94-C-20-2.bmp\",\"vashava\",\"Up\",\"38\",\"4\",\"12\",\"3B\",\"C1\",\"J\",\"84\"
\"\",\"\",\"approach-retreat\",\"233\",\"1604996\",\"0.0-233.0\",\"\",\"\",\"3-2\",\"4016\",\"39\",\"0\",\"Testing\",\"Stims/Figures/93-C-30-1.bmp\",\"vashava\",\"Left\",\"37\",\"4\",\"13\",\"3B\",\"C1\",\"J\",\"85\"
\"\",\"\",\"approach-retreat\",\"234\",\"1610644\",\"0.0-234.0\",\"\",\"\",\"3-2\",\"4142\",\"37\",\"1\",\"Testing\",\"Stims/Figures/7-C-20-4.bmp\",\"vashava\",\"Left\",\"37\",\"4\",\"14\",\"3B\",\"C1\",\"J\",\"86\"
\"\",\"\",\"approach-retreat\",\"235\",\"1616842\",\"0.0-235.0\",\"\",\"\",\"3-2\",\"4692\",\"40\",\"1\",\"Testing\",\"Stims/Figures/85-C-20-2.bmp\",\"vashava\",\"Down\",\"40\",\"4\",\"15\",\"3B\",\"C1\",\"J\",\"87\"
\"\",\"\",\"approach-retreat\",\"236\",\"1623408\",\"0.0-236.0\",\"\",\"\",\"3-2\",\"5046\",\"38\",\"1\",\"Testing\",\"Stims/Figures/93-J-0-1.bmp\",\"sasaha\",\"Down\",\"38\",\"4\",\"16\",\"3B\",\"C2\",\"J\",\"88\"
\"\",\"\",\"approach-retreat\",\"237\",\"1629202\",\"0.0-237.0\",\"\",\"\",\"3-2\",\"4286\",\"38\",\"1\",\"Testing\",\"Stims/Figures/118-C-20-2.bmp\",\"vashava\",\"Up\",\"38\",\"4\",\"17\",\"3B\",\"C1\",\"J\",\"89\"
\"\",\"\",\"approach-retreat\",\"238\",\"1636212\",\"0.0-238.0\",\"\",\"\",\"3-2\",\"5500\",\"40\",\"1\",\"Testing\",\"Stims/Figures/128-J-10-3.bmp\",\"sasaha\",\"Up\",\"40\",\"4\",\"18\",\"3B\",\"C2\",\"J\",\"90\"
\"\",\"\",\"approach-retreat\",\"239\",\"1642658\",\"0.0-239.0\",\"\",\"\",\"3-2\",\"4936\",\"40\",\"0\",\"Testing\",\"Stims/Figures/71-J-0-1.bmp\",\"sasaha\",\"Down\",\"38\",\"4\",\"19\",\"3B\",\"C2\",\"J\",\"91\"
\"\",\"\",\"approach-retreat\",\"240\",\"1648292\",\"0.0-240.0\",\"\",\"\",\"3-2\",\"4120\",\"38\",\"1\",\"Testing\",\"Stims/Figures/144-C-30-3.bmp\",\"vashava\",\"Up\",\"38\",\"4\",\"20\",\"3B\",\"C1\",\"J\",\"92\"
\"\",\"\",\"approach-retreat\",\"241\",\"1654864\",\"0.0-241.0\",\"\",\"\",\"3-2\",\"5060\",\"40\",\"1\",\"Testing\",\"Stims/Figures/74-C-20-4.bmp\",\"vashava\",\"Down\",\"40\",\"4\",\"21\",\"3B\",\"C1\",\"J\",\"93\"
\"\",\"\",\"approach-retreat\",\"242\",\"1661158\",\"0.0-242.0\",\"\",\"\",\"3-2\",\"4786\",\"37\",\"1\",\"Testing\",\"Stims/Figures/87-J-10-4.bmp\",\"sasaha\",\"Right\",\"37\",\"4\",\"22\",\"3B\",\"C2\",\"J\",\"94\"
\"\",\"\",\"approach-retreat\",\"243\",\"1666668\",\"0.0-243.0\",\"\",\"\",\"3-2\",\"3996\",\"38\",\"0\",\"Testing\",\"Stims/Figures/144-J-10-3.bmp\",\"sasaha\",\"Up\",\"40\",\"4\",\"23\",\"3B\",\"C2\",\"J\",\"95\"
\"\",\"\",\"approach-retreat\",\"244\",\"1672172\",\"0.0-244.0\",\"\",\"\",\"3-2\",\"3988\",\"39\",\"0\",\"Testing\",\"Stims/Figures/7-J-10-4.bmp\",\"sasaha\",\"Right\",\"37\",\"4\",\"24\",\"3B\",\"C2\",\"J\",\"96\"
\"24172\",\"\",\"survey-text\",\"245\",\"1696358\",\"0.0-245.0\",\"\",\"{\"\"Q0\"\":\"\"PS160056\"\"}\",\"\",\"\",\"\",\"\",\"\",\"\",\"\",\"\",\"\",\"\",\"\",\"\",\"\",\"\",\"\"
