\"rt\",\"key_press\",\"trial_type\",\"trial_index\",\"time_elapsed\",\"internal_node_id\",\"view_history\",\"responses\",\"Id\",\"Rt\",\"ResKeyCode\",\"ResCorr\",\"TrialType2\",\"Image\",\"Label\",\"Location\",\"CorrectResponse\",\"Block\",\"BlockTrial\",\"Condition\",\"LabelType\",\"Subcondition\",\"trialNum\"
\"47339\",\"32\",\"text\",\"0\",\"47344\",\"0.0-0.0-0.0\",\"\",\"\",\"\",\"\",\"\",\"\",\"\",\"\",\"\",\"\",\"\",\"\",\"\",\"\",\"\",\"\",\"\"
\"91931\",\"\",\"instructions\",\"1\",\"139278\",\"0.0-1.0\",\"[{\"\"page_index\"\":0,\"\"viewing_time\"\":91929}]\",\"\",\"\",\"\",\"\",\"\",\"\",\"\",\"\",\"\",\"\",\"\",\"\",\"\",\"\",\"\",\"\"
\"22590\",\"\",\"survey-multi-choice\",\"2\",\"161903\",\"0.0-2.0\",\"\",\"{\"\"Q0\"\":\"\"Da\"\",\"\"Q1\"\":\"\"Da\"\",\"\"Q2\"\":\"\"Da\"\",\"\"Q3\"\":\"\"Da\"\",\"\"Q4\"\":\"\"Da\"\",\"\"Q5\"\":\"\"Da\"\"}\",\"\",\"\",\"\",\"\",\"\",\"\",\"\",\"\",\"\",\"\",\"\",\"\",\"\",\"\",\"\"
\"\",\"\",\"bio\",\"3\",\"172340\",\"0.0-3.0\",\"\",\"{\"\"age\"\":\"\"37\"\",\"\"gender\"\":\"\"f\"\",\"\"specify\"\":\"\"\"\"}\",\"\",\"\",\"\",\"\",\"\",\"\",\"\",\"\",\"\",\"\",\"\",\"\",\"\",\"\",\"\"
\"\",\"\",\"approach-retreat\",\"4\",\"183538\",\"0.0-4.0\",\"\",\"\",\"2-3\",\"9689\",\"39\",\"0\",\"Training\",\"Stims/Figures/87-J-10-4.bmp\",\"za:sa:za\",\"Left\",\"37\",\"1\",\"1\",\"3B\",\"C2\",\"C\",\"1\"
\"\",\"\",\"approach-retreat\",\"5\",\"190609\",\"0.0-5.0\",\"\",\"\",\"2-3\",\"5558\",\"40\",\"0\",\"Training\",\"Stims/Figures/94-J-0-2.bmp\",\"za:sa:za\",\"Up\",\"38\",\"1\",\"2\",\"3B\",\"C2\",\"C\",\"2\"
\"\",\"\",\"approach-retreat\",\"6\",\"198083\",\"0.0-6.0\",\"\",\"\",\"2-3\",\"5961\",\"40\",\"1\",\"Training\",\"Stims/Figures/86-C-30-1.bmp\",\"vashava\",\"Up\",\"40\",\"1\",\"3\",\"3B\",\"C1\",\"C\",\"3\"
\"\",\"\",\"approach-retreat\",\"7\",\"206374\",\"0.0-7.0\",\"\",\"\",\"2-3\",\"6779\",\"38\",\"0\",\"Training\",\"Stims/Figures/102-J-10-4.bmp\",\"za:sa:za\",\"Down\",\"40\",\"1\",\"4\",\"3B\",\"C2\",\"C\",\"4\"
\"\",\"\",\"approach-retreat\",\"8\",\"214156\",\"0.0-8.0\",\"\",\"\",\"2-3\",\"6269\",\"39\",\"1\",\"Training\",\"Stims/Figures/139-C-20-2.bmp\",\"vashava\",\"Left\",\"39\",\"1\",\"5\",\"3B\",\"C1\",\"C\",\"5\"
\"\",\"\",\"approach-retreat\",\"9\",\"220279\",\"0.0-9.0\",\"\",\"\",\"2-3\",\"4612\",\"37\",\"1\",\"Training\",\"Stims/Figures/86-J-0-1.bmp\",\"za:sa:za\",\"Left\",\"37\",\"1\",\"6\",\"3B\",\"C2\",\"C\",\"6\"
\"\",\"\",\"approach-retreat\",\"10\",\"227090\",\"0.0-10.0\",\"\",\"\",\"2-3\",\"5298\",\"37\",\"1\",\"Training\",\"Stims/Figures/102-C-20-4.bmp\",\"vashava\",\"Right\",\"37\",\"1\",\"7\",\"3B\",\"C1\",\"C\",\"7\"
\"\",\"\",\"approach-retreat\",\"11\",\"233251\",\"0.0-11.0\",\"\",\"\",\"2-3\",\"4649\",\"38\",\"1\",\"Training\",\"Stims/Figures/100-C-30-3.bmp\",\"vashava\",\"Down\",\"38\",\"1\",\"8\",\"3B\",\"C1\",\"C\",\"8\"
\"\",\"\",\"approach-retreat\",\"12\",\"239228\",\"0.0-12.0\",\"\",\"\",\"2-3\",\"4464\",\"37\",\"1\",\"Training\",\"Stims/Figures/94-C-20-2.bmp\",\"vashava\",\"Right\",\"37\",\"1\",\"9\",\"3B\",\"C1\",\"C\",\"9\"
\"\",\"\",\"approach-retreat\",\"13\",\"245213\",\"0.0-13.0\",\"\",\"\",\"2-3\",\"4474\",\"40\",\"1\",\"Training\",\"Stims/Figures/44-C-30-3.bmp\",\"vashava\",\"Up\",\"40\",\"1\",\"10\",\"3B\",\"C1\",\"C\",\"10\"
\"\",\"\",\"approach-retreat\",\"14\",\"251505\",\"0.0-14.0\",\"\",\"\",\"2-3\",\"4780\",\"37\",\"1\",\"Training\",\"Stims/Figures/44-J-10-3.bmp\",\"za:sa:za\",\"Left\",\"37\",\"1\",\"11\",\"3B\",\"C2\",\"C\",\"11\"
\"\",\"\",\"approach-retreat\",\"15\",\"257567\",\"0.0-15.0\",\"\",\"\",\"2-3\",\"4549\",\"39\",\"1\",\"Training\",\"Stims/Figures/100-J-10-3.bmp\",\"za:sa:za\",\"Right\",\"39\",\"1\",\"12\",\"3B\",\"C2\",\"C\",\"12\"
\"\",\"\",\"approach-retreat\",\"16\",\"263616\",\"0.0-16.0\",\"\",\"\",\"2-3\",\"4536\",\"37\",\"1\",\"Training\",\"Stims/Figures/57-C-30-1.bmp\",\"vashava\",\"Right\",\"37\",\"1\",\"13\",\"3B\",\"C1\",\"C\",\"13\"
\"\",\"\",\"approach-retreat\",\"17\",\"269276\",\"0.0-17.0\",\"\",\"\",\"2-3\",\"4149\",\"40\",\"1\",\"Training\",\"Stims/Figures/87-C-20-4.bmp\",\"vashava\",\"Up\",\"40\",\"1\",\"14\",\"3B\",\"C1\",\"C\",\"14\"
\"\",\"\",\"approach-retreat\",\"18\",\"275451\",\"0.0-18.0\",\"\",\"\",\"2-3\",\"4664\",\"40\",\"1\",\"Training\",\"Stims/Figures/57-J-0-1.bmp\",\"za:sa:za\",\"Down\",\"40\",\"1\",\"15\",\"3B\",\"C2\",\"C\",\"15\"
\"\",\"\",\"approach-retreat\",\"19\",\"281338\",\"0.0-19.0\",\"\",\"\",\"2-3\",\"4376\",\"40\",\"1\",\"Training\",\"Stims/Figures/139-J-0-2.bmp\",\"za:sa:za\",\"Down\",\"40\",\"1\",\"16\",\"3B\",\"C2\",\"C\",\"16\"
\"\",\"\",\"approach-retreat\",\"20\",\"287280\",\"0.0-20.0\",\"\",\"\",\"2-3\",\"4429\",\"37\",\"1\",\"Training\",\"Stims/Figures/139-C-20-2.bmp\",\"vashava\",\"Right\",\"37\",\"2\",\"1\",\"3B\",\"C1\",\"C\",\"17\"
\"\",\"\",\"approach-retreat\",\"21\",\"295278\",\"0.0-21.0\",\"\",\"\",\"2-3\",\"6485\",\"37\",\"1\",\"Training\",\"Stims/Figures/100-J-10-3.bmp\",\"za:sa:za\",\"Left\",\"37\",\"2\",\"2\",\"3B\",\"C2\",\"C\",\"18\"
\"\",\"\",\"approach-retreat\",\"22\",\"301502\",\"0.0-22.0\",\"\",\"\",\"2-3\",\"4713\",\"37\",\"1\",\"Training\",\"Stims/Figures/44-C-30-3.bmp\",\"vashava\",\"Right\",\"37\",\"2\",\"3\",\"3B\",\"C1\",\"C\",\"19\"
\"\",\"\",\"approach-retreat\",\"23\",\"307785\",\"0.0-23.0\",\"\",\"\",\"2-3\",\"4770\",\"37\",\"1\",\"Training\",\"Stims/Figures/86-J-0-1.bmp\",\"za:sa:za\",\"Left\",\"37\",\"2\",\"4\",\"3B\",\"C2\",\"C\",\"20\"
\"\",\"\",\"approach-retreat\",\"24\",\"313592\",\"0.0-24.0\",\"\",\"\",\"2-3\",\"4294\",\"37\",\"1\",\"Training\",\"Stims/Figures/86-C-30-1.bmp\",\"vashava\",\"Right\",\"37\",\"2\",\"5\",\"3B\",\"C1\",\"C\",\"21\"
\"\",\"\",\"approach-retreat\",\"25\",\"319596\",\"0.0-25.0\",\"\",\"\",\"2-3\",\"4492\",\"39\",\"1\",\"Training\",\"Stims/Figures/87-C-20-4.bmp\",\"vashava\",\"Left\",\"39\",\"2\",\"6\",\"3B\",\"C1\",\"C\",\"22\"
\"\",\"\",\"approach-retreat\",\"26\",\"325500\",\"0.0-26.0\",\"\",\"\",\"2-3\",\"4392\",\"38\",\"1\",\"Training\",\"Stims/Figures/57-C-30-1.bmp\",\"vashava\",\"Down\",\"38\",\"2\",\"7\",\"3B\",\"C1\",\"C\",\"23\"
\"\",\"\",\"approach-retreat\",\"27\",\"331314\",\"0.0-27.0\",\"\",\"\",\"2-3\",\"4301\",\"38\",\"1\",\"Training\",\"Stims/Figures/94-C-20-2.bmp\",\"vashava\",\"Down\",\"38\",\"2\",\"8\",\"3B\",\"C1\",\"C\",\"24\"
\"\",\"\",\"approach-retreat\",\"28\",\"337162\",\"0.0-28.0\",\"\",\"\",\"2-3\",\"4337\",\"37\",\"1\",\"Training\",\"Stims/Figures/94-J-0-2.bmp\",\"za:sa:za\",\"Left\",\"37\",\"2\",\"9\",\"3B\",\"C2\",\"C\",\"25\"
\"\",\"\",\"approach-retreat\",\"29\",\"342971\",\"0.0-29.0\",\"\",\"\",\"2-3\",\"4297\",\"38\",\"1\",\"Training\",\"Stims/Figures/100-C-30-3.bmp\",\"vashava\",\"Down\",\"38\",\"2\",\"10\",\"3B\",\"C1\",\"C\",\"26\"
\"\",\"\",\"approach-retreat\",\"30\",\"349137\",\"0.0-30.0\",\"\",\"\",\"2-3\",\"4655\",\"38\",\"1\",\"Training\",\"Stims/Figures/57-J-0-1.bmp\",\"za:sa:za\",\"Up\",\"38\",\"2\",\"11\",\"3B\",\"C2\",\"C\",\"27\"
\"\",\"\",\"approach-retreat\",\"31\",\"355357\",\"0.0-31.0\",\"\",\"\",\"2-3\",\"4708\",\"40\",\"1\",\"Training\",\"Stims/Figures/102-C-20-4.bmp\",\"vashava\",\"Up\",\"40\",\"2\",\"12\",\"3B\",\"C1\",\"C\",\"28\"
\"\",\"\",\"approach-retreat\",\"32\",\"361479\",\"0.0-32.0\",\"\",\"\",\"2-3\",\"4609\",\"40\",\"1\",\"Training\",\"Stims/Figures/139-J-0-2.bmp\",\"za:sa:za\",\"Down\",\"40\",\"2\",\"13\",\"3B\",\"C2\",\"C\",\"29\"
\"\",\"\",\"approach-retreat\",\"33\",\"367413\",\"0.0-33.0\",\"\",\"\",\"2-3\",\"4423\",\"38\",\"1\",\"Training\",\"Stims/Figures/87-J-10-4.bmp\",\"za:sa:za\",\"Up\",\"38\",\"2\",\"14\",\"3B\",\"C2\",\"C\",\"30\"
\"\",\"\",\"approach-retreat\",\"34\",\"373171\",\"0.0-34.0\",\"\",\"\",\"2-3\",\"4246\",\"38\",\"1\",\"Training\",\"Stims/Figures/44-J-10-3.bmp\",\"za:sa:za\",\"Up\",\"38\",\"2\",\"15\",\"3B\",\"C2\",\"C\",\"31\"
\"\",\"\",\"approach-retreat\",\"35\",\"379186\",\"0.0-35.0\",\"\",\"\",\"2-3\",\"4503\",\"39\",\"1\",\"Training\",\"Stims/Figures/102-J-10-4.bmp\",\"za:sa:za\",\"Right\",\"39\",\"2\",\"16\",\"3B\",\"C2\",\"C\",\"32\"
\"\",\"\",\"approach-retreat\",\"36\",\"385211\",\"0.0-36.0\",\"\",\"\",\"2-3\",\"4513\",\"40\",\"1\",\"Training\",\"Stims/Figures/100-C-30-3.bmp\",\"vashava\",\"Up\",\"40\",\"3\",\"1\",\"3B\",\"C1\",\"C\",\"33\"
\"\",\"\",\"approach-retreat\",\"37\",\"391414\",\"0.0-37.0\",\"\",\"\",\"2-3\",\"4691\",\"40\",\"1\",\"Training\",\"Stims/Figures/94-J-0-2.bmp\",\"za:sa:za\",\"Down\",\"40\",\"3\",\"2\",\"3B\",\"C2\",\"C\",\"34\"
\"\",\"\",\"approach-retreat\",\"38\",\"397455\",\"0.0-38.0\",\"\",\"\",\"2-3\",\"4526\",\"40\",\"1\",\"Training\",\"Stims/Figures/44-J-10-3.bmp\",\"za:sa:za\",\"Down\",\"40\",\"3\",\"3\",\"3B\",\"C2\",\"C\",\"35\"
\"\",\"\",\"approach-retreat\",\"39\",\"403419\",\"0.0-39.0\",\"\",\"\",\"2-3\",\"4448\",\"39\",\"1\",\"Training\",\"Stims/Figures/86-J-0-1.bmp\",\"za:sa:za\",\"Right\",\"39\",\"3\",\"4\",\"3B\",\"C2\",\"C\",\"36\"
\"\",\"\",\"approach-retreat\",\"40\",\"409257\",\"0.0-40.0\",\"\",\"\",\"2-3\",\"4326\",\"37\",\"1\",\"Training\",\"Stims/Figures/57-J-0-1.bmp\",\"za:sa:za\",\"Left\",\"37\",\"3\",\"5\",\"3B\",\"C2\",\"C\",\"37\"
\"\",\"\",\"approach-retreat\",\"41\",\"415062\",\"0.0-41.0\",\"\",\"\",\"2-3\",\"4293\",\"39\",\"1\",\"Training\",\"Stims/Figures/139-C-20-2.bmp\",\"vashava\",\"Left\",\"39\",\"3\",\"6\",\"3B\",\"C1\",\"C\",\"38\"
\"\",\"\",\"approach-retreat\",\"42\",\"421165\",\"0.0-42.0\",\"\",\"\",\"2-3\",\"4592\",\"38\",\"1\",\"Training\",\"Stims/Figures/57-C-30-1.bmp\",\"vashava\",\"Down\",\"38\",\"3\",\"7\",\"3B\",\"C1\",\"C\",\"39\"
\"\",\"\",\"approach-retreat\",\"43\",\"426847\",\"0.0-43.0\",\"\",\"\",\"2-3\",\"4171\",\"37\",\"1\",\"Training\",\"Stims/Figures/44-C-30-3.bmp\",\"vashava\",\"Right\",\"37\",\"3\",\"8\",\"3B\",\"C1\",\"C\",\"40\"
\"\",\"\",\"approach-retreat\",\"44\",\"432659\",\"0.0-44.0\",\"\",\"\",\"2-3\",\"4302\",\"38\",\"1\",\"Training\",\"Stims/Figures/87-C-20-4.bmp\",\"vashava\",\"Down\",\"38\",\"3\",\"9\",\"3B\",\"C1\",\"C\",\"41\"
\"\",\"\",\"approach-retreat\",\"45\",\"438353\",\"0.0-45.0\",\"\",\"\",\"2-3\",\"4181\",\"39\",\"1\",\"Training\",\"Stims/Figures/87-J-10-4.bmp\",\"za:sa:za\",\"Right\",\"39\",\"3\",\"10\",\"3B\",\"C2\",\"C\",\"42\"
\"\",\"\",\"approach-retreat\",\"46\",\"444050\",\"0.0-46.0\",\"\",\"\",\"2-3\",\"4185\",\"40\",\"1\",\"Training\",\"Stims/Figures/94-C-20-2.bmp\",\"vashava\",\"Up\",\"40\",\"3\",\"11\",\"3B\",\"C1\",\"C\",\"43\"
\"\",\"\",\"approach-retreat\",\"47\",\"450050\",\"0.0-47.0\",\"\",\"\",\"2-3\",\"4488\",\"37\",\"0\",\"Training\",\"Stims/Figures/139-J-0-2.bmp\",\"za:sa:za\",\"Right\",\"39\",\"3\",\"12\",\"3B\",\"C2\",\"C\",\"44\"
\"\",\"\",\"approach-retreat\",\"48\",\"455724\",\"0.0-48.0\",\"\",\"\",\"2-3\",\"4162\",\"40\",\"1\",\"Training\",\"Stims/Figures/102-C-20-4.bmp\",\"vashava\",\"Up\",\"40\",\"3\",\"13\",\"3B\",\"C1\",\"C\",\"45\"
\"\",\"\",\"approach-retreat\",\"49\",\"461981\",\"0.0-49.0\",\"\",\"\",\"2-3\",\"4747\",\"37\",\"1\",\"Training\",\"Stims/Figures/102-J-10-4.bmp\",\"za:sa:za\",\"Left\",\"37\",\"3\",\"14\",\"3B\",\"C2\",\"C\",\"46\"
\"\",\"\",\"approach-retreat\",\"50\",\"468164\",\"0.0-50.0\",\"\",\"\",\"2-3\",\"4672\",\"39\",\"1\",\"Training\",\"Stims/Figures/86-C-30-1.bmp\",\"vashava\",\"Left\",\"39\",\"3\",\"15\",\"3B\",\"C1\",\"C\",\"47\"
\"\",\"\",\"approach-retreat\",\"51\",\"473988\",\"0.0-51.0\",\"\",\"\",\"2-3\",\"4312\",\"38\",\"1\",\"Training\",\"Stims/Figures/100-J-10-3.bmp\",\"za:sa:za\",\"Up\",\"38\",\"3\",\"16\",\"3B\",\"C2\",\"C\",\"48\"
\"\",\"\",\"approach-retreat\",\"52\",\"479722\",\"0.0-52.0\",\"\",\"\",\"2-3\",\"4222\",\"39\",\"1\",\"Training\",\"Stims/Figures/57-J-0-1.bmp\",\"za:sa:za\",\"Right\",\"39\",\"4\",\"1\",\"3B\",\"C2\",\"C\",\"49\"
\"\",\"\",\"approach-retreat\",\"53\",\"485659\",\"0.0-53.0\",\"\",\"\",\"2-3\",\"4426\",\"38\",\"1\",\"Training\",\"Stims/Figures/100-C-30-3.bmp\",\"vashava\",\"Down\",\"38\",\"4\",\"2\",\"3B\",\"C1\",\"C\",\"50\"
\"\",\"\",\"approach-retreat\",\"54\",\"491375\",\"0.0-54.0\",\"\",\"\",\"2-3\",\"4205\",\"39\",\"1\",\"Training\",\"Stims/Figures/102-C-20-4.bmp\",\"vashava\",\"Left\",\"39\",\"4\",\"3\",\"3B\",\"C1\",\"C\",\"51\"
\"\",\"\",\"approach-retreat\",\"55\",\"497038\",\"0.0-55.0\",\"\",\"\",\"2-3\",\"4152\",\"40\",\"1\",\"Training\",\"Stims/Figures/86-C-30-1.bmp\",\"vashava\",\"Up\",\"40\",\"4\",\"4\",\"3B\",\"C1\",\"C\",\"52\"
\"\",\"\",\"approach-retreat\",\"56\",\"502822\",\"0.0-56.0\",\"\",\"\",\"2-3\",\"4272\",\"39\",\"1\",\"Training\",\"Stims/Figures/44-J-10-3.bmp\",\"za:sa:za\",\"Right\",\"39\",\"4\",\"5\",\"3B\",\"C2\",\"C\",\"53\"
\"\",\"\",\"approach-retreat\",\"57\",\"508502\",\"0.0-57.0\",\"\",\"\",\"2-3\",\"4169\",\"38\",\"1\",\"Training\",\"Stims/Figures/87-C-20-4.bmp\",\"vashava\",\"Down\",\"38\",\"4\",\"6\",\"3B\",\"C1\",\"C\",\"54\"
\"\",\"\",\"approach-retreat\",\"58\",\"514183\",\"0.0-58.0\",\"\",\"\",\"2-3\",\"4170\",\"37\",\"1\",\"Training\",\"Stims/Figures/139-J-0-2.bmp\",\"za:sa:za\",\"Left\",\"37\",\"4\",\"7\",\"3B\",\"C2\",\"C\",\"55\"
\"\",\"\",\"approach-retreat\",\"59\",\"520109\",\"0.0-59.0\",\"\",\"\",\"2-3\",\"4414\",\"37\",\"1\",\"Training\",\"Stims/Figures/94-C-20-2.bmp\",\"vashava\",\"Right\",\"37\",\"4\",\"8\",\"3B\",\"C1\",\"C\",\"56\"
\"\",\"\",\"approach-retreat\",\"60\",\"525750\",\"0.0-60.0\",\"\",\"\",\"2-3\",\"4129\",\"40\",\"1\",\"Training\",\"Stims/Figures/139-C-20-2.bmp\",\"vashava\",\"Up\",\"40\",\"4\",\"9\",\"3B\",\"C1\",\"C\",\"57\"
\"\",\"\",\"approach-retreat\",\"61\",\"532224\",\"0.0-61.0\",\"\",\"\",\"2-3\",\"4961\",\"38\",\"1\",\"Training\",\"Stims/Figures/102-J-10-4.bmp\",\"za:sa:za\",\"Up\",\"38\",\"4\",\"10\",\"3B\",\"C2\",\"C\",\"58\"
\"\",\"\",\"approach-retreat\",\"62\",\"538132\",\"0.0-62.0\",\"\",\"\",\"2-3\",\"4398\",\"38\",\"1\",\"Training\",\"Stims/Figures/87-J-10-4.bmp\",\"za:sa:za\",\"Up\",\"38\",\"4\",\"11\",\"3B\",\"C2\",\"C\",\"59\"
\"\",\"\",\"approach-retreat\",\"63\",\"544221\",\"0.0-63.0\",\"\",\"\",\"2-3\",\"4577\",\"38\",\"1\",\"Training\",\"Stims/Figures/44-C-30-3.bmp\",\"vashava\",\"Down\",\"38\",\"4\",\"12\",\"3B\",\"C1\",\"C\",\"60\"
\"\",\"\",\"approach-retreat\",\"64\",\"549920\",\"0.0-64.0\",\"\",\"\",\"2-3\",\"4189\",\"39\",\"1\",\"Training\",\"Stims/Figures/100-J-10-3.bmp\",\"za:sa:za\",\"Right\",\"39\",\"4\",\"13\",\"3B\",\"C2\",\"C\",\"61\"
\"\",\"\",\"approach-retreat\",\"65\",\"555858\",\"0.0-65.0\",\"\",\"\",\"2-3\",\"4426\",\"37\",\"1\",\"Training\",\"Stims/Figures/86-J-0-1.bmp\",\"za:sa:za\",\"Left\",\"37\",\"4\",\"14\",\"3B\",\"C2\",\"C\",\"62\"
\"\",\"\",\"approach-retreat\",\"66\",\"561549\",\"0.0-66.0\",\"\",\"\",\"2-3\",\"4179\",\"38\",\"1\",\"Training\",\"Stims/Figures/57-C-30-1.bmp\",\"vashava\",\"Down\",\"38\",\"4\",\"15\",\"3B\",\"C1\",\"C\",\"63\"
\"\",\"\",\"approach-retreat\",\"67\",\"567511\",\"0.0-67.0\",\"\",\"\",\"2-3\",\"4449\",\"37\",\"1\",\"Training\",\"Stims/Figures/94-J-0-2.bmp\",\"za:sa:za\",\"Left\",\"37\",\"4\",\"16\",\"3B\",\"C2\",\"C\",\"64\"
\"\",\"\",\"approach-retreat\",\"68\",\"573170\",\"0.0-68.0\",\"\",\"\",\"2-3\",\"4147\",\"40\",\"1\",\"Training\",\"Stims/Figures/57-C-30-1.bmp\",\"vashava\",\"Up\",\"40\",\"5\",\"1\",\"3B\",\"C1\",\"C\",\"65\"
\"\",\"\",\"approach-retreat\",\"69\",\"578988\",\"0.0-69.0\",\"\",\"\",\"2-3\",\"4305\",\"38\",\"1\",\"Training\",\"Stims/Figures/57-J-0-1.bmp\",\"za:sa:za\",\"Up\",\"38\",\"5\",\"2\",\"3B\",\"C2\",\"C\",\"66\"
\"\",\"\",\"approach-retreat\",\"70\",\"584701\",\"0.0-70.0\",\"\",\"\",\"2-3\",\"4202\",\"37\",\"1\",\"Training\",\"Stims/Figures/44-J-10-3.bmp\",\"za:sa:za\",\"Left\",\"37\",\"5\",\"3\",\"3B\",\"C2\",\"C\",\"67\"
\"\",\"\",\"approach-retreat\",\"71\",\"590587\",\"0.0-71.0\",\"\",\"\",\"2-3\",\"4374\",\"39\",\"1\",\"Training\",\"Stims/Figures/86-C-30-1.bmp\",\"vashava\",\"Left\",\"39\",\"5\",\"4\",\"3B\",\"C1\",\"C\",\"68\"
\"\",\"\",\"approach-retreat\",\"72\",\"596302\",\"0.0-72.0\",\"\",\"\",\"2-3\",\"4204\",\"39\",\"1\",\"Training\",\"Stims/Figures/87-J-10-4.bmp\",\"za:sa:za\",\"Right\",\"39\",\"5\",\"5\",\"3B\",\"C2\",\"C\",\"69\"
\"\",\"\",\"approach-retreat\",\"73\",\"602074\",\"0.0-73.0\",\"\",\"\",\"2-3\",\"4261\",\"38\",\"1\",\"Training\",\"Stims/Figures/94-J-0-2.bmp\",\"za:sa:za\",\"Up\",\"38\",\"5\",\"6\",\"3B\",\"C2\",\"C\",\"70\"
\"\",\"\",\"approach-retreat\",\"74\",\"607823\",\"0.0-74.0\",\"\",\"\",\"2-3\",\"4237\",\"39\",\"1\",\"Training\",\"Stims/Figures/100-C-30-3.bmp\",\"vashava\",\"Left\",\"39\",\"5\",\"7\",\"3B\",\"C1\",\"C\",\"71\"
\"\",\"\",\"approach-retreat\",\"75\",\"613857\",\"0.0-75.0\",\"\",\"\",\"2-3\",\"4522\",\"40\",\"1\",\"Training\",\"Stims/Figures/100-J-10-3.bmp\",\"za:sa:za\",\"Down\",\"40\",\"5\",\"8\",\"3B\",\"C2\",\"C\",\"72\"
\"\",\"\",\"approach-retreat\",\"76\",\"619690\",\"0.0-76.0\",\"\",\"\",\"2-3\",\"4322\",\"38\",\"1\",\"Training\",\"Stims/Figures/94-C-20-2.bmp\",\"vashava\",\"Down\",\"38\",\"5\",\"9\",\"3B\",\"C1\",\"C\",\"73\"
\"\",\"\",\"approach-retreat\",\"77\",\"625495\",\"0.0-77.0\",\"\",\"\",\"2-3\",\"4293\",\"40\",\"1\",\"Training\",\"Stims/Figures/139-J-0-2.bmp\",\"za:sa:za\",\"Down\",\"40\",\"5\",\"10\",\"3B\",\"C2\",\"C\",\"74\"
\"\",\"\",\"approach-retreat\",\"78\",\"631364\",\"0.0-78.0\",\"\",\"\",\"2-3\",\"4357\",\"37\",\"1\",\"Training\",\"Stims/Figures/86-J-0-1.bmp\",\"za:sa:za\",\"Left\",\"37\",\"5\",\"11\",\"3B\",\"C2\",\"C\",\"75\"
\"\",\"\",\"approach-retreat\",\"79\",\"636913\",\"0.0-79.0\",\"\",\"\",\"2-3\",\"4038\",\"38\",\"1\",\"Training\",\"Stims/Figures/102-C-20-4.bmp\",\"vashava\",\"Down\",\"38\",\"5\",\"12\",\"3B\",\"C1\",\"C\",\"76\"
\"\",\"\",\"approach-retreat\",\"80\",\"642496\",\"0.0-80.0\",\"\",\"\",\"2-3\",\"4069\",\"37\",\"1\",\"Training\",\"Stims/Figures/139-C-20-2.bmp\",\"vashava\",\"Right\",\"37\",\"5\",\"13\",\"3B\",\"C1\",\"C\",\"77\"
\"\",\"\",\"approach-retreat\",\"81\",\"648050\",\"0.0-81.0\",\"\",\"\",\"2-3\",\"4041\",\"39\",\"1\",\"Training\",\"Stims/Figures/102-J-10-4.bmp\",\"za:sa:za\",\"Right\",\"39\",\"5\",\"14\",\"3B\",\"C2\",\"C\",\"78\"
\"\",\"\",\"approach-retreat\",\"82\",\"653836\",\"0.0-82.0\",\"\",\"\",\"2-3\",\"4273\",\"37\",\"1\",\"Training\",\"Stims/Figures/44-C-30-3.bmp\",\"vashava\",\"Right\",\"37\",\"5\",\"15\",\"3B\",\"C1\",\"C\",\"79\"
\"\",\"\",\"approach-retreat\",\"83\",\"659614\",\"0.0-83.0\",\"\",\"\",\"2-3\",\"4267\",\"40\",\"1\",\"Training\",\"Stims/Figures/87-C-20-4.bmp\",\"vashava\",\"Up\",\"40\",\"5\",\"16\",\"3B\",\"C1\",\"C\",\"80\"
\"\",\"\",\"approach-retreat\",\"84\",\"665455\",\"0.0-84.0\",\"\",\"\",\"2-3\",\"4329\",\"38\",\"1\",\"Training\",\"Stims/Figures/94-C-20-2.bmp\",\"vashava\",\"Down\",\"38\",\"6\",\"1\",\"3B\",\"C1\",\"C\",\"81\"
\"\",\"\",\"approach-retreat\",\"85\",\"671004\",\"0.0-85.0\",\"\",\"\",\"2-3\",\"4036\",\"39\",\"1\",\"Training\",\"Stims/Figures/139-C-20-2.bmp\",\"vashava\",\"Left\",\"39\",\"6\",\"2\",\"3B\",\"C1\",\"C\",\"82\"
\"\",\"\",\"approach-retreat\",\"86\",\"676772\",\"0.0-86.0\",\"\",\"\",\"2-3\",\"4256\",\"37\",\"1\",\"Training\",\"Stims/Figures/57-J-0-1.bmp\",\"za:sa:za\",\"Left\",\"37\",\"6\",\"3\",\"3B\",\"C2\",\"C\",\"83\"
\"\",\"\",\"approach-retreat\",\"87\",\"682356\",\"0.0-87.0\",\"\",\"\",\"2-3\",\"4073\",\"39\",\"1\",\"Training\",\"Stims/Figures/44-C-30-3.bmp\",\"vashava\",\"Left\",\"39\",\"6\",\"4\",\"3B\",\"C1\",\"C\",\"84\"
\"\",\"\",\"approach-retreat\",\"88\",\"688228\",\"0.0-88.0\",\"\",\"\",\"2-3\",\"4360\",\"38\",\"1\",\"Training\",\"Stims/Figures/94-J-0-2.bmp\",\"za:sa:za\",\"Up\",\"38\",\"6\",\"5\",\"3B\",\"C2\",\"C\",\"85\"
\"\",\"\",\"approach-retreat\",\"89\",\"693899\",\"0.0-89.0\",\"\",\"\",\"2-3\",\"4159\",\"38\",\"1\",\"Training\",\"Stims/Figures/57-C-30-1.bmp\",\"vashava\",\"Down\",\"38\",\"6\",\"6\",\"3B\",\"C1\",\"C\",\"86\"
\"\",\"\",\"approach-retreat\",\"90\",\"699671\",\"0.0-90.0\",\"\",\"\",\"2-3\",\"4259\",\"39\",\"1\",\"Training\",\"Stims/Figures/100-J-10-3.bmp\",\"za:sa:za\",\"Right\",\"39\",\"6\",\"7\",\"3B\",\"C2\",\"C\",\"87\"
\"\",\"\",\"approach-retreat\",\"91\",\"705507\",\"0.0-91.0\",\"\",\"\",\"2-3\",\"4325\",\"38\",\"1\",\"Training\",\"Stims/Figures/139-J-0-2.bmp\",\"za:sa:za\",\"Up\",\"38\",\"6\",\"8\",\"3B\",\"C2\",\"C\",\"88\"
\"\",\"\",\"approach-retreat\",\"92\",\"711247\",\"0.0-92.0\",\"\",\"\",\"2-3\",\"4228\",\"39\",\"1\",\"Training\",\"Stims/Figures/86-J-0-1.bmp\",\"za:sa:za\",\"Right\",\"39\",\"6\",\"9\",\"3B\",\"C2\",\"C\",\"89\"
\"\",\"\",\"approach-retreat\",\"93\",\"717027\",\"0.0-93.0\",\"\",\"\",\"2-3\",\"4266\",\"40\",\"1\",\"Training\",\"Stims/Figures/86-C-30-1.bmp\",\"vashava\",\"Up\",\"40\",\"6\",\"10\",\"3B\",\"C1\",\"C\",\"90\"
\"\",\"\",\"approach-retreat\",\"94\",\"722868\",\"0.0-94.0\",\"\",\"\",\"2-3\",\"4333\",\"38\",\"1\",\"Training\",\"Stims/Figures/87-C-20-4.bmp\",\"vashava\",\"Down\",\"38\",\"6\",\"11\",\"3B\",\"C1\",\"C\",\"91\"
\"\",\"\",\"approach-retreat\",\"95\",\"728841\",\"0.0-95.0\",\"\",\"\",\"2-3\",\"4462\",\"37\",\"1\",\"Training\",\"Stims/Figures/102-C-20-4.bmp\",\"vashava\",\"Right\",\"37\",\"6\",\"12\",\"3B\",\"C1\",\"C\",\"92\"
\"\",\"\",\"approach-retreat\",\"96\",\"734663\",\"0.0-96.0\",\"\",\"\",\"2-3\",\"4311\",\"40\",\"1\",\"Training\",\"Stims/Figures/44-J-10-3.bmp\",\"za:sa:za\",\"Down\",\"40\",\"6\",\"13\",\"3B\",\"C2\",\"C\",\"93\"
\"\",\"\",\"approach-retreat\",\"97\",\"740257\",\"0.0-97.0\",\"\",\"\",\"2-3\",\"4081\",\"39\",\"1\",\"Training\",\"Stims/Figures/87-J-10-4.bmp\",\"za:sa:za\",\"Right\",\"39\",\"6\",\"14\",\"3B\",\"C2\",\"C\",\"94\"
\"\",\"\",\"approach-retreat\",\"98\",\"746096\",\"0.0-98.0\",\"\",\"\",\"2-3\",\"4327\",\"40\",\"1\",\"Training\",\"Stims/Figures/100-C-30-3.bmp\",\"vashava\",\"Up\",\"40\",\"6\",\"15\",\"3B\",\"C1\",\"C\",\"95\"
\"\",\"\",\"approach-retreat\",\"99\",\"751774\",\"0.0-99.0\",\"\",\"\",\"2-3\",\"4167\",\"37\",\"1\",\"Training\",\"Stims/Figures/102-J-10-4.bmp\",\"za:sa:za\",\"Left\",\"37\",\"6\",\"16\",\"3B\",\"C2\",\"C\",\"96\"
\"\",\"\",\"approach-retreat\",\"100\",\"757368\",\"0.0-100.0\",\"\",\"\",\"2-3\",\"4082\",\"37\",\"1\",\"Training\",\"Stims/Figures/139-J-0-2.bmp\",\"za:sa:za\",\"Left\",\"37\",\"7\",\"1\",\"3B\",\"C2\",\"C\",\"97\"
\"\",\"\",\"approach-retreat\",\"101\",\"763071\",\"0.0-101.0\",\"\",\"\",\"2-3\",\"4191\",\"39\",\"1\",\"Training\",\"Stims/Figures/94-J-0-2.bmp\",\"za:sa:za\",\"Right\",\"39\",\"7\",\"2\",\"3B\",\"C2\",\"C\",\"98\"
\"\",\"\",\"approach-retreat\",\"102\",\"768792\",\"0.0-102.0\",\"\",\"\",\"2-3\",\"4211\",\"40\",\"1\",\"Training\",\"Stims/Figures/57-C-30-1.bmp\",\"vashava\",\"Up\",\"40\",\"7\",\"3\",\"3B\",\"C1\",\"C\",\"99\"
\"\",\"\",\"approach-retreat\",\"103\",\"774447\",\"0.0-103.0\",\"\",\"\",\"2-3\",\"4144\",\"40\",\"1\",\"Training\",\"Stims/Figures/87-C-20-4.bmp\",\"vashava\",\"Up\",\"40\",\"7\",\"4\",\"3B\",\"C1\",\"C\",\"100\"
\"\",\"\",\"approach-retreat\",\"104\",\"780021\",\"0.0-104.0\",\"\",\"\",\"2-3\",\"4063\",\"39\",\"1\",\"Training\",\"Stims/Figures/139-C-20-2.bmp\",\"vashava\",\"Left\",\"39\",\"7\",\"5\",\"3B\",\"C1\",\"C\",\"101\"
\"\",\"\",\"approach-retreat\",\"105\",\"785614\",\"0.0-105.0\",\"\",\"\",\"2-3\",\"4082\",\"39\",\"1\",\"Training\",\"Stims/Figures/86-C-30-1.bmp\",\"vashava\",\"Left\",\"39\",\"7\",\"6\",\"3B\",\"C1\",\"C\",\"102\"
\"\",\"\",\"approach-retreat\",\"106\",\"791483\",\"0.0-106.0\",\"\",\"\",\"2-3\",\"4358\",\"38\",\"1\",\"Training\",\"Stims/Figures/100-C-30-3.bmp\",\"vashava\",\"Down\",\"38\",\"7\",\"7\",\"3B\",\"C1\",\"C\",\"103\"
\"\",\"\",\"approach-retreat\",\"107\",\"797207\",\"0.0-107.0\",\"\",\"\",\"2-3\",\"4212\",\"37\",\"1\",\"Training\",\"Stims/Figures/86-J-0-1.bmp\",\"za:sa:za\",\"Left\",\"37\",\"7\",\"8\",\"3B\",\"C2\",\"C\",\"104\"
\"\",\"\",\"approach-retreat\",\"108\",\"802882\",\"0.0-108.0\",\"\",\"\",\"2-3\",\"4164\",\"40\",\"1\",\"Training\",\"Stims/Figures/44-J-10-3.bmp\",\"za:sa:za\",\"Down\",\"40\",\"7\",\"9\",\"3B\",\"C2\",\"C\",\"105\"
\"\",\"\",\"approach-retreat\",\"109\",\"808633\",\"0.0-109.0\",\"\",\"\",\"2-3\",\"4239\",\"40\",\"1\",\"Training\",\"Stims/Figures/100-J-10-3.bmp\",\"za:sa:za\",\"Down\",\"40\",\"7\",\"10\",\"3B\",\"C2\",\"C\",\"106\"
\"\",\"\",\"approach-retreat\",\"110\",\"814349\",\"0.0-110.0\",\"\",\"\",\"2-3\",\"4204\",\"40\",\"1\",\"Training\",\"Stims/Figures/87-J-10-4.bmp\",\"za:sa:za\",\"Down\",\"40\",\"7\",\"11\",\"3B\",\"C2\",\"C\",\"107\"
\"\",\"\",\"approach-retreat\",\"111\",\"820047\",\"0.0-111.0\",\"\",\"\",\"2-3\",\"4191\",\"40\",\"1\",\"Training\",\"Stims/Figures/94-C-20-2.bmp\",\"vashava\",\"Up\",\"40\",\"7\",\"12\",\"3B\",\"C1\",\"C\",\"108\"
\"\",\"\",\"approach-retreat\",\"112\",\"825674\",\"0.0-112.0\",\"\",\"\",\"2-3\",\"4115\",\"37\",\"1\",\"Training\",\"Stims/Figures/44-C-30-3.bmp\",\"vashava\",\"Right\",\"37\",\"7\",\"13\",\"3B\",\"C1\",\"C\",\"109\"
\"\",\"\",\"approach-retreat\",\"113\",\"831292\",\"0.0-113.0\",\"\",\"\",\"2-3\",\"4105\",\"37\",\"1\",\"Training\",\"Stims/Figures/102-C-20-4.bmp\",\"vashava\",\"Right\",\"37\",\"7\",\"14\",\"3B\",\"C1\",\"C\",\"110\"
\"\",\"\",\"approach-retreat\",\"114\",\"837073\",\"0.0-114.0\",\"\",\"\",\"2-3\",\"4269\",\"38\",\"1\",\"Training\",\"Stims/Figures/102-J-10-4.bmp\",\"za:sa:za\",\"Up\",\"38\",\"7\",\"15\",\"3B\",\"C2\",\"C\",\"111\"
\"\",\"\",\"approach-retreat\",\"115\",\"842698\",\"0.0-115.0\",\"\",\"\",\"2-3\",\"4113\",\"39\",\"1\",\"Training\",\"Stims/Figures/57-J-0-1.bmp\",\"za:sa:za\",\"Right\",\"39\",\"7\",\"16\",\"3B\",\"C2\",\"C\",\"112\"
\"\",\"\",\"approach-retreat\",\"116\",\"848216\",\"0.0-116.0\",\"\",\"\",\"2-3\",\"4005\",\"37\",\"1\",\"Training\",\"Stims/Figures/94-C-20-2.bmp\",\"vashava\",\"Right\",\"37\",\"8\",\"1\",\"3B\",\"C1\",\"C\",\"113\"
\"\",\"\",\"approach-retreat\",\"117\",\"853839\",\"0.0-117.0\",\"\",\"\",\"2-3\",\"4111\",\"37\",\"1\",\"Training\",\"Stims/Figures/44-J-10-3.bmp\",\"za:sa:za\",\"Left\",\"37\",\"8\",\"2\",\"3B\",\"C2\",\"C\",\"114\"
\"\",\"\",\"approach-retreat\",\"118\",\"859450\",\"0.0-118.0\",\"\",\"\",\"2-3\",\"4098\",\"40\",\"1\",\"Training\",\"Stims/Figures/57-J-0-1.bmp\",\"za:sa:za\",\"Down\",\"40\",\"8\",\"3\",\"3B\",\"C2\",\"C\",\"115\"
\"\",\"\",\"approach-retreat\",\"119\",\"864879\",\"0.0-119.0\",\"\",\"\",\"2-3\",\"3919\",\"39\",\"1\",\"Training\",\"Stims/Figures/86-J-0-1.bmp\",\"za:sa:za\",\"Right\",\"39\",\"8\",\"4\",\"3B\",\"C2\",\"C\",\"116\"
\"\",\"\",\"approach-retreat\",\"120\",\"870563\",\"0.0-120.0\",\"\",\"\",\"2-3\",\"4171\",\"38\",\"1\",\"Training\",\"Stims/Figures/100-C-30-3.bmp\",\"vashava\",\"Down\",\"38\",\"8\",\"5\",\"3B\",\"C1\",\"C\",\"117\"
\"\",\"\",\"approach-retreat\",\"121\",\"876517\",\"0.0-121.0\",\"\",\"\",\"2-3\",\"4444\",\"39\",\"1\",\"Training\",\"Stims/Figures/102-J-10-4.bmp\",\"za:sa:za\",\"Right\",\"39\",\"8\",\"6\",\"3B\",\"C2\",\"C\",\"118\"
\"\",\"\",\"approach-retreat\",\"122\",\"882069\",\"0.0-122.0\",\"\",\"\",\"2-3\",\"4040\",\"40\",\"1\",\"Training\",\"Stims/Figures/44-C-30-3.bmp\",\"vashava\",\"Up\",\"40\",\"8\",\"7\",\"3B\",\"C1\",\"C\",\"119\"
\"\",\"\",\"approach-retreat\",\"123\",\"887609\",\"0.0-123.0\",\"\",\"\",\"2-3\",\"4029\",\"40\",\"1\",\"Training\",\"Stims/Figures/102-C-20-4.bmp\",\"vashava\",\"Up\",\"40\",\"8\",\"8\",\"3B\",\"C1\",\"C\",\"120\"
\"\",\"\",\"approach-retreat\",\"124\",\"893193\",\"0.0-124.0\",\"\",\"\",\"2-3\",\"4074\",\"39\",\"1\",\"Training\",\"Stims/Figures/139-C-20-2.bmp\",\"vashava\",\"Left\",\"39\",\"8\",\"9\",\"3B\",\"C1\",\"C\",\"121\"
\"\",\"\",\"approach-retreat\",\"125\",\"898839\",\"0.0-125.0\",\"\",\"\",\"2-3\",\"4134\",\"37\",\"1\",\"Training\",\"Stims/Figures/94-J-0-2.bmp\",\"za:sa:za\",\"Left\",\"37\",\"8\",\"10\",\"3B\",\"C2\",\"C\",\"122\"
\"\",\"\",\"approach-retreat\",\"126\",\"904679\",\"0.0-126.0\",\"\",\"\",\"2-3\",\"4328\",\"38\",\"1\",\"Training\",\"Stims/Figures/100-J-10-3.bmp\",\"za:sa:za\",\"Up\",\"38\",\"8\",\"11\",\"3B\",\"C2\",\"C\",\"123\"
\"\",\"\",\"approach-retreat\",\"127\",\"910328\",\"0.0-127.0\",\"\",\"\",\"2-3\",\"4138\",\"38\",\"1\",\"Training\",\"Stims/Figures/87-C-20-4.bmp\",\"vashava\",\"Down\",\"38\",\"8\",\"12\",\"3B\",\"C1\",\"C\",\"124\"
\"\",\"\",\"approach-retreat\",\"128\",\"915991\",\"0.0-128.0\",\"\",\"\",\"2-3\",\"4151\",\"40\",\"1\",\"Training\",\"Stims/Figures/57-C-30-1.bmp\",\"vashava\",\"Up\",\"40\",\"8\",\"13\",\"3B\",\"C1\",\"C\",\"125\"
\"\",\"\",\"approach-retreat\",\"129\",\"921489\",\"0.0-129.0\",\"\",\"\",\"2-3\",\"3988\",\"37\",\"1\",\"Training\",\"Stims/Figures/86-C-30-1.bmp\",\"vashava\",\"Right\",\"37\",\"8\",\"14\",\"3B\",\"C1\",\"C\",\"126\"
\"\",\"\",\"approach-retreat\",\"130\",\"927327\",\"0.0-130.0\",\"\",\"\",\"2-3\",\"4326\",\"40\",\"1\",\"Training\",\"Stims/Figures/87-J-10-4.bmp\",\"za:sa:za\",\"Down\",\"40\",\"8\",\"15\",\"3B\",\"C2\",\"C\",\"127\"
\"\",\"\",\"approach-retreat\",\"131\",\"932938\",\"0.0-131.0\",\"\",\"\",\"2-3\",\"4099\",\"37\",\"1\",\"Training\",\"Stims/Figures/139-J-0-2.bmp\",\"za:sa:za\",\"Left\",\"37\",\"8\",\"16\",\"3B\",\"C2\",\"C\",\"128\"
\"\",\"\",\"approach-retreat\",\"132\",\"938509\",\"0.0-132.0\",\"\",\"\",\"2-3\",\"4060\",\"37\",\"1\",\"Training\",\"Stims/Figures/44-J-10-3.bmp\",\"za:sa:za\",\"Left\",\"37\",\"9\",\"1\",\"3B\",\"C2\",\"C\",\"129\"
\"\",\"\",\"approach-retreat\",\"133\",\"944085\",\"0.0-133.0\",\"\",\"\",\"2-3\",\"4065\",\"39\",\"1\",\"Training\",\"Stims/Figures/44-C-30-3.bmp\",\"vashava\",\"Left\",\"39\",\"9\",\"2\",\"3B\",\"C1\",\"C\",\"130\"
\"\",\"\",\"approach-retreat\",\"134\",\"949737\",\"0.0-134.0\",\"\",\"\",\"2-3\",\"4141\",\"38\",\"1\",\"Training\",\"Stims/Figures/86-J-0-1.bmp\",\"za:sa:za\",\"Up\",\"38\",\"9\",\"3\",\"3B\",\"C2\",\"C\",\"131\"
\"\",\"\",\"approach-retreat\",\"135\",\"955212\",\"0.0-135.0\",\"\",\"\",\"2-3\",\"3963\",\"39\",\"1\",\"Training\",\"Stims/Figures/102-C-20-4.bmp\",\"vashava\",\"Left\",\"39\",\"9\",\"4\",\"3B\",\"C1\",\"C\",\"132\"
\"\",\"\",\"approach-retreat\",\"136\",\"960913\",\"0.0-136.0\",\"\",\"\",\"2-3\",\"4189\",\"39\",\"1\",\"Training\",\"Stims/Figures/87-J-10-4.bmp\",\"za:sa:za\",\"Right\",\"39\",\"9\",\"5\",\"3B\",\"C2\",\"C\",\"133\"
\"\",\"\",\"approach-retreat\",\"137\",\"966586\",\"0.0-137.0\",\"\",\"\",\"2-3\",\"4161\",\"37\",\"1\",\"Training\",\"Stims/Figures/94-J-0-2.bmp\",\"za:sa:za\",\"Left\",\"37\",\"9\",\"6\",\"3B\",\"C2\",\"C\",\"134\"
\"\",\"\",\"approach-retreat\",\"138\",\"972227\",\"0.0-138.0\",\"\",\"\",\"2-3\",\"4129\",\"40\",\"1\",\"Training\",\"Stims/Figures/57-C-30-1.bmp\",\"vashava\",\"Up\",\"40\",\"9\",\"7\",\"3B\",\"C1\",\"C\",\"135\"
\"\",\"\",\"approach-retreat\",\"139\",\"977916\",\"0.0-139.0\",\"\",\"\",\"2-3\",\"4177\",\"40\",\"1\",\"Training\",\"Stims/Figures/57-J-0-1.bmp\",\"za:sa:za\",\"Down\",\"40\",\"9\",\"8\",\"3B\",\"C2\",\"C\",\"136\"
\"\",\"\",\"approach-retreat\",\"140\",\"983430\",\"0.0-140.0\",\"\",\"\",\"2-3\",\"4003\",\"37\",\"1\",\"Training\",\"Stims/Figures/87-C-20-4.bmp\",\"vashava\",\"Right\",\"37\",\"9\",\"9\",\"3B\",\"C1\",\"C\",\"137\"
\"\",\"\",\"approach-retreat\",\"141\",\"989156\",\"0.0-141.0\",\"\",\"\",\"2-3\",\"4215\",\"38\",\"1\",\"Training\",\"Stims/Figures/100-J-10-3.bmp\",\"za:sa:za\",\"Up\",\"38\",\"9\",\"10\",\"3B\",\"C2\",\"C\",\"138\"
\"\",\"\",\"approach-retreat\",\"142\",\"994802\",\"0.0-142.0\",\"\",\"\",\"2-3\",\"4134\",\"38\",\"1\",\"Training\",\"Stims/Figures/94-C-20-2.bmp\",\"vashava\",\"Down\",\"38\",\"9\",\"11\",\"3B\",\"C1\",\"C\",\"139\"
\"\",\"\",\"approach-retreat\",\"143\",\"1000370\",\"0.0-143.0\",\"\",\"\",\"2-3\",\"4056\",\"37\",\"1\",\"Training\",\"Stims/Figures/86-C-30-1.bmp\",\"vashava\",\"Right\",\"37\",\"9\",\"12\",\"3B\",\"C1\",\"C\",\"140\"
\"\",\"\",\"approach-retreat\",\"144\",\"1005843\",\"0.0-144.0\",\"\",\"\",\"2-3\",\"3961\",\"37\",\"1\",\"Training\",\"Stims/Figures/100-C-30-3.bmp\",\"vashava\",\"Right\",\"37\",\"9\",\"13\",\"3B\",\"C1\",\"C\",\"141\"
\"\",\"\",\"approach-retreat\",\"145\",\"1011760\",\"0.0-145.0\",\"\",\"\",\"2-3\",\"4405\",\"38\",\"1\",\"Training\",\"Stims/Figures/139-J-0-2.bmp\",\"za:sa:za\",\"Up\",\"38\",\"9\",\"14\",\"3B\",\"C2\",\"C\",\"142\"
\"\",\"\",\"approach-retreat\",\"146\",\"1017820\",\"0.0-146.0\",\"\",\"\",\"2-3\",\"4548\",\"40\",\"1\",\"Training\",\"Stims/Figures/102-J-10-4.bmp\",\"za:sa:za\",\"Down\",\"40\",\"9\",\"15\",\"3B\",\"C2\",\"C\",\"143\"
\"\",\"\",\"approach-retreat\",\"147\",\"1023549\",\"0.0-147.0\",\"\",\"\",\"2-3\",\"4213\",\"38\",\"1\",\"Training\",\"Stims/Figures/139-C-20-2.bmp\",\"vashava\",\"Down\",\"38\",\"9\",\"16\",\"3B\",\"C1\",\"C\",\"144\"
\"15243\",\"\",\"instructions\",\"148\",\"1038792\",\"0.0-148.0\",\"[{\"\"page_index\"\":0,\"\"viewing_time\"\":15243}]\",\"\",\"\",\"\",\"\",\"\",\"\",\"\",\"\",\"\",\"\",\"\",\"\",\"\",\"\",\"\",\"\"
\"\",\"\",\"approach-retreat\",\"149\",\"1045052\",\"0.0-149.0\",\"\",\"\",\"2-3\",\"4751\",\"37\",\"1\",\"Testing\",\"Stims/Figures/93-C-30-1.bmp\",\"vashava\",\"Right\",\"37\",\"1\",\"1\",\"3B\",\"C1\",\"C\",\"1\"
\"\",\"\",\"approach-retreat\",\"150\",\"1051258\",\"0.0-150.0\",\"\",\"\",\"2-3\",\"4695\",\"37\",\"1\",\"Testing\",\"Stims/Figures/139-J-0-2.bmp\",\"za:sa:za\",\"Left\",\"37\",\"1\",\"2\",\"3B\",\"C2\",\"C\",\"2\"
\"\",\"\",\"approach-retreat\",\"151\",\"1057283\",\"0.0-151.0\",\"\",\"\",\"2-3\",\"4516\",\"39\",\"1\",\"Testing\",\"Stims/Figures/86-J-0-1.bmp\",\"za:sa:za\",\"Right\",\"39\",\"1\",\"3\",\"3B\",\"C2\",\"C\",\"3\"
\"\",\"\",\"approach-retreat\",\"152\",\"1063224\",\"0.0-152.0\",\"\",\"\",\"2-3\",\"4433\",\"40\",\"1\",\"Testing\",\"Stims/Figures/57-J-0-1.bmp\",\"za:sa:za\",\"Down\",\"40\",\"1\",\"4\",\"3B\",\"C2\",\"C\",\"4\"
\"\",\"\",\"approach-retreat\",\"153\",\"1069057\",\"0.0-153.0\",\"\",\"\",\"2-3\",\"4323\",\"39\",\"1\",\"Testing\",\"Stims/Figures/94-J-0-2.bmp\",\"za:sa:za\",\"Right\",\"39\",\"1\",\"5\",\"3B\",\"C2\",\"C\",\"5\"
\"\",\"\",\"approach-retreat\",\"154\",\"1074890\",\"0.0-154.0\",\"\",\"\",\"2-3\",\"4322\",\"40\",\"1\",\"Testing\",\"Stims/Figures/87-C-20-4.bmp\",\"vashava\",\"Up\",\"40\",\"1\",\"6\",\"3B\",\"C1\",\"C\",\"6\"
\"\",\"\",\"approach-retreat\",\"155\",\"1080759\",\"0.0-155.0\",\"\",\"\",\"2-3\",\"4360\",\"38\",\"1\",\"Testing\",\"Stims/Figures/100-C-30-3.bmp\",\"vashava\",\"Down\",\"38\",\"1\",\"7\",\"3B\",\"C1\",\"C\",\"7\"
\"\",\"\",\"approach-retreat\",\"156\",\"1086623\",\"0.0-156.0\",\"\",\"\",\"2-3\",\"4355\",\"40\",\"1\",\"Testing\",\"Stims/Figures/74-C-20-4.bmp\",\"vashava\",\"Up\",\"40\",\"1\",\"8\",\"3B\",\"C1\",\"C\",\"8\"
\"\",\"\",\"approach-retreat\",\"157\",\"1092469\",\"0.0-157.0\",\"\",\"\",\"2-3\",\"4337\",\"38\",\"1\",\"Testing\",\"Stims/Figures/57-C-30-1.bmp\",\"vashava\",\"Down\",\"38\",\"1\",\"9\",\"3B\",\"C1\",\"C\",\"9\"
\"\",\"\",\"approach-retreat\",\"158\",\"1098674\",\"0.0-158.0\",\"\",\"\",\"2-3\",\"4696\",\"38\",\"1\",\"Testing\",\"Stims/Figures/74-J-10-4.bmp\",\"za:sa:za\",\"Up\",\"38\",\"1\",\"10\",\"3B\",\"C2\",\"C\",\"10\"
\"\",\"\",\"approach-retreat\",\"159\",\"1104696\",\"0.0-159.0\",\"\",\"\",\"2-3\",\"4511\",\"39\",\"1\",\"Testing\",\"Stims/Figures/44-C-30-3.bmp\",\"vashava\",\"Left\",\"39\",\"1\",\"11\",\"3B\",\"C1\",\"C\",\"11\"
\"\",\"\",\"approach-retreat\",\"160\",\"1110764\",\"0.0-160.0\",\"\",\"\",\"2-3\",\"4559\",\"37\",\"1\",\"Testing\",\"Stims/Figures/139-C-20-2.bmp\",\"vashava\",\"Right\",\"37\",\"1\",\"12\",\"3B\",\"C1\",\"C\",\"12\"
\"\",\"\",\"approach-retreat\",\"161\",\"1116980\",\"0.0-161.0\",\"\",\"\",\"2-3\",\"4706\",\"38\",\"1\",\"Testing\",\"Stims/Figures/84-C-20-2.bmp\",\"vashava\",\"Down\",\"38\",\"1\",\"13\",\"3B\",\"C1\",\"C\",\"13\"
\"\",\"\",\"approach-retreat\",\"162\",\"1122691\",\"0.0-162.0\",\"\",\"\",\"2-3\",\"4202\",\"39\",\"1\",\"Testing\",\"Stims/Figures/93-J-0-1.bmp\",\"za:sa:za\",\"Right\",\"39\",\"1\",\"14\",\"3B\",\"C2\",\"C\",\"14\"
\"\",\"\",\"approach-retreat\",\"163\",\"1128578\",\"0.0-163.0\",\"\",\"\",\"2-3\",\"4376\",\"40\",\"1\",\"Testing\",\"Stims/Figures/94-C-20-2.bmp\",\"vashava\",\"Up\",\"40\",\"1\",\"15\",\"3B\",\"C1\",\"C\",\"15\"
\"\",\"\",\"approach-retreat\",\"164\",\"1134750\",\"0.0-164.0\",\"\",\"\",\"2-3\",\"4663\",\"40\",\"1\",\"Testing\",\"Stims/Figures/102-J-10-4.bmp\",\"za:sa:za\",\"Down\",\"40\",\"1\",\"16\",\"3B\",\"C2\",\"C\",\"16\"
\"\",\"\",\"approach-retreat\",\"165\",\"1140466\",\"0.0-165.0\",\"\",\"\",\"2-3\",\"4205\",\"39\",\"1\",\"Testing\",\"Stims/Figures/44-J-10-3.bmp\",\"za:sa:za\",\"Right\",\"39\",\"1\",\"17\",\"3B\",\"C2\",\"C\",\"17\"
\"\",\"\",\"approach-retreat\",\"166\",\"1146664\",\"0.0-166.0\",\"\",\"\",\"2-3\",\"4689\",\"40\",\"1\",\"Testing\",\"Stims/Figures/102-C-20-4.bmp\",\"vashava\",\"Up\",\"40\",\"1\",\"18\",\"3B\",\"C1\",\"C\",\"18\"
\"\",\"\",\"approach-retreat\",\"167\",\"1152803\",\"0.0-167.0\",\"\",\"\",\"2-3\",\"4621\",\"38\",\"1\",\"Testing\",\"Stims/Figures/87-J-10-4.bmp\",\"za:sa:za\",\"Up\",\"38\",\"1\",\"19\",\"3B\",\"C2\",\"C\",\"19\"
\"\",\"\",\"approach-retreat\",\"168\",\"1158525\",\"0.0-168.0\",\"\",\"\",\"2-3\",\"4213\",\"37\",\"1\",\"Testing\",\"Stims/Figures/84-J-0-2.bmp\",\"za:sa:za\",\"Left\",\"37\",\"1\",\"20\",\"3B\",\"C2\",\"C\",\"20\"
\"\",\"\",\"approach-retreat\",\"169\",\"1164503\",\"0.0-169.0\",\"\",\"\",\"2-3\",\"4469\",\"37\",\"1\",\"Testing\",\"Stims/Figures/144-J-10-3.bmp\",\"za:sa:za\",\"Left\",\"37\",\"1\",\"21\",\"3B\",\"C2\",\"C\",\"21\"
\"\",\"\",\"approach-retreat\",\"170\",\"1170176\",\"0.0-170.0\",\"\",\"\",\"2-3\",\"4160\",\"39\",\"1\",\"Testing\",\"Stims/Figures/144-C-30-3.bmp\",\"vashava\",\"Left\",\"39\",\"1\",\"22\",\"3B\",\"C1\",\"C\",\"22\"
\"\",\"\",\"approach-retreat\",\"171\",\"1175901\",\"0.0-171.0\",\"\",\"\",\"2-3\",\"4215\",\"38\",\"1\",\"Testing\",\"Stims/Figures/86-C-30-1.bmp\",\"vashava\",\"Down\",\"38\",\"1\",\"23\",\"3B\",\"C1\",\"C\",\"23\"
\"\",\"\",\"approach-retreat\",\"172\",\"1182657\",\"0.0-172.0\",\"\",\"\",\"2-3\",\"5245\",\"37\",\"1\",\"Testing\",\"Stims/Figures/100-J-10-3.bmp\",\"za:sa:za\",\"Left\",\"37\",\"1\",\"24\",\"3B\",\"C2\",\"C\",\"24\"
\"\",\"\",\"approach-retreat\",\"173\",\"1188557\",\"0.0-173.0\",\"\",\"\",\"2-3\",\"4389\",\"37\",\"1\",\"Testing\",\"Stims/Figures/139-J-0-2.bmp\",\"za:sa:za\",\"Left\",\"37\",\"2\",\"1\",\"3B\",\"C2\",\"C\",\"25\"
\"\",\"\",\"approach-retreat\",\"174\",\"1194693\",\"0.0-174.0\",\"\",\"\",\"2-3\",\"4627\",\"40\",\"1\",\"Testing\",\"Stims/Figures/57-J-0-1.bmp\",\"za:sa:za\",\"Down\",\"40\",\"2\",\"2\",\"3B\",\"C2\",\"C\",\"26\"
\"\",\"\",\"approach-retreat\",\"175\",\"1200415\",\"0.0-175.0\",\"\",\"\",\"2-3\",\"4213\",\"38\",\"1\",\"Testing\",\"Stims/Figures/84-C-20-2.bmp\",\"vashava\",\"Down\",\"38\",\"2\",\"3\",\"3B\",\"C1\",\"C\",\"27\"
\"\",\"\",\"approach-retreat\",\"176\",\"1206329\",\"0.0-176.0\",\"\",\"\",\"2-3\",\"4403\",\"40\",\"1\",\"Testing\",\"Stims/Figures/86-J-0-1.bmp\",\"za:sa:za\",\"Down\",\"40\",\"2\",\"4\",\"3B\",\"C2\",\"C\",\"28\"
\"\",\"\",\"approach-retreat\",\"177\",\"1212342\",\"0.0-177.0\",\"\",\"\",\"2-3\",\"4505\",\"38\",\"1\",\"Testing\",\"Stims/Figures/74-J-10-4.bmp\",\"za:sa:za\",\"Up\",\"38\",\"2\",\"5\",\"3B\",\"C2\",\"C\",\"29\"
\"\",\"\",\"approach-retreat\",\"178\",\"1218254\",\"0.0-178.0\",\"\",\"\",\"2-3\",\"4401\",\"37\",\"1\",\"Testing\",\"Stims/Figures/57-C-30-1.bmp\",\"vashava\",\"Right\",\"37\",\"2\",\"6\",\"3B\",\"C1\",\"C\",\"30\"
\"\",\"\",\"approach-retreat\",\"179\",\"1224049\",\"0.0-179.0\",\"\",\"\",\"2-3\",\"4285\",\"40\",\"1\",\"Testing\",\"Stims/Figures/94-J-0-2.bmp\",\"za:sa:za\",\"Down\",\"40\",\"2\",\"7\",\"3B\",\"C2\",\"C\",\"31\"
\"\",\"\",\"approach-retreat\",\"180\",\"1230004\",\"0.0-180.0\",\"\",\"\",\"2-3\",\"4445\",\"37\",\"1\",\"Testing\",\"Stims/Figures/74-C-20-4.bmp\",\"vashava\",\"Right\",\"37\",\"2\",\"8\",\"3B\",\"C1\",\"C\",\"32\"
\"\",\"\",\"approach-retreat\",\"181\",\"1235640\",\"0.0-181.0\",\"\",\"\",\"2-3\",\"4126\",\"39\",\"1\",\"Testing\",\"Stims/Figures/87-C-20-4.bmp\",\"vashava\",\"Left\",\"39\",\"2\",\"9\",\"3B\",\"C1\",\"C\",\"33\"
\"\",\"\",\"approach-retreat\",\"182\",\"1242671\",\"0.0-182.0\",\"\",\"\",\"2-3\",\"5521\",\"40\",\"0\",\"Testing\",\"Stims/Figures/100-J-10-3.bmp\",\"za:sa:za\",\"Up\",\"38\",\"2\",\"10\",\"3B\",\"C2\",\"C\",\"34\"
\"\",\"\",\"approach-retreat\",\"183\",\"1248920\",\"0.0-183.0\",\"\",\"\",\"2-3\",\"4739\",\"37\",\"0\",\"Testing\",\"Stims/Figures/87-J-10-4.bmp\",\"za:sa:za\",\"Right\",\"39\",\"2\",\"11\",\"3B\",\"C2\",\"C\",\"35\"
\"\",\"\",\"approach-retreat\",\"184\",\"1254668\",\"0.0-184.0\",\"\",\"\",\"2-3\",\"4239\",\"40\",\"1\",\"Testing\",\"Stims/Figures/144-C-30-3.bmp\",\"vashava\",\"Up\",\"40\",\"2\",\"12\",\"3B\",\"C1\",\"C\",\"36\"
\"\",\"\",\"approach-retreat\",\"185\",\"1260440\",\"0.0-185.0\",\"\",\"\",\"2-3\",\"4264\",\"38\",\"1\",\"Testing\",\"Stims/Figures/93-J-0-1.bmp\",\"za:sa:za\",\"Up\",\"38\",\"2\",\"13\",\"3B\",\"C2\",\"C\",\"37\"
\"\",\"\",\"approach-retreat\",\"186\",\"1266338\",\"0.0-186.0\",\"\",\"\",\"2-3\",\"4389\",\"38\",\"1\",\"Testing\",\"Stims/Figures/44-J-10-3.bmp\",\"za:sa:za\",\"Up\",\"38\",\"2\",\"14\",\"3B\",\"C2\",\"C\",\"38\"
\"\",\"\",\"approach-retreat\",\"187\",\"1272500\",\"0.0-187.0\",\"\",\"\",\"2-3\",\"4651\",\"39\",\"1\",\"Testing\",\"Stims/Figures/84-J-0-2.bmp\",\"za:sa:za\",\"Right\",\"39\",\"2\",\"15\",\"3B\",\"C2\",\"C\",\"39\"
\"\",\"\",\"approach-retreat\",\"188\",\"1278146\",\"0.0-188.0\",\"\",\"\",\"2-3\",\"4136\",\"40\",\"1\",\"Testing\",\"Stims/Figures/94-C-20-2.bmp\",\"vashava\",\"Up\",\"40\",\"2\",\"16\",\"3B\",\"C1\",\"C\",\"40\"
\"\",\"\",\"approach-retreat\",\"189\",\"1284073\",\"0.0-189.0\",\"\",\"\",\"2-3\",\"4417\",\"40\",\"1\",\"Testing\",\"Stims/Figures/102-J-10-4.bmp\",\"za:sa:za\",\"Down\",\"40\",\"2\",\"17\",\"3B\",\"C2\",\"C\",\"41\"
\"\",\"\",\"approach-retreat\",\"190\",\"1289785\",\"0.0-190.0\",\"\",\"\",\"2-3\",\"4202\",\"39\",\"1\",\"Testing\",\"Stims/Figures/44-C-30-3.bmp\",\"vashava\",\"Left\",\"39\",\"2\",\"18\",\"3B\",\"C1\",\"C\",\"42\"
\"\",\"\",\"approach-retreat\",\"191\",\"1295434\",\"0.0-191.0\",\"\",\"\",\"2-3\",\"4138\",\"39\",\"1\",\"Testing\",\"Stims/Figures/139-C-20-2.bmp\",\"vashava\",\"Left\",\"39\",\"2\",\"19\",\"3B\",\"C1\",\"C\",\"43\"
\"\",\"\",\"approach-retreat\",\"192\",\"1301061\",\"0.0-192.0\",\"\",\"\",\"2-3\",\"4117\",\"39\",\"1\",\"Testing\",\"Stims/Figures/93-C-30-1.bmp\",\"vashava\",\"Left\",\"39\",\"2\",\"20\",\"3B\",\"C1\",\"C\",\"44\"
\"\",\"\",\"approach-retreat\",\"193\",\"1307528\",\"0.0-193.0\",\"\",\"\",\"2-3\",\"4958\",\"39\",\"1\",\"Testing\",\"Stims/Figures/102-C-20-4.bmp\",\"vashava\",\"Left\",\"39\",\"2\",\"21\",\"3B\",\"C1\",\"C\",\"45\"
\"\",\"\",\"approach-retreat\",\"194\",\"1313279\",\"0.0-194.0\",\"\",\"\",\"2-3\",\"4241\",\"38\",\"1\",\"Testing\",\"Stims/Figures/100-C-30-3.bmp\",\"vashava\",\"Down\",\"38\",\"2\",\"22\",\"3B\",\"C1\",\"C\",\"46\"
\"\",\"\",\"approach-retreat\",\"195\",\"1319103\",\"0.0-195.0\",\"\",\"\",\"2-3\",\"4315\",\"39\",\"1\",\"Testing\",\"Stims/Figures/144-J-10-3.bmp\",\"za:sa:za\",\"Right\",\"39\",\"2\",\"23\",\"3B\",\"C2\",\"C\",\"47\"
\"\",\"\",\"approach-retreat\",\"196\",\"1324971\",\"0.0-196.0\",\"\",\"\",\"2-3\",\"4358\",\"37\",\"1\",\"Testing\",\"Stims/Figures/86-C-30-1.bmp\",\"vashava\",\"Right\",\"37\",\"2\",\"24\",\"3B\",\"C1\",\"C\",\"48\"
\"\",\"\",\"approach-retreat\",\"197\",\"1330762\",\"0.0-197.0\",\"\",\"\",\"2-3\",\"4280\",\"40\",\"1\",\"Testing\",\"Stims/Figures/94-J-0-2.bmp\",\"za:sa:za\",\"Down\",\"40\",\"3\",\"1\",\"3B\",\"C2\",\"C\",\"49\"
\"\",\"\",\"approach-retreat\",\"198\",\"1336572\",\"0.0-198.0\",\"\",\"\",\"2-3\",\"4301\",\"40\",\"1\",\"Testing\",\"Stims/Figures/139-C-20-2.bmp\",\"vashava\",\"Up\",\"40\",\"3\",\"2\",\"3B\",\"C1\",\"C\",\"50\"
\"\",\"\",\"approach-retreat\",\"199\",\"1342242\",\"0.0-199.0\",\"\",\"\",\"2-3\",\"4159\",\"38\",\"1\",\"Testing\",\"Stims/Figures/84-J-0-2.bmp\",\"za:sa:za\",\"Up\",\"38\",\"3\",\"3\",\"3B\",\"C2\",\"C\",\"51\"
\"\",\"\",\"approach-retreat\",\"200\",\"1348759\",\"0.0-200.0\",\"\",\"\",\"2-3\",\"5008\",\"40\",\"1\",\"Testing\",\"Stims/Figures/84-C-20-2.bmp\",\"vashava\",\"Up\",\"40\",\"3\",\"4\",\"3B\",\"C1\",\"C\",\"52\"
\"\",\"\",\"approach-retreat\",\"201\",\"1354673\",\"0.0-201.0\",\"\",\"\",\"2-3\",\"4405\",\"38\",\"1\",\"Testing\",\"Stims/Figures/87-C-20-4.bmp\",\"vashava\",\"Down\",\"38\",\"3\",\"5\",\"3B\",\"C1\",\"C\",\"53\"
\"\",\"\",\"approach-retreat\",\"202\",\"1360565\",\"0.0-202.0\",\"\",\"\",\"2-3\",\"4383\",\"39\",\"1\",\"Testing\",\"Stims/Figures/102-C-20-4.bmp\",\"vashava\",\"Left\",\"39\",\"3\",\"6\",\"3B\",\"C1\",\"C\",\"54\"
\"\",\"\",\"approach-retreat\",\"203\",\"1366488\",\"0.0-203.0\",\"\",\"\",\"2-3\",\"4414\",\"37\",\"1\",\"Testing\",\"Stims/Figures/93-C-30-1.bmp\",\"vashava\",\"Right\",\"37\",\"3\",\"7\",\"3B\",\"C1\",\"C\",\"55\"
\"\",\"\",\"approach-retreat\",\"204\",\"1372373\",\"0.0-204.0\",\"\",\"\",\"2-3\",\"4375\",\"39\",\"1\",\"Testing\",\"Stims/Figures/93-J-0-1.bmp\",\"za:sa:za\",\"Right\",\"39\",\"3\",\"8\",\"3B\",\"C2\",\"C\",\"56\"
\"\",\"\",\"approach-retreat\",\"205\",\"1378098\",\"0.0-205.0\",\"\",\"\",\"2-3\",\"4217\",\"40\",\"1\",\"Testing\",\"Stims/Figures/100-C-30-3.bmp\",\"vashava\",\"Up\",\"40\",\"3\",\"9\",\"3B\",\"C1\",\"C\",\"57\"
\"\",\"\",\"approach-retreat\",\"206\",\"1383739\",\"0.0-206.0\",\"\",\"\",\"2-3\",\"4132\",\"38\",\"1\",\"Testing\",\"Stims/Figures/94-C-20-2.bmp\",\"vashava\",\"Down\",\"38\",\"3\",\"10\",\"3B\",\"C1\",\"C\",\"58\"
\"\",\"\",\"approach-retreat\",\"207\",\"1389577\",\"0.0-207.0\",\"\",\"\",\"2-3\",\"4329\",\"37\",\"1\",\"Testing\",\"Stims/Figures/86-C-30-1.bmp\",\"vashava\",\"Right\",\"37\",\"3\",\"11\",\"3B\",\"C1\",\"C\",\"59\"
\"\",\"\",\"approach-retreat\",\"208\",\"1395204\",\"0.0-208.0\",\"\",\"\",\"2-3\",\"4116\",\"37\",\"1\",\"Testing\",\"Stims/Figures/144-C-30-3.bmp\",\"vashava\",\"Right\",\"37\",\"3\",\"12\",\"3B\",\"C1\",\"C\",\"60\"
\"\",\"\",\"approach-retreat\",\"209\",\"1401590\",\"0.0-209.0\",\"\",\"\",\"2-3\",\"4877\",\"40\",\"1\",\"Testing\",\"Stims/Figures/144-J-10-3.bmp\",\"za:sa:za\",\"Down\",\"40\",\"3\",\"13\",\"3B\",\"C2\",\"C\",\"61\"
\"\",\"\",\"approach-retreat\",\"210\",\"1407768\",\"0.0-210.0\",\"\",\"\",\"2-3\",\"4669\",\"38\",\"1\",\"Testing\",\"Stims/Figures/139-J-0-2.bmp\",\"za:sa:za\",\"Up\",\"38\",\"3\",\"14\",\"3B\",\"C2\",\"C\",\"62\"
\"\",\"\",\"approach-retreat\",\"211\",\"1413341\",\"0.0-211.0\",\"\",\"\",\"2-3\",\"4062\",\"39\",\"1\",\"Testing\",\"Stims/Figures/44-C-30-3.bmp\",\"vashava\",\"Left\",\"39\",\"3\",\"15\",\"3B\",\"C1\",\"C\",\"63\"
\"\",\"\",\"approach-retreat\",\"212\",\"1419173\",\"0.0-212.0\",\"\",\"\",\"2-3\",\"4323\",\"39\",\"1\",\"Testing\",\"Stims/Figures/74-C-20-4.bmp\",\"vashava\",\"Left\",\"39\",\"3\",\"16\",\"3B\",\"C1\",\"C\",\"64\"
\"\",\"\",\"approach-retreat\",\"213\",\"1424711\",\"0.0-213.0\",\"\",\"\",\"2-3\",\"4029\",\"37\",\"1\",\"Testing\",\"Stims/Figures/102-J-10-4.bmp\",\"za:sa:za\",\"Left\",\"37\",\"3\",\"17\",\"3B\",\"C2\",\"C\",\"65\"
\"\",\"\",\"approach-retreat\",\"214\",\"1430807\",\"0.0-214.0\",\"\",\"\",\"2-3\",\"4588\",\"39\",\"1\",\"Testing\",\"Stims/Figures/57-C-30-1.bmp\",\"vashava\",\"Left\",\"39\",\"3\",\"18\",\"3B\",\"C1\",\"C\",\"66\"
\"\",\"\",\"approach-retreat\",\"215\",\"1436710\",\"0.0-215.0\",\"\",\"\",\"2-3\",\"4394\",\"40\",\"1\",\"Testing\",\"Stims/Figures/86-J-0-1.bmp\",\"za:sa:za\",\"Down\",\"40\",\"3\",\"19\",\"3B\",\"C2\",\"C\",\"67\"
\"\",\"\",\"approach-retreat\",\"216\",\"1442539\",\"0.0-216.0\",\"\",\"\",\"2-3\",\"4321\",\"39\",\"1\",\"Testing\",\"Stims/Figures/100-J-10-3.bmp\",\"za:sa:za\",\"Right\",\"39\",\"3\",\"20\",\"3B\",\"C2\",\"C\",\"68\"
\"\",\"\",\"approach-retreat\",\"217\",\"1448426\",\"0.0-217.0\",\"\",\"\",\"2-3\",\"4378\",\"39\",\"1\",\"Testing\",\"Stims/Figures/74-J-10-4.bmp\",\"za:sa:za\",\"Right\",\"39\",\"3\",\"21\",\"3B\",\"C2\",\"C\",\"69\"
\"\",\"\",\"approach-retreat\",\"218\",\"1454651\",\"0.0-218.0\",\"\",\"\",\"2-3\",\"4716\",\"38\",\"1\",\"Testing\",\"Stims/Figures/87-J-10-4.bmp\",\"za:sa:za\",\"Up\",\"38\",\"3\",\"22\",\"3B\",\"C2\",\"C\",\"70\"
\"\",\"\",\"approach-retreat\",\"219\",\"1460403\",\"0.0-219.0\",\"\",\"\",\"2-3\",\"4243\",\"37\",\"1\",\"Testing\",\"Stims/Figures/57-J-0-1.bmp\",\"za:sa:za\",\"Left\",\"37\",\"3\",\"23\",\"3B\",\"C2\",\"C\",\"71\"
\"\",\"\",\"approach-retreat\",\"220\",\"1466194\",\"0.0-220.0\",\"\",\"\",\"2-3\",\"4281\",\"40\",\"1\",\"Testing\",\"Stims/Figures/44-J-10-3.bmp\",\"za:sa:za\",\"Down\",\"40\",\"3\",\"24\",\"3B\",\"C2\",\"C\",\"72\"
\"\",\"\",\"approach-retreat\",\"221\",\"1471866\",\"0.0-221.0\",\"\",\"\",\"2-3\",\"4163\",\"40\",\"1\",\"Testing\",\"Stims/Figures/84-J-0-2.bmp\",\"za:sa:za\",\"Down\",\"40\",\"4\",\"1\",\"3B\",\"C2\",\"C\",\"73\"
\"\",\"\",\"approach-retreat\",\"222\",\"1477696\",\"0.0-222.0\",\"\",\"\",\"2-3\",\"4322\",\"40\",\"1\",\"Testing\",\"Stims/Figures/100-C-30-3.bmp\",\"vashava\",\"Up\",\"40\",\"4\",\"2\",\"3B\",\"C1\",\"C\",\"74\"
\"\",\"\",\"approach-retreat\",\"223\",\"1483549\",\"0.0-223.0\",\"\",\"\",\"2-3\",\"4343\",\"39\",\"1\",\"Testing\",\"Stims/Figures/139-J-0-2.bmp\",\"za:sa:za\",\"Right\",\"39\",\"4\",\"3\",\"3B\",\"C2\",\"C\",\"75\"
\"\",\"\",\"approach-retreat\",\"224\",\"1489297\",\"0.0-224.0\",\"\",\"\",\"2-3\",\"4239\",\"39\",\"1\",\"Testing\",\"Stims/Figures/102-J-10-4.bmp\",\"za:sa:za\",\"Right\",\"39\",\"4\",\"4\",\"3B\",\"C2\",\"C\",\"76\"
\"\",\"\",\"approach-retreat\",\"225\",\"1494937\",\"0.0-225.0\",\"\",\"\",\"2-3\",\"4131\",\"39\",\"1\",\"Testing\",\"Stims/Figures/93-J-0-1.bmp\",\"za:sa:za\",\"Right\",\"39\",\"4\",\"5\",\"3B\",\"C2\",\"C\",\"77\"
\"\",\"\",\"approach-retreat\",\"226\",\"1500554\",\"0.0-226.0\",\"\",\"\",\"2-3\",\"4107\",\"40\",\"1\",\"Testing\",\"Stims/Figures/44-C-30-3.bmp\",\"vashava\",\"Up\",\"40\",\"4\",\"6\",\"3B\",\"C1\",\"C\",\"78\"
\"\",\"\",\"approach-retreat\",\"227\",\"1506804\",\"0.0-227.0\",\"\",\"\",\"2-3\",\"4741\",\"38\",\"1\",\"Testing\",\"Stims/Figures/144-J-10-3.bmp\",\"za:sa:za\",\"Up\",\"38\",\"4\",\"7\",\"3B\",\"C2\",\"C\",\"79\"
\"\",\"\",\"approach-retreat\",\"228\",\"1512551\",\"0.0-228.0\",\"\",\"\",\"2-3\",\"4237\",\"40\",\"1\",\"Testing\",\"Stims/Figures/57-C-30-1.bmp\",\"vashava\",\"Up\",\"40\",\"4\",\"8\",\"3B\",\"C1\",\"C\",\"80\"
\"\",\"\",\"approach-retreat\",\"229\",\"1518683\",\"0.0-229.0\",\"\",\"\",\"2-3\",\"4623\",\"38\",\"1\",\"Testing\",\"Stims/Figures/139-C-20-2.bmp\",\"vashava\",\"Down\",\"38\",\"4\",\"9\",\"3B\",\"C1\",\"C\",\"81\"
\"\",\"\",\"approach-retreat\",\"230\",\"1524338\",\"0.0-230.0\",\"\",\"\",\"2-3\",\"4145\",\"38\",\"1\",\"Testing\",\"Stims/Figures/93-C-30-1.bmp\",\"vashava\",\"Down\",\"38\",\"4\",\"10\",\"3B\",\"C1\",\"C\",\"82\"
\"\",\"\",\"approach-retreat\",\"231\",\"1530155\",\"0.0-231.0\",\"\",\"\",\"2-3\",\"4306\",\"39\",\"1\",\"Testing\",\"Stims/Figures/86-J-0-1.bmp\",\"za:sa:za\",\"Right\",\"39\",\"4\",\"11\",\"3B\",\"C2\",\"C\",\"83\"
\"\",\"\",\"approach-retreat\",\"232\",\"1536714\",\"0.0-232.0\",\"\",\"\",\"2-3\",\"5048\",\"40\",\"1\",\"Testing\",\"Stims/Figures/94-C-20-2.bmp\",\"vashava\",\"Up\",\"40\",\"4\",\"12\",\"3B\",\"C1\",\"C\",\"84\"
\"\",\"\",\"approach-retreat\",\"233\",\"1543749\",\"0.0-233.0\",\"\",\"\",\"2-3\",\"5523\",\"39\",\"0\",\"Testing\",\"Stims/Figures/87-J-10-4.bmp\",\"za:sa:za\",\"Left\",\"37\",\"4\",\"13\",\"3B\",\"C2\",\"C\",\"85\"
\"\",\"\",\"approach-retreat\",\"234\",\"1549708\",\"0.0-234.0\",\"\",\"\",\"2-3\",\"4450\",\"37\",\"1\",\"Testing\",\"Stims/Figures/87-C-20-4.bmp\",\"vashava\",\"Right\",\"37\",\"4\",\"14\",\"3B\",\"C1\",\"C\",\"86\"
\"\",\"\",\"approach-retreat\",\"235\",\"1555335\",\"0.0-235.0\",\"\",\"\",\"2-3\",\"4118\",\"40\",\"1\",\"Testing\",\"Stims/Figures/84-C-20-2.bmp\",\"vashava\",\"Up\",\"40\",\"4\",\"15\",\"3B\",\"C1\",\"C\",\"87\"
\"\",\"\",\"approach-retreat\",\"236\",\"1561136\",\"0.0-236.0\",\"\",\"\",\"2-3\",\"4290\",\"38\",\"1\",\"Testing\",\"Stims/Figures/144-C-30-3.bmp\",\"vashava\",\"Down\",\"38\",\"4\",\"16\",\"3B\",\"C1\",\"C\",\"88\"
\"\",\"\",\"approach-retreat\",\"237\",\"1566867\",\"0.0-237.0\",\"\",\"\",\"2-3\",\"4222\",\"39\",\"1\",\"Testing\",\"Stims/Figures/86-C-30-1.bmp\",\"vashava\",\"Left\",\"39\",\"4\",\"17\",\"3B\",\"C1\",\"C\",\"89\"
\"\",\"\",\"approach-retreat\",\"238\",\"1572596\",\"0.0-238.0\",\"\",\"\",\"2-3\",\"4220\",\"37\",\"1\",\"Testing\",\"Stims/Figures/74-J-10-4.bmp\",\"za:sa:za\",\"Left\",\"37\",\"4\",\"18\",\"3B\",\"C2\",\"C\",\"90\"
\"\",\"\",\"approach-retreat\",\"239\",\"1578393\",\"0.0-239.0\",\"\",\"\",\"2-3\",\"4287\",\"40\",\"1\",\"Testing\",\"Stims/Figures/44-J-10-3.bmp\",\"za:sa:za\",\"Down\",\"40\",\"4\",\"19\",\"3B\",\"C2\",\"C\",\"91\"
\"\",\"\",\"approach-retreat\",\"240\",\"1584071\",\"0.0-240.0\",\"\",\"\",\"2-3\",\"4167\",\"37\",\"1\",\"Testing\",\"Stims/Figures/100-J-10-3.bmp\",\"za:sa:za\",\"Left\",\"37\",\"4\",\"20\",\"3B\",\"C2\",\"C\",\"92\"
\"\",\"\",\"approach-retreat\",\"241\",\"1589656\",\"0.0-241.0\",\"\",\"\",\"2-3\",\"4075\",\"39\",\"1\",\"Testing\",\"Stims/Figures/102-C-20-4.bmp\",\"vashava\",\"Left\",\"39\",\"4\",\"21\",\"3B\",\"C1\",\"C\",\"93\"
\"\",\"\",\"approach-retreat\",\"242\",\"1595436\",\"0.0-242.0\",\"\",\"\",\"2-3\",\"4275\",\"37\",\"1\",\"Testing\",\"Stims/Figures/74-C-20-4.bmp\",\"vashava\",\"Right\",\"37\",\"4\",\"22\",\"3B\",\"C1\",\"C\",\"94\"
\"\",\"\",\"approach-retreat\",\"243\",\"1601129\",\"0.0-243.0\",\"\",\"\",\"2-3\",\"4185\",\"37\",\"1\",\"Testing\",\"Stims/Figures/94-J-0-2.bmp\",\"za:sa:za\",\"Left\",\"37\",\"4\",\"23\",\"3B\",\"C2\",\"C\",\"95\"
\"\",\"\",\"approach-retreat\",\"244\",\"1606875\",\"0.0-244.0\",\"\",\"\",\"2-3\",\"4238\",\"40\",\"1\",\"Testing\",\"Stims/Figures/57-J-0-1.bmp\",\"za:sa:za\",\"Down\",\"40\",\"4\",\"24\",\"3B\",\"C2\",\"C\",\"96\"
\"24224\",\"\",\"survey-text\",\"245\",\"1631106\",\"0.0-245.0\",\"\",\"{\"\"Q0\"\":\"\"PS990072\"\"}\",\"\",\"\",\"\",\"\",\"\",\"\",\"\",\"\",\"\",\"\",\"\",\"\",\"\",\"\",\"\"
