\"rt\",\"key_press\",\"trial_type\",\"trial_index\",\"time_elapsed\",\"internal_node_id\",\"view_history\",\"responses\",\"Id\",\"Rt\",\"ResKeyCode\",\"ResCorr\",\"TrialType2\",\"Image\",\"Label\",\"Location\",\"CorrectResponse\",\"Block\",\"BlockTrial\",\"Condition\",\"LabelType\",\"Subcondition\",\"trialNum\"
\"90423\",\"32\",\"text\",\"0\",\"90428\",\"0.0-0.0-0.0\",\"\",\"\",\"\",\"\",\"\",\"\",\"\",\"\",\"\",\"\",\"\",\"\",\"\",\"\",\"\",\"\",\"\"
\"69827\",\"\",\"instructions\",\"1\",\"160261\",\"0.0-1.0\",\"[{\"\"page_index\"\":0,\"\"viewing_time\"\":69826}]\",\"\",\"\",\"\",\"\",\"\",\"\",\"\",\"\",\"\",\"\",\"\",\"\",\"\",\"\",\"\",\"\"
\"40556\",\"\",\"survey-multi-choice\",\"2\",\"200867\",\"0.0-2.0\",\"\",\"{\"\"Q0\"\":\"\"Da\"\",\"\"Q1\"\":\"\"Da\"\",\"\"Q2\"\":\"\"Da\"\",\"\"Q3\"\":\"\"Da\"\",\"\"Q4\"\":\"\"Da\"\",\"\"Q5\"\":\"\"Da\"\"}\",\"\",\"\",\"\",\"\",\"\",\"\",\"\",\"\",\"\",\"\",\"\",\"\",\"\",\"\",\"\"
\"\",\"\",\"bio\",\"3\",\"214954\",\"0.0-3.0\",\"\",\"{\"\"age\"\":\"\"19\"\",\"\"gender\"\":\"\"f\"\",\"\"specify\"\":\"\"\"\"}\",\"\",\"\",\"\",\"\",\"\",\"\",\"\",\"\",\"\",\"\",\"\",\"\",\"\",\"\",\"\"
\"\",\"\",\"approach-retreat\",\"4\",\"235653\",\"0.0-4.0\",\"\",\"\",\"3-1\",\"19192\",\"37\",\"0\",\"Training\",\"Stims/Figures/128-J-10-3.bmp\",\"va:sha:va\",\"Left\",\"39\",\"1\",\"1\",\"9\",\"C1\",\"J\",\"1\"
\"\",\"\",\"approach-retreat\",\"5\",\"242223\",\"0.0-5.0\",\"\",\"\",\"3-1\",\"5055\",\"39\",\"1\",\"Training\",\"Stims/Figures/86-J-0-1.bmp\",\"paka:ka\",\"Left\",\"39\",\"1\",\"2\",\"9\",\"P\",\"J\",\"2\"
\"\",\"\",\"approach-retreat\",\"6\",\"250816\",\"0.0-6.0\",\"\",\"\",\"3-1\",\"7080\",\"39\",\"0\",\"Training\",\"Stims/Figures/74-J-10-4.bmp\",\"ma:lana\",\"Right\",\"37\",\"1\",\"3\",\"9\",\"S\",\"J\",\"3\"
\"\",\"\",\"approach-retreat\",\"7\",\"258940\",\"0.0-7.0\",\"\",\"\",\"3-1\",\"6608\",\"40\",\"0\",\"Training\",\"Stims/Figures/144-J-10-3.bmp\",\"sasaza\",\"Down\",\"38\",\"1\",\"4\",\"9\",\"C2\",\"J\",\"4\"
\"\",\"\",\"approach-retreat\",\"8\",\"266726\",\"0.0-8.0\",\"\",\"\",\"3-1\",\"6269\",\"39\",\"0\",\"Training\",\"Stims/Figures/128-C-30-3.bmp\",\"mamana\",\"Left\",\"37\",\"1\",\"5\",\"9\",\"S\",\"J\",\"5\"
\"\",\"\",\"approach-retreat\",\"9\",\"273393\",\"0.0-9.0\",\"\",\"\",\"3-1\",\"5153\",\"38\",\"0\",\"Training\",\"Stims/Figures/144-C-30-3.bmp\",\"fa:sha:va\",\"Down\",\"40\",\"1\",\"6\",\"9\",\"C1\",\"J\",\"6\"
\"\",\"\",\"approach-retreat\",\"10\",\"280365\",\"0.0-10.0\",\"\",\"\",\"3-1\",\"5452\",\"37\",\"0\",\"Training\",\"Stims/Figures/74-C-20-4.bmp\",\"za:haza\",\"Right\",\"39\",\"1\",\"7\",\"9\",\"C2\",\"J\",\"7\"
\"\",\"\",\"approach-retreat\",\"11\",\"287456\",\"0.0-11.0\",\"\",\"\",\"3-1\",\"5577\",\"38\",\"1\",\"Training\",\"Stims/Figures/86-C-30-1.bmp\",\"pa:pa:ka\",\"Up\",\"38\",\"1\",\"8\",\"9\",\"P\",\"J\",\"8\"
\"\",\"\",\"approach-retreat\",\"12\",\"298503\",\"0.0-12.0\",\"\",\"\",\"3-1\",\"9533\",\"38\",\"1\",\"Training\",\"Stims/Figures/7-J-10-4.bmp\",\"na:lala\",\"Down\",\"38\",\"1\",\"9\",\"9\",\"S\",\"J\",\"9\"
\"\",\"\",\"approach-retreat\",\"13\",\"304730\",\"0.0-13.0\",\"\",\"\",\"3-1\",\"4713\",\"37\",\"1\",\"Training\",\"Stims/Figures/84-J-0-2.bmp\",\"pa:pata\",\"Right\",\"37\",\"1\",\"10\",\"9\",\"P\",\"J\",\"10\"
\"\",\"\",\"approach-retreat\",\"14\",\"311455\",\"0.0-14.0\",\"\",\"\",\"3-1\",\"5212\",\"38\",\"0\",\"Training\",\"Stims/Figures/27-C-30-1.bmp\",\"ma:mana\",\"Down\",\"40\",\"1\",\"11\",\"9\",\"S\",\"J\",\"11\"
\"\",\"\",\"approach-retreat\",\"15\",\"321374\",\"0.0-15.0\",\"\",\"\",\"3-1\",\"8407\",\"40\",\"0\",\"Training\",\"Stims/Figures/139-C-20-2.bmp\",\"ma:la:na\",\"Up\",\"38\",\"1\",\"12\",\"9\",\"S\",\"J\",\"12\"
\"\",\"\",\"approach-retreat\",\"16\",\"328059\",\"0.0-16.0\",\"\",\"\",\"3-1\",\"5170\",\"37\",\"0\",\"Training\",\"Stims/Figures/139-J-0-2.bmp\",\"sasa:ha\",\"Left\",\"39\",\"1\",\"13\",\"9\",\"C2\",\"J\",\"13\"
\"\",\"\",\"approach-retreat\",\"17\",\"334323\",\"0.0-17.0\",\"\",\"\",\"3-1\",\"4748\",\"40\",\"1\",\"Training\",\"Stims/Figures/27-J-0-1.bmp\",\"vafa:sha\",\"Up\",\"40\",\"1\",\"14\",\"9\",\"C1\",\"J\",\"14\"
\"\",\"\",\"approach-retreat\",\"18\",\"339872\",\"0.0-18.0\",\"\",\"\",\"3-1\",\"4036\",\"40\",\"0\",\"Training\",\"Stims/Figures/7-C-20-4.bmp\",\"mamala\",\"Up\",\"38\",\"1\",\"15\",\"9\",\"S\",\"J\",\"15\"
\"\",\"\",\"approach-retreat\",\"19\",\"346425\",\"0.0-19.0\",\"\",\"\",\"3-1\",\"5038\",\"37\",\"0\",\"Training\",\"Stims/Figures/84-C-20-2.bmp\",\"pakata\",\"Right\",\"39\",\"1\",\"16\",\"9\",\"P\",\"J\",\"16\"
\"\",\"\",\"approach-retreat\",\"20\",\"352604\",\"0.0-20.0\",\"\",\"\",\"3-1\",\"4657\",\"38\",\"0\",\"Training\",\"Stims/Figures/144-J-10-3.bmp\",\"sasaza\",\"Up\",\"40\",\"2\",\"1\",\"9\",\"C2\",\"J\",\"17\"
\"\",\"\",\"approach-retreat\",\"21\",\"358566\",\"0.0-21.0\",\"\",\"\",\"3-1\",\"4447\",\"39\",\"0\",\"Training\",\"Stims/Figures/128-C-30-3.bmp\",\"mamana\",\"Left\",\"37\",\"2\",\"2\",\"9\",\"S\",\"J\",\"18\"
\"\",\"\",\"approach-retreat\",\"22\",\"364715\",\"0.0-22.0\",\"\",\"\",\"3-1\",\"4636\",\"39\",\"1\",\"Training\",\"Stims/Figures/139-C-20-2.bmp\",\"ma:la:na\",\"Right\",\"39\",\"2\",\"3\",\"9\",\"S\",\"J\",\"19\"
\"\",\"\",\"approach-retreat\",\"23\",\"370988\",\"0.0-23.0\",\"\",\"\",\"3-1\",\"4758\",\"39\",\"1\",\"Training\",\"Stims/Figures/7-C-20-4.bmp\",\"mamala\",\"Right\",\"39\",\"2\",\"4\",\"9\",\"S\",\"J\",\"20\"
\"\",\"\",\"approach-retreat\",\"24\",\"376502\",\"0.0-24.0\",\"\",\"\",\"3-1\",\"4006\",\"38\",\"1\",\"Training\",\"Stims/Figures/144-C-30-3.bmp\",\"fa:sha:va\",\"Up\",\"38\",\"2\",\"5\",\"9\",\"C1\",\"J\",\"21\"
\"\",\"\",\"approach-retreat\",\"25\",\"382376\",\"0.0-25.0\",\"\",\"\",\"3-1\",\"4360\",\"38\",\"1\",\"Training\",\"Stims/Figures/128-J-10-3.bmp\",\"va:sha:va\",\"Down\",\"38\",\"2\",\"6\",\"9\",\"C1\",\"J\",\"22\"
\"\",\"\",\"approach-retreat\",\"26\",\"390351\",\"0.0-26.0\",\"\",\"\",\"3-1\",\"6460\",\"39\",\"0\",\"Training\",\"Stims/Figures/84-C-20-2.bmp\",\"pakata\",\"Left\",\"37\",\"2\",\"7\",\"9\",\"P\",\"J\",\"23\"
\"\",\"\",\"approach-retreat\",\"27\",\"396756\",\"0.0-27.0\",\"\",\"\",\"3-1\",\"4891\",\"38\",\"0\",\"Training\",\"Stims/Figures/139-J-0-2.bmp\",\"sasa:ha\",\"Up\",\"40\",\"2\",\"8\",\"9\",\"C2\",\"J\",\"24\"
\"\",\"\",\"approach-retreat\",\"28\",\"402786\",\"0.0-28.0\",\"\",\"\",\"3-1\",\"4522\",\"40\",\"1\",\"Training\",\"Stims/Figures/74-C-20-4.bmp\",\"za:haza\",\"Down\",\"40\",\"2\",\"9\",\"9\",\"C2\",\"J\",\"25\"
\"\",\"\",\"approach-retreat\",\"29\",\"412609\",\"0.0-29.0\",\"\",\"\",\"3-1\",\"8309\",\"39\",\"0\",\"Training\",\"Stims/Figures/7-J-10-4.bmp\",\"na:lala\",\"Right\",\"37\",\"2\",\"10\",\"9\",\"S\",\"J\",\"26\"
\"\",\"\",\"approach-retreat\",\"30\",\"418700\",\"0.0-30.0\",\"\",\"\",\"3-1\",\"4577\",\"38\",\"0\",\"Training\",\"Stims/Figures/86-C-30-1.bmp\",\"pa:pa:ka\",\"Down\",\"40\",\"2\",\"11\",\"9\",\"P\",\"J\",\"27\"
\"\",\"\",\"approach-retreat\",\"31\",\"426364\",\"0.0-31.0\",\"\",\"\",\"3-1\",\"6153\",\"38\",\"1\",\"Training\",\"Stims/Figures/27-C-30-1.bmp\",\"ma:mana\",\"Up\",\"38\",\"2\",\"12\",\"9\",\"S\",\"J\",\"28\"
\"\",\"\",\"approach-retreat\",\"32\",\"438852\",\"0.0-32.0\",\"\",\"\",\"3-1\",\"10973\",\"39\",\"1\",\"Training\",\"Stims/Figures/27-J-0-1.bmp\",\"vafa:sha\",\"Left\",\"39\",\"2\",\"13\",\"9\",\"C1\",\"J\",\"29\"
\"\",\"\",\"approach-retreat\",\"33\",\"446450\",\"0.0-33.0\",\"\",\"\",\"3-1\",\"6084\",\"39\",\"0\",\"Training\",\"Stims/Figures/74-J-10-4.bmp\",\"ma:lana\",\"Right\",\"37\",\"2\",\"14\",\"9\",\"S\",\"J\",\"30\"
\"\",\"\",\"approach-retreat\",\"34\",\"452572\",\"0.0-34.0\",\"\",\"\",\"3-1\",\"4609\",\"40\",\"0\",\"Training\",\"Stims/Figures/84-J-0-2.bmp\",\"pa:pata\",\"Down\",\"38\",\"2\",\"15\",\"9\",\"P\",\"J\",\"31\"
\"\",\"\",\"approach-retreat\",\"35\",\"460322\",\"0.0-35.0\",\"\",\"\",\"3-1\",\"6235\",\"37\",\"0\",\"Training\",\"Stims/Figures/86-J-0-1.bmp\",\"paka:ka\",\"Left\",\"39\",\"2\",\"16\",\"9\",\"P\",\"J\",\"32\"
\"\",\"\",\"approach-retreat\",\"36\",\"467335\",\"0.0-36.0\",\"\",\"\",\"3-1\",\"5501\",\"39\",\"1\",\"Training\",\"Stims/Figures/128-J-10-3.bmp\",\"va:sha:va\",\"Left\",\"39\",\"3\",\"1\",\"9\",\"C1\",\"J\",\"33\"
\"\",\"\",\"approach-retreat\",\"37\",\"473601\",\"0.0-37.0\",\"\",\"\",\"3-1\",\"4753\",\"40\",\"0\",\"Training\",\"Stims/Figures/139-J-0-2.bmp\",\"sasa:ha\",\"Down\",\"38\",\"3\",\"2\",\"9\",\"C2\",\"J\",\"34\"
\"\",\"\",\"approach-retreat\",\"38\",\"479972\",\"0.0-38.0\",\"\",\"\",\"3-1\",\"4857\",\"38\",\"0\",\"Training\",\"Stims/Figures/144-J-10-3.bmp\",\"sasaza\",\"Up\",\"40\",\"3\",\"3\",\"9\",\"C2\",\"J\",\"35\"
\"\",\"\",\"approach-retreat\",\"39\",\"492798\",\"0.0-39.0\",\"\",\"\",\"3-1\",\"11306\",\"39\",\"0\",\"Training\",\"Stims/Figures/7-C-20-4.bmp\",\"mamala\",\"Left\",\"37\",\"3\",\"4\",\"9\",\"S\",\"J\",\"36\"
\"\",\"\",\"approach-retreat\",\"40\",\"498648\",\"0.0-40.0\",\"\",\"\",\"3-1\",\"4337\",\"38\",\"1\",\"Training\",\"Stims/Figures/128-C-30-3.bmp\",\"mamana\",\"Up\",\"38\",\"3\",\"5\",\"9\",\"S\",\"J\",\"37\"
\"\",\"\",\"approach-retreat\",\"41\",\"506169\",\"0.0-41.0\",\"\",\"\",\"3-1\",\"6008\",\"39\",\"1\",\"Training\",\"Stims/Figures/139-C-20-2.bmp\",\"ma:la:na\",\"Right\",\"39\",\"3\",\"6\",\"9\",\"S\",\"J\",\"38\"
\"\",\"\",\"approach-retreat\",\"42\",\"512493\",\"0.0-42.0\",\"\",\"\",\"3-1\",\"4811\",\"37\",\"1\",\"Training\",\"Stims/Figures/84-C-20-2.bmp\",\"pakata\",\"Left\",\"37\",\"3\",\"7\",\"9\",\"P\",\"J\",\"39\"
\"\",\"\",\"approach-retreat\",\"43\",\"524236\",\"0.0-43.0\",\"\",\"\",\"3-1\",\"10227\",\"40\",\"0\",\"Training\",\"Stims/Figures/144-C-30-3.bmp\",\"fa:sha:va\",\"Up\",\"38\",\"3\",\"8\",\"9\",\"C1\",\"J\",\"40\"
\"\",\"\",\"approach-retreat\",\"44\",\"530343\",\"0.0-44.0\",\"\",\"\",\"3-1\",\"4598\",\"38\",\"1\",\"Training\",\"Stims/Figures/86-J-0-1.bmp\",\"paka:ka\",\"Down\",\"38\",\"3\",\"9\",\"9\",\"P\",\"J\",\"41\"
\"\",\"\",\"approach-retreat\",\"45\",\"536171\",\"0.0-45.0\",\"\",\"\",\"3-1\",\"4322\",\"39\",\"1\",\"Training\",\"Stims/Figures/7-J-10-4.bmp\",\"na:lala\",\"Left\",\"39\",\"3\",\"10\",\"9\",\"S\",\"J\",\"42\"
\"\",\"\",\"approach-retreat\",\"46\",\"542905\",\"0.0-46.0\",\"\",\"\",\"3-1\",\"5222\",\"39\",\"1\",\"Training\",\"Stims/Figures/27-C-30-1.bmp\",\"ma:mana\",\"Right\",\"39\",\"3\",\"11\",\"9\",\"S\",\"J\",\"43\"
\"\",\"\",\"approach-retreat\",\"47\",\"549714\",\"0.0-47.0\",\"\",\"\",\"3-1\",\"5301\",\"40\",\"0\",\"Training\",\"Stims/Figures/74-J-10-4.bmp\",\"ma:lana\",\"Down\",\"38\",\"3\",\"12\",\"9\",\"S\",\"J\",\"44\"
\"\",\"\",\"approach-retreat\",\"48\",\"557709\",\"0.0-48.0\",\"\",\"\",\"3-1\",\"6490\",\"38\",\"0\",\"Training\",\"Stims/Figures/84-J-0-2.bmp\",\"pa:pata\",\"Up\",\"40\",\"3\",\"13\",\"9\",\"P\",\"J\",\"45\"
\"\",\"\",\"approach-retreat\",\"49\",\"563631\",\"0.0-49.0\",\"\",\"\",\"3-1\",\"4397\",\"39\",\"0\",\"Training\",\"Stims/Figures/27-J-0-1.bmp\",\"vafa:sha\",\"Right\",\"37\",\"3\",\"14\",\"9\",\"C1\",\"J\",\"46\"
\"\",\"\",\"approach-retreat\",\"50\",\"569662\",\"0.0-50.0\",\"\",\"\",\"3-1\",\"4518\",\"37\",\"0\",\"Training\",\"Stims/Figures/74-C-20-4.bmp\",\"za:haza\",\"Right\",\"39\",\"3\",\"15\",\"9\",\"C2\",\"J\",\"47\"
\"\",\"\",\"approach-retreat\",\"51\",\"577451\",\"0.0-51.0\",\"\",\"\",\"3-1\",\"6275\",\"38\",\"0\",\"Training\",\"Stims/Figures/86-C-30-1.bmp\",\"pa:pa:ka\",\"Down\",\"40\",\"3\",\"16\",\"9\",\"P\",\"J\",\"48\"
\"\",\"\",\"approach-retreat\",\"52\",\"583344\",\"0.0-52.0\",\"\",\"\",\"3-1\",\"4380\",\"38\",\"1\",\"Training\",\"Stims/Figures/7-J-10-4.bmp\",\"na:lala\",\"Down\",\"38\",\"4\",\"1\",\"9\",\"S\",\"J\",\"49\"
\"\",\"\",\"approach-retreat\",\"53\",\"589311\",\"0.0-53.0\",\"\",\"\",\"3-1\",\"4453\",\"39\",\"0\",\"Training\",\"Stims/Figures/74-J-10-4.bmp\",\"ma:lana\",\"Right\",\"37\",\"4\",\"2\",\"9\",\"S\",\"J\",\"50\"
\"\",\"\",\"approach-retreat\",\"54\",\"595365\",\"0.0-54.0\",\"\",\"\",\"3-1\",\"4540\",\"38\",\"1\",\"Training\",\"Stims/Figures/128-J-10-3.bmp\",\"va:sha:va\",\"Down\",\"38\",\"4\",\"3\",\"9\",\"C1\",\"J\",\"51\"
\"\",\"\",\"approach-retreat\",\"55\",\"601326\",\"0.0-55.0\",\"\",\"\",\"3-1\",\"4445\",\"39\",\"1\",\"Training\",\"Stims/Figures/139-J-0-2.bmp\",\"sasa:ha\",\"Left\",\"39\",\"4\",\"4\",\"9\",\"C2\",\"J\",\"52\"
\"\",\"\",\"approach-retreat\",\"56\",\"608196\",\"0.0-56.0\",\"\",\"\",\"3-1\",\"5355\",\"40\",\"0\",\"Training\",\"Stims/Figures/27-J-0-1.bmp\",\"vafa:sha\",\"Down\",\"38\",\"4\",\"5\",\"9\",\"C1\",\"J\",\"53\"
\"\",\"\",\"approach-retreat\",\"57\",\"614393\",\"0.0-57.0\",\"\",\"\",\"3-1\",\"4684\",\"40\",\"1\",\"Training\",\"Stims/Figures/84-C-20-2.bmp\",\"pakata\",\"Down\",\"40\",\"4\",\"6\",\"9\",\"P\",\"J\",\"54\"
\"\",\"\",\"approach-retreat\",\"58\",\"620372\",\"0.0-58.0\",\"\",\"\",\"3-1\",\"4463\",\"37\",\"1\",\"Training\",\"Stims/Figures/86-C-30-1.bmp\",\"pa:pa:ka\",\"Left\",\"37\",\"4\",\"7\",\"9\",\"P\",\"J\",\"55\"
\"\",\"\",\"approach-retreat\",\"59\",\"627348\",\"0.0-59.0\",\"\",\"\",\"3-1\",\"5458\",\"37\",\"0\",\"Training\",\"Stims/Figures/7-C-20-4.bmp\",\"mamala\",\"Right\",\"39\",\"4\",\"8\",\"9\",\"S\",\"J\",\"56\"
\"\",\"\",\"approach-retreat\",\"60\",\"633203\",\"0.0-60.0\",\"\",\"\",\"3-1\",\"4342\",\"39\",\"1\",\"Training\",\"Stims/Figures/144-J-10-3.bmp\",\"sasaza\",\"Left\",\"39\",\"4\",\"9\",\"9\",\"C2\",\"J\",\"57\"
\"\",\"\",\"approach-retreat\",\"61\",\"641161\",\"0.0-61.0\",\"\",\"\",\"3-1\",\"6443\",\"37\",\"0\",\"Training\",\"Stims/Figures/86-J-0-1.bmp\",\"paka:ka\",\"Left\",\"39\",\"4\",\"10\",\"9\",\"P\",\"J\",\"58\"
\"\",\"\",\"approach-retreat\",\"62\",\"647099\",\"0.0-62.0\",\"\",\"\",\"3-1\",\"4424\",\"40\",\"0\",\"Training\",\"Stims/Figures/74-C-20-4.bmp\",\"za:haza\",\"Up\",\"38\",\"4\",\"11\",\"9\",\"C2\",\"J\",\"59\"
\"\",\"\",\"approach-retreat\",\"63\",\"654285\",\"0.0-63.0\",\"\",\"\",\"3-1\",\"5674\",\"38\",\"0\",\"Training\",\"Stims/Figures/84-J-0-2.bmp\",\"pa:pata\",\"Up\",\"40\",\"4\",\"12\",\"9\",\"P\",\"J\",\"60\"
\"\",\"\",\"approach-retreat\",\"64\",\"660507\",\"0.0-64.0\",\"\",\"\",\"3-1\",\"4706\",\"38\",\"1\",\"Training\",\"Stims/Figures/27-C-30-1.bmp\",\"ma:mana\",\"Up\",\"38\",\"4\",\"13\",\"9\",\"S\",\"J\",\"61\"
\"\",\"\",\"approach-retreat\",\"65\",\"666421\",\"0.0-65.0\",\"\",\"\",\"3-1\",\"4402\",\"39\",\"1\",\"Training\",\"Stims/Figures/144-C-30-3.bmp\",\"fa:sha:va\",\"Right\",\"39\",\"4\",\"14\",\"9\",\"C1\",\"J\",\"62\"
\"\",\"\",\"approach-retreat\",\"66\",\"675337\",\"0.0-66.0\",\"\",\"\",\"3-1\",\"7402\",\"39\",\"1\",\"Training\",\"Stims/Figures/128-C-30-3.bmp\",\"mamana\",\"Right\",\"39\",\"4\",\"15\",\"9\",\"S\",\"J\",\"63\"
\"\",\"\",\"approach-retreat\",\"67\",\"681715\",\"0.0-67.0\",\"\",\"\",\"3-1\",\"4870\",\"40\",\"0\",\"Training\",\"Stims/Figures/139-C-20-2.bmp\",\"ma:la:na\",\"Up\",\"38\",\"4\",\"16\",\"9\",\"S\",\"J\",\"64\"
\"\",\"\",\"approach-retreat\",\"68\",\"687673\",\"0.0-68.0\",\"\",\"\",\"3-1\",\"4443\",\"39\",\"0\",\"Training\",\"Stims/Figures/74-C-20-4.bmp\",\"za:haza\",\"Left\",\"37\",\"5\",\"1\",\"9\",\"C2\",\"J\",\"65\"
\"\",\"\",\"approach-retreat\",\"69\",\"693773\",\"0.0-69.0\",\"\",\"\",\"3-1\",\"4593\",\"38\",\"0\",\"Training\",\"Stims/Figures/84-C-20-2.bmp\",\"pakata\",\"Down\",\"40\",\"5\",\"2\",\"9\",\"P\",\"J\",\"66\"
\"\",\"\",\"approach-retreat\",\"70\",\"699403\",\"0.0-70.0\",\"\",\"\",\"3-1\",\"4116\",\"40\",\"1\",\"Training\",\"Stims/Figures/128-J-10-3.bmp\",\"va:sha:va\",\"Up\",\"40\",\"5\",\"3\",\"9\",\"C1\",\"J\",\"67\"
\"\",\"\",\"approach-retreat\",\"71\",\"707992\",\"0.0-71.0\",\"\",\"\",\"3-1\",\"7075\",\"39\",\"1\",\"Training\",\"Stims/Figures/139-C-20-2.bmp\",\"ma:la:na\",\"Right\",\"39\",\"5\",\"4\",\"9\",\"S\",\"J\",\"68\"
\"\",\"\",\"approach-retreat\",\"72\",\"719220\",\"0.0-72.0\",\"\",\"\",\"3-1\",\"9719\",\"38\",\"1\",\"Training\",\"Stims/Figures/84-J-0-2.bmp\",\"pa:pata\",\"Down\",\"38\",\"5\",\"5\",\"9\",\"P\",\"J\",\"69\"
\"\",\"\",\"approach-retreat\",\"73\",\"729644\",\"0.0-73.0\",\"\",\"\",\"3-1\",\"8908\",\"40\",\"0\",\"Training\",\"Stims/Figures/139-J-0-2.bmp\",\"sasa:ha\",\"Down\",\"38\",\"5\",\"6\",\"9\",\"C2\",\"J\",\"70\"
\"\",\"\",\"approach-retreat\",\"74\",\"736221\",\"0.0-74.0\",\"\",\"\",\"3-1\",\"5062\",\"39\",\"0\",\"Training\",\"Stims/Figures/144-C-30-3.bmp\",\"fa:sha:va\",\"Left\",\"37\",\"5\",\"7\",\"9\",\"C1\",\"J\",\"71\"
\"\",\"\",\"approach-retreat\",\"75\",\"743419\",\"0.0-75.0\",\"\",\"\",\"3-1\",\"5681\",\"38\",\"0\",\"Training\",\"Stims/Figures/74-J-10-4.bmp\",\"ma:lana\",\"Up\",\"40\",\"5\",\"8\",\"9\",\"S\",\"J\",\"72\"
\"\",\"\",\"approach-retreat\",\"76\",\"749614\",\"0.0-76.0\",\"\",\"\",\"3-1\",\"4675\",\"40\",\"1\",\"Training\",\"Stims/Figures/7-C-20-4.bmp\",\"mamala\",\"Down\",\"40\",\"5\",\"9\",\"9\",\"S\",\"J\",\"73\"
\"\",\"\",\"approach-retreat\",\"77\",\"755701\",\"0.0-77.0\",\"\",\"\",\"3-1\",\"4574\",\"39\",\"0\",\"Training\",\"Stims/Figures/7-J-10-4.bmp\",\"na:lala\",\"Right\",\"37\",\"5\",\"10\",\"9\",\"S\",\"J\",\"74\"
\"\",\"\",\"approach-retreat\",\"78\",\"763311\",\"0.0-78.0\",\"\",\"\",\"3-1\",\"6097\",\"38\",\"1\",\"Training\",\"Stims/Figures/86-C-30-1.bmp\",\"pa:pa:ka\",\"Up\",\"38\",\"5\",\"11\",\"9\",\"P\",\"J\",\"75\"
\"\",\"\",\"approach-retreat\",\"79\",\"769874\",\"0.0-79.0\",\"\",\"\",\"3-1\",\"5047\",\"37\",\"0\",\"Training\",\"Stims/Figures/27-J-0-1.bmp\",\"vafa:sha\",\"Left\",\"39\",\"5\",\"12\",\"9\",\"C1\",\"J\",\"76\"
\"\",\"\",\"approach-retreat\",\"80\",\"776010\",\"0.0-80.0\",\"\",\"\",\"3-1\",\"4621\",\"38\",\"1\",\"Training\",\"Stims/Figures/128-C-30-3.bmp\",\"mamana\",\"Up\",\"38\",\"5\",\"13\",\"9\",\"S\",\"J\",\"77\"
\"\",\"\",\"approach-retreat\",\"81\",\"782553\",\"0.0-81.0\",\"\",\"\",\"3-1\",\"5027\",\"39\",\"1\",\"Training\",\"Stims/Figures/27-C-30-1.bmp\",\"ma:mana\",\"Right\",\"39\",\"5\",\"14\",\"9\",\"S\",\"J\",\"78\"
\"\",\"\",\"approach-retreat\",\"82\",\"788662\",\"0.0-82.0\",\"\",\"\",\"3-1\",\"4596\",\"39\",\"1\",\"Training\",\"Stims/Figures/86-J-0-1.bmp\",\"paka:ka\",\"Left\",\"39\",\"5\",\"15\",\"9\",\"P\",\"J\",\"79\"
\"\",\"\",\"approach-retreat\",\"83\",\"794807\",\"0.0-83.0\",\"\",\"\",\"3-1\",\"4631\",\"39\",\"0\",\"Training\",\"Stims/Figures/144-J-10-3.bmp\",\"sasaza\",\"Right\",\"37\",\"5\",\"16\",\"9\",\"C2\",\"J\",\"80\"
\"\",\"\",\"approach-retreat\",\"84\",\"800822\",\"0.0-84.0\",\"\",\"\",\"3-1\",\"4499\",\"37\",\"1\",\"Training\",\"Stims/Figures/86-C-30-1.bmp\",\"pa:pa:ka\",\"Left\",\"37\",\"6\",\"1\",\"9\",\"P\",\"J\",\"81\"
\"\",\"\",\"approach-retreat\",\"85\",\"809017\",\"0.0-85.0\",\"\",\"\",\"3-1\",\"6674\",\"40\",\"0\",\"Training\",\"Stims/Figures/7-J-10-4.bmp\",\"na:lala\",\"Down\",\"38\",\"6\",\"2\",\"9\",\"S\",\"J\",\"82\"
\"\",\"\",\"approach-retreat\",\"86\",\"815602\",\"0.0-86.0\",\"\",\"\",\"3-1\",\"5071\",\"39\",\"0\",\"Training\",\"Stims/Figures/74-J-10-4.bmp\",\"ma:lana\",\"Right\",\"37\",\"6\",\"3\",\"9\",\"S\",\"J\",\"83\"
\"\",\"\",\"approach-retreat\",\"87\",\"821922\",\"0.0-87.0\",\"\",\"\",\"3-1\",\"4807\",\"38\",\"0\",\"Training\",\"Stims/Figures/139-J-0-2.bmp\",\"sasa:ha\",\"Up\",\"40\",\"6\",\"4\",\"9\",\"C2\",\"J\",\"84\"
\"\",\"\",\"approach-retreat\",\"88\",\"828149\",\"0.0-88.0\",\"\",\"\",\"3-1\",\"4712\",\"40\",\"0\",\"Training\",\"Stims/Figures/27-C-30-1.bmp\",\"ma:mana\",\"Up\",\"38\",\"6\",\"5\",\"9\",\"S\",\"J\",\"85\"
\"\",\"\",\"approach-retreat\",\"89\",\"834215\",\"0.0-89.0\",\"\",\"\",\"3-1\",\"4552\",\"38\",\"0\",\"Training\",\"Stims/Figures/7-C-20-4.bmp\",\"mamala\",\"Down\",\"40\",\"6\",\"6\",\"9\",\"S\",\"J\",\"86\"
\"\",\"\",\"approach-retreat\",\"90\",\"840416\",\"0.0-90.0\",\"\",\"\",\"3-1\",\"4687\",\"38\",\"0\",\"Training\",\"Stims/Figures/84-J-0-2.bmp\",\"pa:pata\",\"Up\",\"40\",\"6\",\"7\",\"9\",\"P\",\"J\",\"87\"
\"\",\"\",\"approach-retreat\",\"91\",\"846482\",\"0.0-91.0\",\"\",\"\",\"3-1\",\"4550\",\"39\",\"0\",\"Training\",\"Stims/Figures/27-J-0-1.bmp\",\"vafa:sha\",\"Right\",\"37\",\"6\",\"8\",\"9\",\"C1\",\"J\",\"88\"
\"\",\"\",\"approach-retreat\",\"92\",\"853236\",\"0.0-92.0\",\"\",\"\",\"3-1\",\"5241\",\"39\",\"1\",\"Training\",\"Stims/Figures/139-C-20-2.bmp\",\"ma:la:na\",\"Right\",\"39\",\"6\",\"9\",\"9\",\"S\",\"J\",\"89\"
\"\",\"\",\"approach-retreat\",\"93\",\"859736\",\"0.0-93.0\",\"\",\"\",\"3-1\",\"4988\",\"40\",\"1\",\"Training\",\"Stims/Figures/128-C-30-3.bmp\",\"mamana\",\"Down\",\"40\",\"6\",\"10\",\"9\",\"S\",\"J\",\"90\"
\"\",\"\",\"approach-retreat\",\"94\",\"865886\",\"0.0-94.0\",\"\",\"\",\"3-1\",\"4635\",\"37\",\"0\",\"Training\",\"Stims/Figures/144-J-10-3.bmp\",\"sasaza\",\"Left\",\"39\",\"6\",\"11\",\"9\",\"C2\",\"J\",\"91\"
\"\",\"\",\"approach-retreat\",\"95\",\"875064\",\"0.0-95.0\",\"\",\"\",\"3-1\",\"7663\",\"38\",\"1\",\"Training\",\"Stims/Figures/74-C-20-4.bmp\",\"za:haza\",\"Up\",\"38\",\"6\",\"12\",\"9\",\"C2\",\"J\",\"92\"
\"\",\"\",\"approach-retreat\",\"96\",\"882346\",\"0.0-96.0\",\"\",\"\",\"3-1\",\"5766\",\"39\",\"1\",\"Training\",\"Stims/Figures/128-J-10-3.bmp\",\"va:sha:va\",\"Left\",\"39\",\"6\",\"13\",\"9\",\"C1\",\"J\",\"93\"
\"\",\"\",\"approach-retreat\",\"97\",\"888477\",\"0.0-97.0\",\"\",\"\",\"3-1\",\"4619\",\"37\",\"1\",\"Training\",\"Stims/Figures/84-C-20-2.bmp\",\"pakata\",\"Left\",\"37\",\"6\",\"14\",\"9\",\"P\",\"J\",\"94\"
\"\",\"\",\"approach-retreat\",\"98\",\"894872\",\"0.0-98.0\",\"\",\"\",\"3-1\",\"4873\",\"40\",\"1\",\"Training\",\"Stims/Figures/144-C-30-3.bmp\",\"fa:sha:va\",\"Down\",\"40\",\"6\",\"15\",\"9\",\"C1\",\"J\",\"95\"
\"\",\"\",\"approach-retreat\",\"99\",\"901016\",\"0.0-99.0\",\"\",\"\",\"3-1\",\"4631\",\"39\",\"0\",\"Training\",\"Stims/Figures/86-J-0-1.bmp\",\"paka:ka\",\"Right\",\"37\",\"6\",\"16\",\"9\",\"P\",\"J\",\"96\"
\"\",\"\",\"approach-retreat\",\"100\",\"909972\",\"0.0-100.0\",\"\",\"\",\"3-1\",\"7442\",\"39\",\"1\",\"Training\",\"Stims/Figures/144-C-30-3.bmp\",\"fa:sha:va\",\"Right\",\"39\",\"7\",\"1\",\"9\",\"C1\",\"J\",\"97\"
\"\",\"\",\"approach-retreat\",\"101\",\"915345\",\"0.0-101.0\",\"\",\"\",\"3-1\",\"3864\",\"37\",\"0\",\"Training\",\"Stims/Figures/144-J-10-3.bmp\",\"sasaza\",\"Left\",\"39\",\"7\",\"2\",\"9\",\"C2\",\"J\",\"98\"
\"\",\"\",\"approach-retreat\",\"102\",\"921287\",\"0.0-102.0\",\"\",\"\",\"3-1\",\"4425\",\"39\",\"1\",\"Training\",\"Stims/Figures/74-J-10-4.bmp\",\"ma:lana\",\"Left\",\"39\",\"7\",\"3\",\"9\",\"S\",\"J\",\"99\"
\"\",\"\",\"approach-retreat\",\"103\",\"927462\",\"0.0-103.0\",\"\",\"\",\"3-1\",\"4659\",\"38\",\"1\",\"Training\",\"Stims/Figures/74-C-20-4.bmp\",\"za:haza\",\"Up\",\"38\",\"7\",\"4\",\"9\",\"C2\",\"J\",\"100\"
\"\",\"\",\"approach-retreat\",\"104\",\"933532\",\"0.0-104.0\",\"\",\"\",\"3-1\",\"4556\",\"38\",\"0\",\"Training\",\"Stims/Figures/7-J-10-4.bmp\",\"na:lala\",\"Up\",\"40\",\"7\",\"5\",\"9\",\"S\",\"J\",\"101\"
\"\",\"\",\"approach-retreat\",\"105\",\"939762\",\"0.0-105.0\",\"\",\"\",\"3-1\",\"4716\",\"39\",\"1\",\"Training\",\"Stims/Figures/139-C-20-2.bmp\",\"ma:la:na\",\"Right\",\"39\",\"7\",\"6\",\"9\",\"S\",\"J\",\"102\"
\"\",\"\",\"approach-retreat\",\"106\",\"945848\",\"0.0-106.0\",\"\",\"\",\"3-1\",\"4565\",\"40\",\"0\",\"Training\",\"Stims/Figures/27-J-0-1.bmp\",\"vafa:sha\",\"Down\",\"38\",\"7\",\"7\",\"9\",\"C1\",\"J\",\"103\"
\"\",\"\",\"approach-retreat\",\"107\",\"951756\",\"0.0-107.0\",\"\",\"\",\"3-1\",\"4393\",\"38\",\"0\",\"Training\",\"Stims/Figures/86-J-0-1.bmp\",\"paka:ka\",\"Up\",\"40\",\"7\",\"8\",\"9\",\"P\",\"J\",\"104\"
\"\",\"\",\"approach-retreat\",\"108\",\"957592\",\"0.0-108.0\",\"\",\"\",\"3-1\",\"4323\",\"37\",\"0\",\"Training\",\"Stims/Figures/139-J-0-2.bmp\",\"sasa:ha\",\"Left\",\"39\",\"7\",\"9\",\"9\",\"C2\",\"J\",\"105\"
\"\",\"\",\"approach-retreat\",\"109\",\"964949\",\"0.0-109.0\",\"\",\"\",\"3-1\",\"5843\",\"40\",\"1\",\"Training\",\"Stims/Figures/27-C-30-1.bmp\",\"ma:mana\",\"Down\",\"40\",\"7\",\"10\",\"9\",\"S\",\"J\",\"106\"
\"\",\"\",\"approach-retreat\",\"110\",\"970961\",\"0.0-110.0\",\"\",\"\",\"3-1\",\"4498\",\"40\",\"1\",\"Training\",\"Stims/Figures/84-J-0-2.bmp\",\"pa:pata\",\"Up\",\"40\",\"7\",\"11\",\"9\",\"P\",\"J\",\"107\"
\"\",\"\",\"approach-retreat\",\"111\",\"976789\",\"0.0-111.0\",\"\",\"\",\"3-1\",\"4315\",\"37\",\"1\",\"Training\",\"Stims/Figures/128-C-30-3.bmp\",\"mamana\",\"Left\",\"37\",\"7\",\"12\",\"9\",\"S\",\"J\",\"108\"
\"\",\"\",\"approach-retreat\",\"112\",\"984752\",\"0.0-112.0\",\"\",\"\",\"3-1\",\"6450\",\"38\",\"1\",\"Training\",\"Stims/Figures/128-J-10-3.bmp\",\"va:sha:va\",\"Down\",\"38\",\"7\",\"13\",\"9\",\"C1\",\"J\",\"109\"
\"\",\"\",\"approach-retreat\",\"113\",\"991008\",\"0.0-113.0\",\"\",\"\",\"3-1\",\"4743\",\"39\",\"1\",\"Training\",\"Stims/Figures/86-C-30-1.bmp\",\"pa:pa:ka\",\"Right\",\"39\",\"7\",\"14\",\"9\",\"P\",\"J\",\"110\"
\"\",\"\",\"approach-retreat\",\"114\",\"996755\",\"0.0-114.0\",\"\",\"\",\"3-1\",\"4231\",\"37\",\"0\",\"Training\",\"Stims/Figures/7-C-20-4.bmp\",\"mamala\",\"Right\",\"39\",\"7\",\"15\",\"9\",\"S\",\"J\",\"111\"
\"\",\"\",\"approach-retreat\",\"115\",\"1004226\",\"0.0-115.0\",\"\",\"\",\"3-1\",\"5955\",\"40\",\"1\",\"Training\",\"Stims/Figures/84-C-20-2.bmp\",\"pakata\",\"Down\",\"40\",\"7\",\"16\",\"9\",\"P\",\"J\",\"112\"
\"\",\"\",\"approach-retreat\",\"116\",\"1010189\",\"0.0-116.0\",\"\",\"\",\"3-1\",\"4448\",\"37\",\"1\",\"Training\",\"Stims/Figures/7-J-10-4.bmp\",\"na:lala\",\"Right\",\"37\",\"8\",\"1\",\"9\",\"S\",\"J\",\"113\"
\"\",\"\",\"approach-retreat\",\"117\",\"1016015\",\"0.0-117.0\",\"\",\"\",\"3-1\",\"4313\",\"40\",\"0\",\"Training\",\"Stims/Figures/7-C-20-4.bmp\",\"mamala\",\"Up\",\"38\",\"8\",\"2\",\"9\",\"S\",\"J\",\"114\"
\"\",\"\",\"approach-retreat\",\"118\",\"1021783\",\"0.0-118.0\",\"\",\"\",\"3-1\",\"4254\",\"37\",\"1\",\"Training\",\"Stims/Figures/139-J-0-2.bmp\",\"sasa:ha\",\"Right\",\"37\",\"8\",\"3\",\"9\",\"C2\",\"J\",\"115\"
\"\",\"\",\"approach-retreat\",\"119\",\"1028071\",\"0.0-119.0\",\"\",\"\",\"3-1\",\"4777\",\"37\",\"0\",\"Training\",\"Stims/Figures/74-J-10-4.bmp\",\"ma:lana\",\"Left\",\"39\",\"8\",\"4\",\"9\",\"S\",\"J\",\"116\"
\"\",\"\",\"approach-retreat\",\"120\",\"1033947\",\"0.0-120.0\",\"\",\"\",\"3-1\",\"4363\",\"37\",\"1\",\"Training\",\"Stims/Figures/139-C-20-2.bmp\",\"ma:la:na\",\"Left\",\"37\",\"8\",\"5\",\"9\",\"S\",\"J\",\"117\"
\"\",\"\",\"approach-retreat\",\"121\",\"1039696\",\"0.0-121.0\",\"\",\"\",\"3-1\",\"4230\",\"40\",\"0\",\"Training\",\"Stims/Figures/84-J-0-2.bmp\",\"pa:pata\",\"Down\",\"38\",\"8\",\"6\",\"9\",\"P\",\"J\",\"118\"
\"\",\"\",\"approach-retreat\",\"122\",\"1045396\",\"0.0-122.0\",\"\",\"\",\"3-1\",\"4187\",\"39\",\"0\",\"Training\",\"Stims/Figures/74-C-20-4.bmp\",\"za:haza\",\"Left\",\"37\",\"8\",\"7\",\"9\",\"C2\",\"J\",\"119\"
\"\",\"\",\"approach-retreat\",\"123\",\"1051226\",\"0.0-123.0\",\"\",\"\",\"3-1\",\"4315\",\"37\",\"1\",\"Training\",\"Stims/Figures/84-C-20-2.bmp\",\"pakata\",\"Left\",\"37\",\"8\",\"8\",\"9\",\"P\",\"J\",\"120\"
\"\",\"\",\"approach-retreat\",\"124\",\"1057040\",\"0.0-124.0\",\"\",\"\",\"3-1\",\"4299\",\"40\",\"0\",\"Training\",\"Stims/Figures/27-J-0-1.bmp\",\"vafa:sha\",\"Down\",\"38\",\"8\",\"9\",\"9\",\"C1\",\"J\",\"121\"
\"\",\"\",\"approach-retreat\",\"125\",\"1062647\",\"0.0-125.0\",\"\",\"\",\"3-1\",\"4096\",\"40\",\"1\",\"Training\",\"Stims/Figures/144-C-30-3.bmp\",\"fa:sha:va\",\"Down\",\"40\",\"8\",\"10\",\"9\",\"C1\",\"J\",\"122\"
\"\",\"\",\"approach-retreat\",\"126\",\"1068503\",\"0.0-126.0\",\"\",\"\",\"3-1\",\"4350\",\"39\",\"1\",\"Training\",\"Stims/Figures/27-C-30-1.bmp\",\"ma:mana\",\"Right\",\"39\",\"8\",\"11\",\"9\",\"S\",\"J\",\"123\"
\"\",\"\",\"approach-retreat\",\"127\",\"1074328\",\"0.0-127.0\",\"\",\"\",\"3-1\",\"4313\",\"38\",\"1\",\"Training\",\"Stims/Figures/128-C-30-3.bmp\",\"mamana\",\"Up\",\"38\",\"8\",\"12\",\"9\",\"S\",\"J\",\"124\"
\"\",\"\",\"approach-retreat\",\"128\",\"1080071\",\"0.0-128.0\",\"\",\"\",\"3-1\",\"4226\",\"40\",\"1\",\"Training\",\"Stims/Figures/86-C-30-1.bmp\",\"pa:pa:ka\",\"Down\",\"40\",\"8\",\"13\",\"9\",\"P\",\"J\",\"125\"
\"\",\"\",\"approach-retreat\",\"129\",\"1086061\",\"0.0-129.0\",\"\",\"\",\"3-1\",\"4478\",\"37\",\"1\",\"Training\",\"Stims/Figures/128-J-10-3.bmp\",\"va:sha:va\",\"Right\",\"37\",\"8\",\"14\",\"9\",\"C1\",\"J\",\"126\"
\"\",\"\",\"approach-retreat\",\"130\",\"1092085\",\"0.0-130.0\",\"\",\"\",\"3-1\",\"4510\",\"38\",\"0\",\"Training\",\"Stims/Figures/86-J-0-1.bmp\",\"paka:ka\",\"Up\",\"40\",\"8\",\"15\",\"9\",\"P\",\"J\",\"127\"
\"\",\"\",\"approach-retreat\",\"131\",\"1097534\",\"0.0-131.0\",\"\",\"\",\"3-1\",\"3941\",\"40\",\"1\",\"Training\",\"Stims/Figures/144-J-10-3.bmp\",\"sasaza\",\"Up\",\"40\",\"8\",\"16\",\"9\",\"C2\",\"J\",\"128\"
\"\",\"\",\"approach-retreat\",\"132\",\"1107003\",\"0.0-132.0\",\"\",\"\",\"3-1\",\"7957\",\"38\",\"1\",\"Training\",\"Stims/Figures/144-C-30-3.bmp\",\"fa:sha:va\",\"Up\",\"38\",\"9\",\"1\",\"9\",\"C1\",\"J\",\"129\"
\"\",\"\",\"approach-retreat\",\"133\",\"1114818\",\"0.0-133.0\",\"\",\"\",\"3-1\",\"6305\",\"40\",\"0\",\"Training\",\"Stims/Figures/128-J-10-3.bmp\",\"va:sha:va\",\"Down\",\"38\",\"9\",\"2\",\"9\",\"C1\",\"J\",\"130\"
\"\",\"\",\"approach-retreat\",\"134\",\"1122748\",\"0.0-134.0\",\"\",\"\",\"3-1\",\"6416\",\"40\",\"0\",\"Training\",\"Stims/Figures/7-C-20-4.bmp\",\"mamala\",\"Up\",\"38\",\"9\",\"3\",\"9\",\"S\",\"J\",\"131\"
\"\",\"\",\"approach-retreat\",\"135\",\"1129741\",\"0.0-135.0\",\"\",\"\",\"3-1\",\"5479\",\"39\",\"1\",\"Training\",\"Stims/Figures/74-J-10-4.bmp\",\"ma:lana\",\"Left\",\"39\",\"9\",\"4\",\"9\",\"S\",\"J\",\"132\"
\"\",\"\",\"approach-retreat\",\"136\",\"1136322\",\"0.0-136.0\",\"\",\"\",\"3-1\",\"5068\",\"37\",\"0\",\"Training\",\"Stims/Figures/84-J-0-2.bmp\",\"pa:pata\",\"Left\",\"39\",\"9\",\"5\",\"9\",\"P\",\"J\",\"133\"
\"\",\"\",\"approach-retreat\",\"137\",\"1142165\",\"0.0-137.0\",\"\",\"\",\"3-1\",\"4329\",\"40\",\"1\",\"Training\",\"Stims/Figures/74-C-20-4.bmp\",\"za:haza\",\"Down\",\"40\",\"9\",\"6\",\"9\",\"C2\",\"J\",\"134\"
\"\",\"\",\"approach-retreat\",\"138\",\"1151935\",\"0.0-138.0\",\"\",\"\",\"3-1\",\"8253\",\"38\",\"0\",\"Training\",\"Stims/Figures/86-J-0-1.bmp\",\"paka:ka\",\"Up\",\"40\",\"9\",\"7\",\"9\",\"P\",\"J\",\"135\"
\"\",\"\",\"approach-retreat\",\"139\",\"1157544\",\"0.0-139.0\",\"\",\"\",\"3-1\",\"4094\",\"40\",\"1\",\"Training\",\"Stims/Figures/128-C-30-3.bmp\",\"mamana\",\"Down\",\"40\",\"9\",\"8\",\"9\",\"S\",\"J\",\"136\"
\"\",\"\",\"approach-retreat\",\"140\",\"1163414\",\"0.0-140.0\",\"\",\"\",\"3-1\",\"4356\",\"37\",\"1\",\"Training\",\"Stims/Figures/86-C-30-1.bmp\",\"pa:pa:ka\",\"Left\",\"37\",\"9\",\"9\",\"9\",\"P\",\"J\",\"137\"
\"\",\"\",\"approach-retreat\",\"141\",\"1169671\",\"0.0-141.0\",\"\",\"\",\"3-1\",\"4743\",\"39\",\"0\",\"Training\",\"Stims/Figures/144-J-10-3.bmp\",\"sasaza\",\"Right\",\"37\",\"9\",\"10\",\"9\",\"C2\",\"J\",\"138\"
\"\",\"\",\"approach-retreat\",\"142\",\"1175455\",\"0.0-142.0\",\"\",\"\",\"3-1\",\"4270\",\"39\",\"0\",\"Training\",\"Stims/Figures/139-J-0-2.bmp\",\"sasa:ha\",\"Right\",\"37\",\"9\",\"11\",\"9\",\"C2\",\"J\",\"139\"
\"\",\"\",\"approach-retreat\",\"143\",\"1181188\",\"0.0-143.0\",\"\",\"\",\"3-1\",\"4220\",\"39\",\"1\",\"Training\",\"Stims/Figures/27-C-30-1.bmp\",\"ma:mana\",\"Right\",\"39\",\"9\",\"12\",\"9\",\"S\",\"J\",\"140\"
\"\",\"\",\"approach-retreat\",\"144\",\"1188895\",\"0.0-144.0\",\"\",\"\",\"3-1\",\"6192\",\"37\",\"0\",\"Training\",\"Stims/Figures/7-J-10-4.bmp\",\"na:lala\",\"Left\",\"39\",\"9\",\"13\",\"9\",\"S\",\"J\",\"141\"
\"\",\"\",\"approach-retreat\",\"145\",\"1194786\",\"0.0-145.0\",\"\",\"\",\"3-1\",\"4373\",\"38\",\"1\",\"Training\",\"Stims/Figures/84-C-20-2.bmp\",\"pakata\",\"Up\",\"38\",\"9\",\"14\",\"9\",\"P\",\"J\",\"142\"
\"\",\"\",\"approach-retreat\",\"146\",\"1201976\",\"0.0-146.0\",\"\",\"\",\"3-1\",\"5677\",\"39\",\"1\",\"Training\",\"Stims/Figures/139-C-20-2.bmp\",\"ma:la:na\",\"Right\",\"39\",\"9\",\"15\",\"9\",\"S\",\"J\",\"143\"
\"\",\"\",\"approach-retreat\",\"147\",\"1207652\",\"0.0-147.0\",\"\",\"\",\"3-1\",\"4163\",\"40\",\"0\",\"Training\",\"Stims/Figures/27-J-0-1.bmp\",\"vafa:sha\",\"Down\",\"38\",\"9\",\"16\",\"9\",\"C1\",\"J\",\"144\"
\"19855\",\"\",\"instructions\",\"148\",\"1227508\",\"0.0-148.0\",\"[{\"\"page_index\"\":0,\"\"viewing_time\"\":19854}]\",\"\",\"\",\"\",\"\",\"\",\"\",\"\",\"\",\"\",\"\",\"\",\"\",\"\",\"\",\"\",\"\"
\"\",\"\",\"approach-retreat\",\"149\",\"1235183\",\"0.0-149.0\",\"\",\"\",\"3-1\",\"6161\",\"38\",\"1\",\"Testing\",\"Stims/Figures/57-J-0-1.bmp\",\"tapa:ta\",\"Down\",\"38\",\"1\",\"1\",\"9\",\"P\",\"J\",\"1\"
\"\",\"\",\"approach-retreat\",\"150\",\"1241292\",\"0.0-150.0\",\"\",\"\",\"3-1\",\"4596\",\"40\",\"0\",\"Testing\",\"Stims/Figures/86-C-30-1.bmp\",\"pa:pa:ka\",\"Up\",\"38\",\"1\",\"2\",\"9\",\"P\",\"J\",\"2\"
\"\",\"\",\"approach-retreat\",\"151\",\"1247661\",\"0.0-151.0\",\"\",\"\",\"3-1\",\"4858\",\"37\",\"0\",\"Testing\",\"Stims/Figures/85-J-0-2.bmp\",\"mama:na\",\"Left\",\"39\",\"1\",\"3\",\"9\",\"S\",\"J\",\"3\"
\"\",\"\",\"approach-retreat\",\"152\",\"1254675\",\"0.0-152.0\",\"\",\"\",\"3-1\",\"5503\",\"38\",\"1\",\"Testing\",\"Stims/Figures/7-C-20-4.bmp\",\"mamala\",\"Up\",\"38\",\"1\",\"4\",\"9\",\"S\",\"J\",\"4\"
\"\",\"\",\"approach-retreat\",\"153\",\"1260727\",\"0.0-153.0\",\"\",\"\",\"3-1\",\"4540\",\"40\",\"1\",\"Testing\",\"Stims/Figures/27-J-0-1.bmp\",\"vafa:sha\",\"Up\",\"40\",\"1\",\"5\",\"9\",\"C1\",\"J\",\"5\"
\"\",\"\",\"approach-retreat\",\"154\",\"1266894\",\"0.0-154.0\",\"\",\"\",\"3-1\",\"4655\",\"38\",\"1\",\"Testing\",\"Stims/Figures/144-C-30-3.bmp\",\"fa:sha:va\",\"Up\",\"38\",\"1\",\"6\",\"9\",\"C1\",\"J\",\"6\"
\"\",\"\",\"approach-retreat\",\"155\",\"1272941\",\"0.0-155.0\",\"\",\"\",\"3-1\",\"4534\",\"39\",\"1\",\"Testing\",\"Stims/Figures/86-J-0-1.bmp\",\"paka:ka\",\"Left\",\"39\",\"1\",\"7\",\"9\",\"P\",\"J\",\"7\"
\"\",\"\",\"approach-retreat\",\"156\",\"1320589\",\"0.0-156.0\",\"\",\"\",\"3-1\",\"46136\",\"38\",\"1\",\"Testing\",\"Stims/Figures/27-C-30-1.bmp\",\"ma:mana\",\"Up\",\"38\",\"1\",\"8\",\"9\",\"S\",\"J\",\"8\"
\"\",\"\",\"approach-retreat\",\"157\",\"1326453\",\"0.0-157.0\",\"\",\"\",\"3-1\",\"4354\",\"39\",\"0\",\"Testing\",\"Stims/Figures/74-J-10-4.bmp\",\"ma:lana\",\"Right\",\"37\",\"1\",\"9\",\"9\",\"S\",\"J\",\"9\"
\"\",\"\",\"approach-retreat\",\"158\",\"1332284\",\"0.0-158.0\",\"\",\"\",\"3-1\",\"4319\",\"37\",\"0\",\"Testing\",\"Stims/Figures/19-J-10-4.bmp\",\"zasaha\",\"Left\",\"39\",\"1\",\"10\",\"9\",\"C2\",\"J\",\"10\"
\"\",\"\",\"approach-retreat\",\"159\",\"1340587\",\"0.0-159.0\",\"\",\"\",\"3-1\",\"6790\",\"39\",\"1\",\"Testing\",\"Stims/Figures/74-C-20-4.bmp\",\"za:haza\",\"Right\",\"39\",\"1\",\"11\",\"9\",\"C2\",\"J\",\"11\"
\"\",\"\",\"approach-retreat\",\"160\",\"1346538\",\"0.0-160.0\",\"\",\"\",\"3-1\",\"4439\",\"37\",\"1\",\"Testing\",\"Stims/Figures/128-C-30-3.bmp\",\"mamana\",\"Left\",\"37\",\"1\",\"12\",\"9\",\"S\",\"J\",\"12\"
\"\",\"\",\"approach-retreat\",\"161\",\"1352529\",\"0.0-161.0\",\"\",\"\",\"3-1\",\"4480\",\"39\",\"0\",\"Testing\",\"Stims/Figures/7-J-10-4.bmp\",\"na:lala\",\"Right\",\"37\",\"1\",\"13\",\"9\",\"S\",\"J\",\"13\"
\"\",\"\",\"approach-retreat\",\"162\",\"1358562\",\"0.0-162.0\",\"\",\"\",\"3-1\",\"4519\",\"39\",\"1\",\"Testing\",\"Stims/Figures/100-C-30-3.bmp\",\"takata\",\"Right\",\"39\",\"1\",\"14\",\"9\",\"P\",\"J\",\"14\"
\"\",\"\",\"approach-retreat\",\"163\",\"1364460\",\"0.0-163.0\",\"\",\"\",\"3-1\",\"4393\",\"38\",\"1\",\"Testing\",\"Stims/Figures/84-J-0-2.bmp\",\"pa:pata\",\"Down\",\"38\",\"1\",\"15\",\"9\",\"P\",\"J\",\"15\"
\"\",\"\",\"approach-retreat\",\"164\",\"1370656\",\"0.0-164.0\",\"\",\"\",\"3-1\",\"4683\",\"40\",\"1\",\"Testing\",\"Stims/Figures/139-C-20-2.bmp\",\"ma:la:na\",\"Down\",\"40\",\"1\",\"16\",\"9\",\"S\",\"J\",\"16\"
\"\",\"\",\"approach-retreat\",\"165\",\"1385532\",\"0.0-165.0\",\"\",\"\",\"3-1\",\"13360\",\"39\",\"0\",\"Testing\",\"Stims/Figures/19-C-20-4.bmp\",\"fafasha\",\"Left\",\"37\",\"1\",\"17\",\"9\",\"C1\",\"J\",\"17\"
\"\",\"\",\"approach-retreat\",\"166\",\"1391413\",\"0.0-166.0\",\"\",\"\",\"3-1\",\"4372\",\"40\",\"1\",\"Testing\",\"Stims/Figures/100-J-10-3.bmp\",\"taka:ka\",\"Up\",\"40\",\"1\",\"18\",\"9\",\"P\",\"J\",\"18\"
\"\",\"\",\"approach-retreat\",\"167\",\"1398909\",\"0.0-167.0\",\"\",\"\",\"3-1\",\"5987\",\"38\",\"1\",\"Testing\",\"Stims/Figures/139-J-0-2.bmp\",\"sasa:ha\",\"Down\",\"38\",\"1\",\"19\",\"9\",\"C2\",\"J\",\"19\"
\"\",\"\",\"approach-retreat\",\"168\",\"1404672\",\"0.0-168.0\",\"\",\"\",\"3-1\",\"4250\",\"40\",\"0\",\"Testing\",\"Stims/Figures/128-J-10-3.bmp\",\"va:sha:va\",\"Down\",\"38\",\"1\",\"20\",\"9\",\"C1\",\"J\",\"20\"
\"\",\"\",\"approach-retreat\",\"169\",\"1410613\",\"0.0-169.0\",\"\",\"\",\"3-1\",\"4430\",\"37\",\"0\",\"Testing\",\"Stims/Figures/84-C-20-2.bmp\",\"pakata\",\"Right\",\"39\",\"1\",\"21\",\"9\",\"P\",\"J\",\"21\"
\"\",\"\",\"approach-retreat\",\"170\",\"1416454\",\"0.0-170.0\",\"\",\"\",\"3-1\",\"4328\",\"37\",\"1\",\"Testing\",\"Stims/Figures/57-C-30-1.bmp\",\"ta:ka:ka\",\"Left\",\"37\",\"1\",\"22\",\"9\",\"P\",\"J\",\"22\"
\"\",\"\",\"approach-retreat\",\"171\",\"1423249\",\"0.0-171.0\",\"\",\"\",\"3-1\",\"5283\",\"39\",\"1\",\"Testing\",\"Stims/Figures/85-C-20-2.bmp\",\"fa:fava\",\"Right\",\"39\",\"1\",\"23\",\"9\",\"C1\",\"J\",\"23\"
\"\",\"\",\"approach-retreat\",\"172\",\"1429115\",\"0.0-172.0\",\"\",\"\",\"3-1\",\"4354\",\"38\",\"1\",\"Testing\",\"Stims/Figures/144-J-10-3.bmp\",\"sasaza\",\"Down\",\"38\",\"1\",\"24\",\"9\",\"C2\",\"J\",\"24\"
\"\",\"\",\"approach-retreat\",\"173\",\"1438096\",\"0.0-173.0\",\"\",\"\",\"3-1\",\"7468\",\"39\",\"1\",\"Testing\",\"Stims/Figures/84-J-0-2.bmp\",\"pa:pata\",\"Left\",\"39\",\"2\",\"1\",\"9\",\"P\",\"J\",\"25\"
\"\",\"\",\"approach-retreat\",\"174\",\"1444182\",\"0.0-174.0\",\"\",\"\",\"3-1\",\"4573\",\"38\",\"1\",\"Testing\",\"Stims/Figures/139-J-0-2.bmp\",\"sasa:ha\",\"Down\",\"38\",\"2\",\"2\",\"9\",\"C2\",\"J\",\"26\"
\"\",\"\",\"approach-retreat\",\"175\",\"1451031\",\"0.0-175.0\",\"\",\"\",\"3-1\",\"5338\",\"39\",\"1\",\"Testing\",\"Stims/Figures/85-C-20-2.bmp\",\"fa:fava\",\"Right\",\"39\",\"2\",\"3\",\"9\",\"C1\",\"J\",\"27\"
\"\",\"\",\"approach-retreat\",\"176\",\"1456904\",\"0.0-176.0\",\"\",\"\",\"3-1\",\"4361\",\"37\",\"1\",\"Testing\",\"Stims/Figures/85-J-0-2.bmp\",\"mama:na\",\"Right\",\"37\",\"2\",\"4\",\"9\",\"S\",\"J\",\"28\"
\"\",\"\",\"approach-retreat\",\"177\",\"1468826\",\"0.0-177.0\",\"\",\"\",\"3-1\",\"10410\",\"38\",\"1\",\"Testing\",\"Stims/Figures/7-C-20-4.bmp\",\"mamala\",\"Up\",\"38\",\"2\",\"5\",\"9\",\"S\",\"J\",\"29\"
\"\",\"\",\"approach-retreat\",\"178\",\"1474690\",\"0.0-178.0\",\"\",\"\",\"3-1\",\"4353\",\"38\",\"0\",\"Testing\",\"Stims/Figures/84-C-20-2.bmp\",\"pakata\",\"Down\",\"40\",\"2\",\"6\",\"9\",\"P\",\"J\",\"30\"
\"\",\"\",\"approach-retreat\",\"179\",\"1482876\",\"0.0-179.0\",\"\",\"\",\"3-1\",\"6675\",\"38\",\"1\",\"Testing\",\"Stims/Figures/86-C-30-1.bmp\",\"pa:pa:ka\",\"Up\",\"38\",\"2\",\"7\",\"9\",\"P\",\"J\",\"31\"
\"\",\"\",\"approach-retreat\",\"180\",\"1488661\",\"0.0-180.0\",\"\",\"\",\"3-1\",\"4274\",\"37\",\"1\",\"Testing\",\"Stims/Figures/128-C-30-3.bmp\",\"mamana\",\"Left\",\"37\",\"2\",\"8\",\"9\",\"S\",\"J\",\"32\"
\"\",\"\",\"approach-retreat\",\"181\",\"1494499\",\"0.0-181.0\",\"\",\"\",\"3-1\",\"4328\",\"38\",\"1\",\"Testing\",\"Stims/Figures/139-C-20-2.bmp\",\"ma:la:na\",\"Up\",\"38\",\"2\",\"9\",\"9\",\"S\",\"J\",\"33\"
\"\",\"\",\"approach-retreat\",\"182\",\"1500298\",\"0.0-182.0\",\"\",\"\",\"3-1\",\"4288\",\"40\",\"1\",\"Testing\",\"Stims/Figures/19-C-20-4.bmp\",\"fafasha\",\"Down\",\"40\",\"2\",\"10\",\"9\",\"C1\",\"J\",\"34\"
\"\",\"\",\"approach-retreat\",\"183\",\"1508697\",\"0.0-183.0\",\"\",\"\",\"3-1\",\"6887\",\"40\",\"1\",\"Testing\",\"Stims/Figures/27-C-30-1.bmp\",\"ma:mana\",\"Down\",\"40\",\"2\",\"11\",\"9\",\"S\",\"J\",\"35\"
\"\",\"\",\"approach-retreat\",\"184\",\"1517748\",\"0.0-184.0\",\"\",\"\",\"3-1\",\"7542\",\"39\",\"1\",\"Testing\",\"Stims/Figures/27-J-0-1.bmp\",\"vafa:sha\",\"Left\",\"39\",\"2\",\"12\",\"9\",\"C1\",\"J\",\"36\"
\"\",\"\",\"approach-retreat\",\"185\",\"1535311\",\"0.0-185.0\",\"\",\"\",\"3-1\",\"16056\",\"37\",\"0\",\"Testing\",\"Stims/Figures/144-J-10-3.bmp\",\"sasaza\",\"Left\",\"39\",\"2\",\"13\",\"9\",\"C2\",\"J\",\"37\"
\"\",\"\",\"approach-retreat\",\"186\",\"1541240\",\"0.0-186.0\",\"\",\"\",\"3-1\",\"4419\",\"39\",\"1\",\"Testing\",\"Stims/Figures/57-C-30-1.bmp\",\"ta:ka:ka\",\"Right\",\"39\",\"2\",\"14\",\"9\",\"P\",\"J\",\"38\"
\"\",\"\",\"approach-retreat\",\"187\",\"1547043\",\"0.0-187.0\",\"\",\"\",\"3-1\",\"4297\",\"37\",\"1\",\"Testing\",\"Stims/Figures/57-J-0-1.bmp\",\"tapa:ta\",\"Right\",\"37\",\"2\",\"15\",\"9\",\"P\",\"J\",\"39\"
\"\",\"\",\"approach-retreat\",\"188\",\"1552899\",\"0.0-188.0\",\"\",\"\",\"3-1\",\"4345\",\"39\",\"1\",\"Testing\",\"Stims/Figures/144-C-30-3.bmp\",\"fa:sha:va\",\"Right\",\"39\",\"2\",\"16\",\"9\",\"C1\",\"J\",\"40\"
\"\",\"\",\"approach-retreat\",\"189\",\"1570921\",\"0.0-189.0\",\"\",\"\",\"3-1\",\"16517\",\"38\",\"0\",\"Testing\",\"Stims/Figures/128-J-10-3.bmp\",\"va:sha:va\",\"Up\",\"40\",\"2\",\"17\",\"9\",\"C1\",\"J\",\"41\"
\"\",\"\",\"approach-retreat\",\"190\",\"1576878\",\"0.0-190.0\",\"\",\"\",\"3-1\",\"4444\",\"37\",\"0\",\"Testing\",\"Stims/Figures/19-J-10-4.bmp\",\"zasaha\",\"Left\",\"39\",\"2\",\"18\",\"9\",\"C2\",\"J\",\"42\"
\"\",\"\",\"approach-retreat\",\"191\",\"1584156\",\"0.0-191.0\",\"\",\"\",\"3-1\",\"5768\",\"38\",\"0\",\"Testing\",\"Stims/Figures/100-J-10-3.bmp\",\"taka:ka\",\"Up\",\"40\",\"2\",\"19\",\"9\",\"P\",\"J\",\"43\"
\"\",\"\",\"approach-retreat\",\"192\",\"1590740\",\"0.0-192.0\",\"\",\"\",\"3-1\",\"5073\",\"40\",\"1\",\"Testing\",\"Stims/Figures/74-C-20-4.bmp\",\"za:haza\",\"Down\",\"40\",\"2\",\"20\",\"9\",\"C2\",\"J\",\"44\"
\"\",\"\",\"approach-retreat\",\"193\",\"1596952\",\"0.0-193.0\",\"\",\"\",\"3-1\",\"4701\",\"37\",\"1\",\"Testing\",\"Stims/Figures/100-C-30-3.bmp\",\"takata\",\"Left\",\"37\",\"2\",\"21\",\"9\",\"P\",\"J\",\"45\"
\"\",\"\",\"approach-retreat\",\"194\",\"1603304\",\"0.0-194.0\",\"\",\"\",\"3-1\",\"4840\",\"40\",\"0\",\"Testing\",\"Stims/Figures/86-J-0-1.bmp\",\"paka:ka\",\"Down\",\"38\",\"2\",\"22\",\"9\",\"P\",\"J\",\"46\"
\"\",\"\",\"approach-retreat\",\"195\",\"1609516\",\"0.0-195.0\",\"\",\"\",\"3-1\",\"4701\",\"40\",\"1\",\"Testing\",\"Stims/Figures/7-J-10-4.bmp\",\"na:lala\",\"Up\",\"40\",\"2\",\"23\",\"9\",\"S\",\"J\",\"47\"
\"\",\"\",\"approach-retreat\",\"196\",\"1615821\",\"0.0-196.0\",\"\",\"\",\"3-1\",\"4796\",\"37\",\"1\",\"Testing\",\"Stims/Figures/74-J-10-4.bmp\",\"ma:lana\",\"Right\",\"37\",\"2\",\"24\",\"9\",\"S\",\"J\",\"48\"
\"\",\"\",\"approach-retreat\",\"197\",\"1621932\",\"0.0-197.0\",\"\",\"\",\"3-1\",\"4599\",\"39\",\"1\",\"Testing\",\"Stims/Figures/86-C-30-1.bmp\",\"pa:pa:ka\",\"Right\",\"39\",\"3\",\"1\",\"9\",\"P\",\"J\",\"49\"
\"\",\"\",\"approach-retreat\",\"198\",\"1629094\",\"0.0-198.0\",\"\",\"\",\"3-1\",\"5652\",\"38\",\"0\",\"Testing\",\"Stims/Figures/84-C-20-2.bmp\",\"pakata\",\"Down\",\"40\",\"3\",\"2\",\"9\",\"P\",\"J\",\"50\"
\"\",\"\",\"approach-retreat\",\"199\",\"1634934\",\"0.0-199.0\",\"\",\"\",\"3-1\",\"4328\",\"40\",\"1\",\"Testing\",\"Stims/Figures/27-C-30-1.bmp\",\"ma:mana\",\"Down\",\"40\",\"3\",\"3\",\"9\",\"S\",\"J\",\"51\"
\"\",\"\",\"approach-retreat\",\"200\",\"1640716\",\"0.0-200.0\",\"\",\"\",\"3-1\",\"4272\",\"38\",\"0\",\"Testing\",\"Stims/Figures/74-J-10-4.bmp\",\"ma:lana\",\"Up\",\"40\",\"3\",\"4\",\"9\",\"S\",\"J\",\"52\"
\"\",\"\",\"approach-retreat\",\"201\",\"1654324\",\"0.0-201.0\",\"\",\"\",\"3-1\",\"12098\",\"37\",\"0\",\"Testing\",\"Stims/Figures/19-J-10-4.bmp\",\"zasaha\",\"Left\",\"39\",\"3\",\"5\",\"9\",\"C2\",\"J\",\"53\"
\"\",\"\",\"approach-retreat\",\"202\",\"1660861\",\"0.0-202.0\",\"\",\"\",\"3-1\",\"5023\",\"40\",\"1\",\"Testing\",\"Stims/Figures/74-C-20-4.bmp\",\"za:haza\",\"Down\",\"40\",\"3\",\"6\",\"9\",\"C2\",\"J\",\"54\"
\"\",\"\",\"approach-retreat\",\"203\",\"1675757\",\"0.0-203.0\",\"\",\"\",\"3-1\",\"13384\",\"40\",\"0\",\"Testing\",\"Stims/Figures/139-J-0-2.bmp\",\"sasa:ha\",\"Down\",\"38\",\"3\",\"7\",\"9\",\"C2\",\"J\",\"55\"
\"\",\"\",\"approach-retreat\",\"204\",\"1681411\",\"0.0-204.0\",\"\",\"\",\"3-1\",\"4143\",\"40\",\"0\",\"Testing\",\"Stims/Figures/139-C-20-2.bmp\",\"ma:la:na\",\"Up\",\"38\",\"3\",\"8\",\"9\",\"S\",\"J\",\"56\"
\"\",\"\",\"approach-retreat\",\"205\",\"1687849\",\"0.0-205.0\",\"\",\"\",\"3-1\",\"4925\",\"37\",\"1\",\"Testing\",\"Stims/Figures/57-C-30-1.bmp\",\"ta:ka:ka\",\"Left\",\"37\",\"3\",\"9\",\"9\",\"P\",\"J\",\"57\"
\"\",\"\",\"approach-retreat\",\"206\",\"1694211\",\"0.0-206.0\",\"\",\"\",\"3-1\",\"4846\",\"38\",\"0\",\"Testing\",\"Stims/Figures/85-J-0-2.bmp\",\"mama:na\",\"Up\",\"40\",\"3\",\"10\",\"9\",\"S\",\"J\",\"58\"
\"\",\"\",\"approach-retreat\",\"207\",\"1700175\",\"0.0-207.0\",\"\",\"\",\"3-1\",\"4451\",\"39\",\"1\",\"Testing\",\"Stims/Figures/85-C-20-2.bmp\",\"fa:fava\",\"Right\",\"39\",\"3\",\"11\",\"9\",\"C1\",\"J\",\"59\"
\"\",\"\",\"approach-retreat\",\"208\",\"1706788\",\"0.0-208.0\",\"\",\"\",\"3-1\",\"5101\",\"39\",\"0\",\"Testing\",\"Stims/Figures/128-J-10-3.bmp\",\"va:sha:va\",\"Right\",\"37\",\"3\",\"12\",\"9\",\"C1\",\"J\",\"60\"
\"\",\"\",\"approach-retreat\",\"209\",\"1712725\",\"0.0-209.0\",\"\",\"\",\"3-1\",\"4426\",\"37\",\"1\",\"Testing\",\"Stims/Figures/19-C-20-4.bmp\",\"fafasha\",\"Left\",\"37\",\"3\",\"13\",\"9\",\"C1\",\"J\",\"61\"
\"\",\"\",\"approach-retreat\",\"210\",\"1719720\",\"0.0-210.0\",\"\",\"\",\"3-1\",\"5485\",\"40\",\"0\",\"Testing\",\"Stims/Figures/144-J-10-3.bmp\",\"sasaza\",\"Down\",\"38\",\"3\",\"14\",\"9\",\"C2\",\"J\",\"62\"
\"\",\"\",\"approach-retreat\",\"211\",\"1726570\",\"0.0-211.0\",\"\",\"\",\"3-1\",\"5345\",\"38\",\"0\",\"Testing\",\"Stims/Figures/57-J-0-1.bmp\",\"tapa:ta\",\"Up\",\"40\",\"3\",\"15\",\"9\",\"P\",\"J\",\"63\"
\"\",\"\",\"approach-retreat\",\"212\",\"1732494\",\"0.0-212.0\",\"\",\"\",\"3-1\",\"4413\",\"38\",\"1\",\"Testing\",\"Stims/Figures/144-C-30-3.bmp\",\"fa:sha:va\",\"Up\",\"38\",\"3\",\"16\",\"9\",\"C1\",\"J\",\"64\"
\"\",\"\",\"approach-retreat\",\"213\",\"1738377\",\"0.0-213.0\",\"\",\"\",\"3-1\",\"4377\",\"37\",\"0\",\"Testing\",\"Stims/Figures/86-J-0-1.bmp\",\"paka:ka\",\"Left\",\"39\",\"3\",\"17\",\"9\",\"P\",\"J\",\"65\"
\"\",\"\",\"approach-retreat\",\"214\",\"1746754\",\"0.0-214.0\",\"\",\"\",\"3-1\",\"6859\",\"39\",\"1\",\"Testing\",\"Stims/Figures/128-C-30-3.bmp\",\"mamana\",\"Right\",\"39\",\"3\",\"18\",\"9\",\"S\",\"J\",\"66\"
\"\",\"\",\"approach-retreat\",\"215\",\"1753372\",\"0.0-215.0\",\"\",\"\",\"3-1\",\"5106\",\"39\",\"0\",\"Testing\",\"Stims/Figures/100-J-10-3.bmp\",\"taka:ka\",\"Right\",\"37\",\"3\",\"19\",\"9\",\"P\",\"J\",\"67\"
\"\",\"\",\"approach-retreat\",\"216\",\"1759192\",\"0.0-216.0\",\"\",\"\",\"3-1\",\"4309\",\"37\",\"0\",\"Testing\",\"Stims/Figures/7-C-20-4.bmp\",\"mamala\",\"Right\",\"39\",\"3\",\"20\",\"9\",\"S\",\"J\",\"68\"
\"\",\"\",\"approach-retreat\",\"217\",\"1765319\",\"0.0-217.0\",\"\",\"\",\"3-1\",\"4614\",\"38\",\"0\",\"Testing\",\"Stims/Figures/27-J-0-1.bmp\",\"vafa:sha\",\"Up\",\"40\",\"3\",\"21\",\"9\",\"C1\",\"J\",\"69\"
\"\",\"\",\"approach-retreat\",\"218\",\"1773656\",\"0.0-218.0\",\"\",\"\",\"3-1\",\"6824\",\"38\",\"1\",\"Testing\",\"Stims/Figures/7-J-10-4.bmp\",\"na:lala\",\"Down\",\"38\",\"3\",\"22\",\"9\",\"S\",\"J\",\"70\"
\"\",\"\",\"approach-retreat\",\"219\",\"1779479\",\"0.0-219.0\",\"\",\"\",\"3-1\",\"4312\",\"39\",\"1\",\"Testing\",\"Stims/Figures/84-J-0-2.bmp\",\"pa:pata\",\"Left\",\"39\",\"3\",\"23\",\"9\",\"P\",\"J\",\"71\"
\"\",\"\",\"approach-retreat\",\"220\",\"1787521\",\"0.0-220.0\",\"\",\"\",\"3-1\",\"6531\",\"37\",\"1\",\"Testing\",\"Stims/Figures/100-C-30-3.bmp\",\"takata\",\"Left\",\"37\",\"3\",\"24\",\"9\",\"P\",\"J\",\"72\"
\"\",\"\",\"approach-retreat\",\"221\",\"1793066\",\"0.0-221.0\",\"\",\"\",\"3-1\",\"4032\",\"39\",\"1\",\"Testing\",\"Stims/Figures/100-J-10-3.bmp\",\"taka:ka\",\"Left\",\"39\",\"4\",\"1\",\"9\",\"P\",\"J\",\"73\"
\"\",\"\",\"approach-retreat\",\"222\",\"1799270\",\"0.0-222.0\",\"\",\"\",\"3-1\",\"4689\",\"39\",\"1\",\"Testing\",\"Stims/Figures/139-J-0-2.bmp\",\"sasa:ha\",\"Left\",\"39\",\"4\",\"2\",\"9\",\"C2\",\"J\",\"74\"
\"\",\"\",\"approach-retreat\",\"223\",\"1805298\",\"0.0-223.0\",\"\",\"\",\"3-1\",\"4522\",\"40\",\"0\",\"Testing\",\"Stims/Figures/85-J-0-2.bmp\",\"mama:na\",\"Down\",\"38\",\"4\",\"3\",\"9\",\"S\",\"J\",\"75\"
\"\",\"\",\"approach-retreat\",\"224\",\"1811031\",\"0.0-224.0\",\"\",\"\",\"3-1\",\"4221\",\"40\",\"0\",\"Testing\",\"Stims/Figures/84-C-20-2.bmp\",\"pakata\",\"Up\",\"38\",\"4\",\"4\",\"9\",\"P\",\"J\",\"76\"
\"\",\"\",\"approach-retreat\",\"225\",\"1816709\",\"0.0-225.0\",\"\",\"\",\"3-1\",\"4165\",\"39\",\"0\",\"Testing\",\"Stims/Figures/19-J-10-4.bmp\",\"zasaha\",\"Right\",\"37\",\"4\",\"5\",\"9\",\"C2\",\"J\",\"77\"
\"\",\"\",\"approach-retreat\",\"226\",\"1822366\",\"0.0-226.0\",\"\",\"\",\"3-1\",\"4146\",\"38\",\"1\",\"Testing\",\"Stims/Figures/144-C-30-3.bmp\",\"fa:sha:va\",\"Up\",\"38\",\"4\",\"6\",\"9\",\"C1\",\"J\",\"78\"
\"\",\"\",\"approach-retreat\",\"227\",\"1828243\",\"0.0-227.0\",\"\",\"\",\"3-1\",\"4364\",\"38\",\"1\",\"Testing\",\"Stims/Figures/100-C-30-3.bmp\",\"takata\",\"Up\",\"38\",\"4\",\"7\",\"9\",\"P\",\"J\",\"79\"
\"\",\"\",\"approach-retreat\",\"228\",\"1834066\",\"0.0-228.0\",\"\",\"\",\"3-1\",\"4312\",\"39\",\"0\",\"Testing\",\"Stims/Figures/74-J-10-4.bmp\",\"ma:lana\",\"Right\",\"37\",\"4\",\"8\",\"9\",\"S\",\"J\",\"80\"
\"\",\"\",\"approach-retreat\",\"229\",\"1840182\",\"0.0-229.0\",\"\",\"\",\"3-1\",\"4603\",\"39\",\"1\",\"Testing\",\"Stims/Figures/7-J-10-4.bmp\",\"na:lala\",\"Left\",\"39\",\"4\",\"9\",\"9\",\"S\",\"J\",\"81\"
\"\",\"\",\"approach-retreat\",\"230\",\"1846064\",\"0.0-230.0\",\"\",\"\",\"3-1\",\"4376\",\"40\",\"1\",\"Testing\",\"Stims/Figures/27-C-30-1.bmp\",\"ma:mana\",\"Down\",\"40\",\"4\",\"10\",\"9\",\"S\",\"J\",\"82\"
\"\",\"\",\"approach-retreat\",\"231\",\"1851860\",\"0.0-231.0\",\"\",\"\",\"3-1\",\"4283\",\"40\",\"1\",\"Testing\",\"Stims/Figures/139-C-20-2.bmp\",\"ma:la:na\",\"Down\",\"40\",\"4\",\"11\",\"9\",\"S\",\"J\",\"83\"
\"\",\"\",\"approach-retreat\",\"232\",\"1860874\",\"0.0-232.0\",\"\",\"\",\"3-1\",\"7503\",\"37\",\"0\",\"Testing\",\"Stims/Figures/7-C-20-4.bmp\",\"mamala\",\"Right\",\"39\",\"4\",\"12\",\"9\",\"S\",\"J\",\"84\"
\"\",\"\",\"approach-retreat\",\"233\",\"1867733\",\"0.0-233.0\",\"\",\"\",\"3-1\",\"5342\",\"37\",\"1\",\"Testing\",\"Stims/Figures/19-C-20-4.bmp\",\"fafasha\",\"Left\",\"37\",\"4\",\"13\",\"9\",\"C1\",\"J\",\"85\"
\"\",\"\",\"approach-retreat\",\"234\",\"1873522\",\"0.0-234.0\",\"\",\"\",\"3-1\",\"4279\",\"37\",\"1\",\"Testing\",\"Stims/Figures/84-J-0-2.bmp\",\"pa:pata\",\"Right\",\"37\",\"4\",\"14\",\"9\",\"P\",\"J\",\"86\"
\"\",\"\",\"approach-retreat\",\"235\",\"1880012\",\"0.0-235.0\",\"\",\"\",\"3-1\",\"4979\",\"39\",\"1\",\"Testing\",\"Stims/Figures/128-C-30-3.bmp\",\"mamana\",\"Right\",\"39\",\"4\",\"15\",\"9\",\"S\",\"J\",\"87\"
\"\",\"\",\"approach-retreat\",\"236\",\"1886037\",\"0.0-236.0\",\"\",\"\",\"3-1\",\"4515\",\"37\",\"1\",\"Testing\",\"Stims/Figures/57-C-30-1.bmp\",\"ta:ka:ka\",\"Left\",\"37\",\"4\",\"16\",\"9\",\"P\",\"J\",\"88\"
\"\",\"\",\"approach-retreat\",\"237\",\"1892154\",\"0.0-237.0\",\"\",\"\",\"3-1\",\"4605\",\"40\",\"1\",\"Testing\",\"Stims/Figures/86-C-30-1.bmp\",\"pa:pa:ka\",\"Down\",\"40\",\"4\",\"17\",\"9\",\"P\",\"J\",\"89\"
\"\",\"\",\"approach-retreat\",\"238\",\"1897713\",\"0.0-238.0\",\"\",\"\",\"3-1\",\"4047\",\"38\",\"0\",\"Testing\",\"Stims/Figures/86-J-0-1.bmp\",\"paka:ka\",\"Up\",\"40\",\"4\",\"18\",\"9\",\"P\",\"J\",\"90\"
\"\",\"\",\"approach-retreat\",\"239\",\"1903676\",\"0.0-239.0\",\"\",\"\",\"3-1\",\"4452\",\"39\",\"1\",\"Testing\",\"Stims/Figures/85-C-20-2.bmp\",\"fa:fava\",\"Right\",\"39\",\"4\",\"19\",\"9\",\"C1\",\"J\",\"91\"
\"\",\"\",\"approach-retreat\",\"240\",\"1909145\",\"0.0-240.0\",\"\",\"\",\"3-1\",\"3957\",\"40\",\"1\",\"Testing\",\"Stims/Figures/128-J-10-3.bmp\",\"va:sha:va\",\"Up\",\"40\",\"4\",\"20\",\"9\",\"C1\",\"J\",\"92\"
\"\",\"\",\"approach-retreat\",\"241\",\"1915670\",\"0.0-241.0\",\"\",\"\",\"3-1\",\"5014\",\"38\",\"0\",\"Testing\",\"Stims/Figures/57-J-0-1.bmp\",\"tapa:ta\",\"Up\",\"40\",\"4\",\"21\",\"9\",\"P\",\"J\",\"93\"
\"\",\"\",\"approach-retreat\",\"242\",\"1921409\",\"0.0-242.0\",\"\",\"\",\"3-1\",\"4224\",\"38\",\"1\",\"Testing\",\"Stims/Figures/27-J-0-1.bmp\",\"vafa:sha\",\"Down\",\"38\",\"4\",\"22\",\"9\",\"C1\",\"J\",\"94\"
\"\",\"\",\"approach-retreat\",\"243\",\"1927304\",\"0.0-243.0\",\"\",\"\",\"3-1\",\"4383\",\"39\",\"0\",\"Testing\",\"Stims/Figures/74-C-20-4.bmp\",\"za:haza\",\"Left\",\"37\",\"4\",\"23\",\"9\",\"C2\",\"J\",\"95\"
\"\",\"\",\"approach-retreat\",\"244\",\"1932974\",\"0.0-244.0\",\"\",\"\",\"3-1\",\"4158\",\"38\",\"1\",\"Testing\",\"Stims/Figures/144-J-10-3.bmp\",\"sasaza\",\"Down\",\"38\",\"4\",\"24\",\"9\",\"C2\",\"J\",\"96\"
\"165520\",\"\",\"survey-text\",\"245\",\"2098502\",\"0.0-245.0\",\"\",\"{\"\"Q0\"\":\"\"\"\"}\",\"\",\"\",\"\",\"\",\"\",\"\",\"\",\"\",\"\",\"\",\"\",\"\",\"\",\"\",\"\"
