\"rt\",\"key_press\",\"trial_type\",\"trial_index\",\"time_elapsed\",\"internal_node_id\",\"view_history\",\"responses\",\"Id\",\"Rt\",\"ResKeyCode\",\"ResCorr\",\"TrialType2\",\"Image\",\"Label\",\"Location\",\"CorrectResponse\",\"Block\",\"BlockTrial\",\"Condition\",\"LabelType\",\"Subcondition\",\"trialNum\"
\"48540\",\"32\",\"text\",\"0\",\"48543\",\"0.0-0.0-0.0\",\"\",\"\",\"\",\"\",\"\",\"\",\"\",\"\",\"\",\"\",\"\",\"\",\"\",\"\",\"\",\"\",\"\"
\"47787\",\"\",\"instructions\",\"1\",\"96332\",\"0.0-1.0\",\"[{\"\"page_index\"\":0,\"\"viewing_time\"\":47786}]\",\"\",\"\",\"\",\"\",\"\",\"\",\"\",\"\",\"\",\"\",\"\",\"\",\"\",\"\",\"\",\"\"
\"19346\",\"\",\"survey-multi-choice\",\"2\",\"115727\",\"0.0-2.0\",\"\",\"{\"\"Q0\"\":\"\"Da\"\",\"\"Q1\"\":\"\"Da\"\",\"\"Q2\"\":\"\"Da\"\",\"\"Q3\"\":\"\"Da\"\",\"\"Q4\"\":\"\"Da\"\",\"\"Q5\"\":\"\"Da\"\"}\",\"\",\"\",\"\",\"\",\"\",\"\",\"\",\"\",\"\",\"\",\"\",\"\",\"\",\"\",\"\"
\"\",\"\",\"bio\",\"3\",\"123115\",\"0.0-3.0\",\"\",\"{\"\"age\"\":\"\"20\"\",\"\"gender\"\":\"\"f\"\",\"\"specify\"\":\"\"\"\"}\",\"\",\"\",\"\",\"\",\"\",\"\",\"\",\"\",\"\",\"\",\"\",\"\",\"\",\"\",\"\"
\"\",\"\",\"approach-retreat\",\"4\",\"133145\",\"0.0-4.0\",\"\",\"\",\"3-4\",\"8518\",\"39\",\"0\",\"Training\",\"Stims/Figures/44-C-30-3.bmp\",\"ma:la:la\",\"Left\",\"37\",\"1\",\"1\",\"4\",\"S\",\"J\",\"1\"
\"\",\"\",\"approach-retreat\",\"5\",\"142005\",\"0.0-5.0\",\"\",\"\",\"3-4\",\"7350\",\"38\",\"0\",\"Training\",\"Stims/Figures/86-J-0-1.bmp\",\"tapa:ta\",\"Up\",\"40\",\"1\",\"2\",\"4\",\"P\",\"J\",\"2\"
\"\",\"\",\"approach-retreat\",\"6\",\"150432\",\"0.0-6.0\",\"\",\"\",\"3-4\",\"6922\",\"39\",\"0\",\"Training\",\"Stims/Figures/19-J-10-4.bmp\",\"pa:pa:ka\",\"Right\",\"37\",\"1\",\"3\",\"4\",\"P\",\"J\",\"3\"
\"\",\"\",\"approach-retreat\",\"7\",\"157662\",\"0.0-7.0\",\"\",\"\",\"3-4\",\"5722\",\"37\",\"1\",\"Training\",\"Stims/Figures/19-C-20-4.bmp\",\"ma:la:na\",\"Left\",\"37\",\"1\",\"4\",\"4\",\"S\",\"J\",\"4\"
\"\",\"\",\"approach-retreat\",\"8\",\"165156\",\"0.0-8.0\",\"\",\"\",\"3-4\",\"5987\",\"40\",\"1\",\"Training\",\"Stims/Figures/27-C-30-1.bmp\",\"ma:lana\",\"Down\",\"40\",\"1\",\"5\",\"4\",\"S\",\"J\",\"5\"
\"\",\"\",\"approach-retreat\",\"9\",\"171930\",\"0.0-9.0\",\"\",\"\",\"3-4\",\"5267\",\"38\",\"0\",\"Training\",\"Stims/Figures/27-J-0-1.bmp\",\"pakata\",\"Up\",\"40\",\"1\",\"6\",\"4\",\"P\",\"J\",\"6\"
\"\",\"\",\"approach-retreat\",\"10\",\"179164\",\"0.0-10.0\",\"\",\"\",\"3-4\",\"5726\",\"40\",\"1\",\"Training\",\"Stims/Figures/128-C-30-3.bmp\",\"mala:na\",\"Down\",\"40\",\"1\",\"7\",\"4\",\"S\",\"J\",\"7\"
\"\",\"\",\"approach-retreat\",\"11\",\"187882\",\"0.0-11.0\",\"\",\"\",\"3-4\",\"7206\",\"39\",\"0\",\"Training\",\"Stims/Figures/85-J-0-2.bmp\",\"tapata\",\"Right\",\"37\",\"1\",\"8\",\"4\",\"P\",\"J\",\"8\"
\"\",\"\",\"approach-retreat\",\"12\",\"194165\",\"0.0-12.0\",\"\",\"\",\"3-4\",\"4769\",\"37\",\"0\",\"Training\",\"Stims/Figures/102-J-10-4.bmp\",\"papa:ta\",\"Left\",\"39\",\"1\",\"9\",\"4\",\"P\",\"J\",\"9\"
\"\",\"\",\"approach-retreat\",\"13\",\"201204\",\"0.0-13.0\",\"\",\"\",\"3-4\",\"5525\",\"40\",\"0\",\"Training\",\"Stims/Figures/84-C-20-2.bmp\",\"na:la:na\",\"Up\",\"38\",\"1\",\"10\",\"4\",\"S\",\"J\",\"10\"
\"\",\"\",\"approach-retreat\",\"14\",\"208314\",\"0.0-14.0\",\"\",\"\",\"3-4\",\"5599\",\"39\",\"1\",\"Training\",\"Stims/Figures/44-J-10-3.bmp\",\"papata\",\"Left\",\"39\",\"1\",\"11\",\"4\",\"P\",\"J\",\"11\"
\"\",\"\",\"approach-retreat\",\"15\",\"216108\",\"0.0-15.0\",\"\",\"\",\"3-4\",\"6281\",\"38\",\"1\",\"Training\",\"Stims/Figures/102-C-20-4.bmp\",\"nala:la\",\"Up\",\"38\",\"1\",\"12\",\"4\",\"S\",\"J\",\"12\"
\"\",\"\",\"approach-retreat\",\"16\",\"222867\",\"0.0-16.0\",\"\",\"\",\"3-4\",\"5246\",\"37\",\"0\",\"Training\",\"Stims/Figures/85-C-20-2.bmp\",\"ma:mana\",\"Right\",\"39\",\"1\",\"13\",\"4\",\"S\",\"J\",\"13\"
\"\",\"\",\"approach-retreat\",\"17\",\"232044\",\"0.0-17.0\",\"\",\"\",\"3-4\",\"7666\",\"40\",\"0\",\"Training\",\"Stims/Figures/128-J-10-3.bmp\",\"papa:ka\",\"Down\",\"38\",\"1\",\"14\",\"4\",\"P\",\"J\",\"14\"
\"\",\"\",\"approach-retreat\",\"18\",\"238170\",\"0.0-18.0\",\"\",\"\",\"3-4\",\"4614\",\"38\",\"0\",\"Training\",\"Stims/Figures/86-C-30-1.bmp\",\"malala\",\"Down\",\"40\",\"1\",\"15\",\"4\",\"S\",\"J\",\"15\"
\"\",\"\",\"approach-retreat\",\"19\",\"243823\",\"0.0-19.0\",\"\",\"\",\"3-4\",\"4139\",\"39\",\"0\",\"Training\",\"Stims/Figures/84-J-0-2.bmp\",\"paka:ta\",\"Right\",\"37\",\"1\",\"16\",\"4\",\"P\",\"J\",\"16\"
\"\",\"\",\"approach-retreat\",\"20\",\"250456\",\"0.0-20.0\",\"\",\"\",\"3-4\",\"5121\",\"37\",\"0\",\"Training\",\"Stims/Figures/84-C-20-2.bmp\",\"na:la:na\",\"Right\",\"39\",\"2\",\"1\",\"4\",\"S\",\"J\",\"17\"
\"\",\"\",\"approach-retreat\",\"21\",\"256731\",\"0.0-21.0\",\"\",\"\",\"3-4\",\"4762\",\"38\",\"1\",\"Training\",\"Stims/Figures/85-C-20-2.bmp\",\"ma:mana\",\"Up\",\"38\",\"2\",\"2\",\"4\",\"S\",\"J\",\"18\"
\"\",\"\",\"approach-retreat\",\"22\",\"262875\",\"0.0-22.0\",\"\",\"\",\"3-4\",\"4632\",\"38\",\"1\",\"Training\",\"Stims/Figures/44-C-30-3.bmp\",\"ma:la:la\",\"Up\",\"38\",\"2\",\"3\",\"4\",\"S\",\"J\",\"19\"
\"\",\"\",\"approach-retreat\",\"23\",\"269420\",\"0.0-23.0\",\"\",\"\",\"3-4\",\"5032\",\"37\",\"0\",\"Training\",\"Stims/Figures/102-J-10-4.bmp\",\"papa:ta\",\"Left\",\"39\",\"2\",\"4\",\"4\",\"P\",\"J\",\"20\"
\"\",\"\",\"approach-retreat\",\"24\",\"275989\",\"0.0-24.0\",\"\",\"\",\"3-4\",\"5058\",\"37\",\"1\",\"Training\",\"Stims/Figures/102-C-20-4.bmp\",\"nala:la\",\"Left\",\"37\",\"2\",\"5\",\"4\",\"S\",\"J\",\"21\"
\"\",\"\",\"approach-retreat\",\"25\",\"283578\",\"0.0-25.0\",\"\",\"\",\"3-4\",\"6074\",\"37\",\"1\",\"Training\",\"Stims/Figures/86-J-0-1.bmp\",\"tapa:ta\",\"Right\",\"37\",\"2\",\"6\",\"4\",\"P\",\"J\",\"22\"
\"\",\"\",\"approach-retreat\",\"26\",\"290581\",\"0.0-26.0\",\"\",\"\",\"3-4\",\"5490\",\"38\",\"1\",\"Training\",\"Stims/Figures/27-J-0-1.bmp\",\"pakata\",\"Down\",\"38\",\"2\",\"7\",\"4\",\"P\",\"J\",\"23\"
\"\",\"\",\"approach-retreat\",\"27\",\"298575\",\"0.0-27.0\",\"\",\"\",\"3-4\",\"6481\",\"37\",\"1\",\"Training\",\"Stims/Figures/27-C-30-1.bmp\",\"ma:lana\",\"Left\",\"37\",\"2\",\"8\",\"4\",\"S\",\"J\",\"24\"
\"\",\"\",\"approach-retreat\",\"28\",\"305747\",\"0.0-28.0\",\"\",\"\",\"3-4\",\"5659\",\"38\",\"1\",\"Training\",\"Stims/Figures/86-C-30-1.bmp\",\"malala\",\"Up\",\"38\",\"2\",\"9\",\"4\",\"S\",\"J\",\"25\"
\"\",\"\",\"approach-retreat\",\"29\",\"312680\",\"0.0-29.0\",\"\",\"\",\"3-4\",\"5422\",\"38\",\"1\",\"Training\",\"Stims/Figures/85-J-0-2.bmp\",\"tapata\",\"Down\",\"38\",\"2\",\"10\",\"4\",\"P\",\"J\",\"26\"
\"\",\"\",\"approach-retreat\",\"30\",\"319298\",\"0.0-30.0\",\"\",\"\",\"3-4\",\"5106\",\"37\",\"1\",\"Training\",\"Stims/Figures/44-J-10-3.bmp\",\"papata\",\"Right\",\"37\",\"2\",\"11\",\"4\",\"P\",\"J\",\"27\"
\"\",\"\",\"approach-retreat\",\"31\",\"326114\",\"0.0-31.0\",\"\",\"\",\"3-4\",\"5303\",\"40\",\"1\",\"Training\",\"Stims/Figures/19-C-20-4.bmp\",\"ma:la:na\",\"Down\",\"40\",\"2\",\"12\",\"4\",\"S\",\"J\",\"28\"
\"\",\"\",\"approach-retreat\",\"32\",\"334927\",\"0.0-32.0\",\"\",\"\",\"3-4\",\"7301\",\"39\",\"1\",\"Training\",\"Stims/Figures/84-J-0-2.bmp\",\"paka:ta\",\"Left\",\"39\",\"2\",\"13\",\"4\",\"P\",\"J\",\"29\"
\"\",\"\",\"approach-retreat\",\"33\",\"343945\",\"0.0-33.0\",\"\",\"\",\"3-4\",\"7505\",\"40\",\"0\",\"Training\",\"Stims/Figures/128-C-30-3.bmp\",\"mala:na\",\"Up\",\"38\",\"2\",\"14\",\"4\",\"S\",\"J\",\"30\"
\"\",\"\",\"approach-retreat\",\"34\",\"351356\",\"0.0-34.0\",\"\",\"\",\"3-4\",\"5900\",\"38\",\"1\",\"Training\",\"Stims/Figures/19-J-10-4.bmp\",\"pa:pa:ka\",\"Down\",\"38\",\"2\",\"15\",\"4\",\"P\",\"J\",\"31\"
\"\",\"\",\"approach-retreat\",\"35\",\"359071\",\"0.0-35.0\",\"\",\"\",\"3-4\",\"6199\",\"39\",\"0\",\"Training\",\"Stims/Figures/128-J-10-3.bmp\",\"papa:ka\",\"Right\",\"37\",\"2\",\"16\",\"4\",\"P\",\"J\",\"32\"
\"\",\"\",\"approach-retreat\",\"36\",\"366042\",\"0.0-36.0\",\"\",\"\",\"3-4\",\"5457\",\"39\",\"1\",\"Training\",\"Stims/Figures/85-C-20-2.bmp\",\"ma:mana\",\"Right\",\"39\",\"3\",\"1\",\"4\",\"S\",\"J\",\"33\"
\"\",\"\",\"approach-retreat\",\"37\",\"375480\",\"0.0-37.0\",\"\",\"\",\"3-4\",\"7927\",\"37\",\"1\",\"Training\",\"Stims/Figures/19-C-20-4.bmp\",\"ma:la:na\",\"Left\",\"37\",\"3\",\"2\",\"4\",\"S\",\"J\",\"34\"
\"\",\"\",\"approach-retreat\",\"38\",\"382832\",\"0.0-38.0\",\"\",\"\",\"3-4\",\"5837\",\"38\",\"1\",\"Training\",\"Stims/Figures/19-J-10-4.bmp\",\"pa:pa:ka\",\"Down\",\"38\",\"3\",\"3\",\"4\",\"P\",\"J\",\"35\"
\"\",\"\",\"approach-retreat\",\"39\",\"390313\",\"0.0-39.0\",\"\",\"\",\"3-4\",\"5967\",\"37\",\"1\",\"Training\",\"Stims/Figures/84-J-0-2.bmp\",\"paka:ta\",\"Right\",\"37\",\"3\",\"4\",\"4\",\"P\",\"J\",\"36\"
\"\",\"\",\"approach-retreat\",\"40\",\"397892\",\"0.0-40.0\",\"\",\"\",\"3-4\",\"6067\",\"40\",\"0\",\"Training\",\"Stims/Figures/128-C-30-3.bmp\",\"mala:na\",\"Up\",\"38\",\"3\",\"5\",\"4\",\"S\",\"J\",\"37\"
\"\",\"\",\"approach-retreat\",\"41\",\"404761\",\"0.0-41.0\",\"\",\"\",\"3-4\",\"5358\",\"38\",\"1\",\"Training\",\"Stims/Figures/27-C-30-1.bmp\",\"ma:lana\",\"Up\",\"38\",\"3\",\"6\",\"4\",\"S\",\"J\",\"38\"
\"\",\"\",\"approach-retreat\",\"42\",\"412067\",\"0.0-42.0\",\"\",\"\",\"3-4\",\"5792\",\"40\",\"1\",\"Training\",\"Stims/Figures/85-J-0-2.bmp\",\"tapata\",\"Up\",\"40\",\"3\",\"7\",\"4\",\"P\",\"J\",\"39\"
\"\",\"\",\"approach-retreat\",\"43\",\"420361\",\"0.0-43.0\",\"\",\"\",\"3-4\",\"6780\",\"40\",\"1\",\"Training\",\"Stims/Figures/86-C-30-1.bmp\",\"malala\",\"Down\",\"40\",\"3\",\"8\",\"4\",\"S\",\"J\",\"40\"
\"\",\"\",\"approach-retreat\",\"44\",\"427212\",\"0.0-44.0\",\"\",\"\",\"3-4\",\"5338\",\"40\",\"1\",\"Training\",\"Stims/Figures/44-C-30-3.bmp\",\"ma:la:la\",\"Down\",\"40\",\"3\",\"9\",\"4\",\"S\",\"J\",\"41\"
\"\",\"\",\"approach-retreat\",\"45\",\"433613\",\"0.0-45.0\",\"\",\"\",\"3-4\",\"4888\",\"38\",\"0\",\"Training\",\"Stims/Figures/102-C-20-4.bmp\",\"nala:la\",\"Down\",\"40\",\"3\",\"10\",\"4\",\"S\",\"J\",\"42\"
\"\",\"\",\"approach-retreat\",\"46\",\"440082\",\"0.0-46.0\",\"\",\"\",\"3-4\",\"4957\",\"39\",\"1\",\"Training\",\"Stims/Figures/86-J-0-1.bmp\",\"tapa:ta\",\"Left\",\"39\",\"3\",\"11\",\"4\",\"P\",\"J\",\"43\"
\"\",\"\",\"approach-retreat\",\"47\",\"446010\",\"0.0-47.0\",\"\",\"\",\"3-4\",\"4416\",\"39\",\"1\",\"Training\",\"Stims/Figures/27-J-0-1.bmp\",\"pakata\",\"Left\",\"39\",\"3\",\"12\",\"4\",\"P\",\"J\",\"44\"
\"\",\"\",\"approach-retreat\",\"48\",\"453303\",\"0.0-48.0\",\"\",\"\",\"3-4\",\"5781\",\"37\",\"0\",\"Training\",\"Stims/Figures/84-C-20-2.bmp\",\"na:la:na\",\"Right\",\"39\",\"3\",\"13\",\"4\",\"S\",\"J\",\"45\"
\"\",\"\",\"approach-retreat\",\"49\",\"459446\",\"0.0-49.0\",\"\",\"\",\"3-4\",\"4631\",\"39\",\"1\",\"Training\",\"Stims/Figures/128-J-10-3.bmp\",\"papa:ka\",\"Left\",\"39\",\"3\",\"14\",\"4\",\"P\",\"J\",\"46\"
\"\",\"\",\"approach-retreat\",\"50\",\"466001\",\"0.0-50.0\",\"\",\"\",\"3-4\",\"5042\",\"40\",\"1\",\"Training\",\"Stims/Figures/44-J-10-3.bmp\",\"papata\",\"Up\",\"40\",\"3\",\"15\",\"4\",\"P\",\"J\",\"47\"
\"\",\"\",\"approach-retreat\",\"51\",\"472386\",\"0.0-51.0\",\"\",\"\",\"3-4\",\"4873\",\"37\",\"1\",\"Training\",\"Stims/Figures/102-J-10-4.bmp\",\"papa:ta\",\"Right\",\"37\",\"3\",\"16\",\"4\",\"P\",\"J\",\"48\"
\"\",\"\",\"approach-retreat\",\"52\",\"481245\",\"0.0-52.0\",\"\",\"\",\"3-4\",\"7347\",\"37\",\"1\",\"Training\",\"Stims/Figures/128-C-30-3.bmp\",\"mala:na\",\"Left\",\"37\",\"4\",\"1\",\"4\",\"S\",\"J\",\"49\"
\"\",\"\",\"approach-retreat\",\"53\",\"487590\",\"0.0-53.0\",\"\",\"\",\"3-4\",\"4832\",\"38\",\"1\",\"Training\",\"Stims/Figures/128-J-10-3.bmp\",\"papa:ka\",\"Down\",\"38\",\"4\",\"2\",\"4\",\"P\",\"J\",\"50\"
\"\",\"\",\"approach-retreat\",\"54\",\"494497\",\"0.0-54.0\",\"\",\"\",\"3-4\",\"5396\",\"38\",\"1\",\"Training\",\"Stims/Figures/102-J-10-4.bmp\",\"papa:ta\",\"Down\",\"38\",\"4\",\"3\",\"4\",\"P\",\"J\",\"51\"
\"\",\"\",\"approach-retreat\",\"55\",\"501325\",\"0.0-55.0\",\"\",\"\",\"3-4\",\"5315\",\"38\",\"1\",\"Training\",\"Stims/Figures/44-J-10-3.bmp\",\"papata\",\"Down\",\"38\",\"4\",\"4\",\"4\",\"P\",\"J\",\"52\"
\"\",\"\",\"approach-retreat\",\"56\",\"507724\",\"0.0-56.0\",\"\",\"\",\"3-4\",\"4885\",\"39\",\"1\",\"Training\",\"Stims/Figures/86-J-0-1.bmp\",\"tapa:ta\",\"Left\",\"39\",\"4\",\"5\",\"4\",\"P\",\"J\",\"53\"
\"\",\"\",\"approach-retreat\",\"57\",\"514601\",\"0.0-57.0\",\"\",\"\",\"3-4\",\"5364\",\"37\",\"1\",\"Training\",\"Stims/Figures/102-C-20-4.bmp\",\"nala:la\",\"Left\",\"37\",\"4\",\"6\",\"4\",\"S\",\"J\",\"54\"
\"\",\"\",\"approach-retreat\",\"58\",\"520895\",\"0.0-58.0\",\"\",\"\",\"3-4\",\"4782\",\"39\",\"1\",\"Training\",\"Stims/Figures/85-J-0-2.bmp\",\"tapata\",\"Left\",\"39\",\"4\",\"7\",\"4\",\"P\",\"J\",\"55\"
\"\",\"\",\"approach-retreat\",\"59\",\"527444\",\"0.0-59.0\",\"\",\"\",\"3-4\",\"5034\",\"40\",\"1\",\"Training\",\"Stims/Figures/27-J-0-1.bmp\",\"pakata\",\"Up\",\"40\",\"4\",\"8\",\"4\",\"P\",\"J\",\"56\"
\"\",\"\",\"approach-retreat\",\"60\",\"534834\",\"0.0-60.0\",\"\",\"\",\"3-4\",\"5877\",\"39\",\"1\",\"Training\",\"Stims/Figures/19-C-20-4.bmp\",\"ma:la:na\",\"Right\",\"39\",\"4\",\"9\",\"4\",\"S\",\"J\",\"57\"
\"\",\"\",\"approach-retreat\",\"61\",\"541614\",\"0.0-61.0\",\"\",\"\",\"3-4\",\"5265\",\"40\",\"1\",\"Training\",\"Stims/Figures/84-J-0-2.bmp\",\"paka:ta\",\"Up\",\"40\",\"4\",\"10\",\"4\",\"P\",\"J\",\"58\"
\"\",\"\",\"approach-retreat\",\"62\",\"547747\",\"0.0-62.0\",\"\",\"\",\"3-4\",\"4615\",\"40\",\"1\",\"Training\",\"Stims/Figures/86-C-30-1.bmp\",\"malala\",\"Down\",\"40\",\"4\",\"11\",\"4\",\"S\",\"J\",\"59\"
\"\",\"\",\"approach-retreat\",\"63\",\"557549\",\"0.0-63.0\",\"\",\"\",\"3-4\",\"8289\",\"38\",\"1\",\"Training\",\"Stims/Figures/27-C-30-1.bmp\",\"ma:lana\",\"Up\",\"38\",\"4\",\"12\",\"4\",\"S\",\"J\",\"60\"
\"\",\"\",\"approach-retreat\",\"64\",\"564095\",\"0.0-64.0\",\"\",\"\",\"3-4\",\"5033\",\"39\",\"1\",\"Training\",\"Stims/Figures/44-C-30-3.bmp\",\"ma:la:la\",\"Right\",\"39\",\"4\",\"13\",\"4\",\"S\",\"J\",\"61\"
\"\",\"\",\"approach-retreat\",\"65\",\"570267\",\"0.0-65.0\",\"\",\"\",\"3-4\",\"4658\",\"39\",\"1\",\"Training\",\"Stims/Figures/84-C-20-2.bmp\",\"na:la:na\",\"Right\",\"39\",\"4\",\"14\",\"4\",\"S\",\"J\",\"62\"
\"\",\"\",\"approach-retreat\",\"66\",\"576694\",\"0.0-66.0\",\"\",\"\",\"3-4\",\"4915\",\"40\",\"1\",\"Training\",\"Stims/Figures/19-J-10-4.bmp\",\"pa:pa:ka\",\"Up\",\"40\",\"4\",\"15\",\"4\",\"P\",\"J\",\"63\"
\"\",\"\",\"approach-retreat\",\"67\",\"583683\",\"0.0-67.0\",\"\",\"\",\"3-4\",\"5475\",\"39\",\"1\",\"Training\",\"Stims/Figures/85-C-20-2.bmp\",\"ma:mana\",\"Right\",\"39\",\"4\",\"16\",\"4\",\"S\",\"J\",\"64\"
\"\",\"\",\"approach-retreat\",\"68\",\"589887\",\"0.0-68.0\",\"\",\"\",\"3-4\",\"4691\",\"38\",\"1\",\"Training\",\"Stims/Figures/44-J-10-3.bmp\",\"papata\",\"Down\",\"38\",\"5\",\"1\",\"4\",\"P\",\"J\",\"65\"
\"\",\"\",\"approach-retreat\",\"69\",\"595871\",\"0.0-69.0\",\"\",\"\",\"3-4\",\"4470\",\"38\",\"1\",\"Training\",\"Stims/Figures/85-J-0-2.bmp\",\"tapata\",\"Down\",\"38\",\"5\",\"2\",\"4\",\"P\",\"J\",\"66\"
\"\",\"\",\"approach-retreat\",\"70\",\"602911\",\"0.0-70.0\",\"\",\"\",\"3-4\",\"5527\",\"37\",\"1\",\"Training\",\"Stims/Figures/27-J-0-1.bmp\",\"pakata\",\"Right\",\"37\",\"5\",\"3\",\"4\",\"P\",\"J\",\"67\"
\"\",\"\",\"approach-retreat\",\"71\",\"608963\",\"0.0-71.0\",\"\",\"\",\"3-4\",\"4539\",\"40\",\"1\",\"Training\",\"Stims/Figures/19-C-20-4.bmp\",\"ma:la:na\",\"Down\",\"40\",\"5\",\"4\",\"4\",\"S\",\"J\",\"68\"
\"\",\"\",\"approach-retreat\",\"72\",\"616122\",\"0.0-72.0\",\"\",\"\",\"3-4\",\"5646\",\"37\",\"1\",\"Training\",\"Stims/Figures/128-C-30-3.bmp\",\"mala:na\",\"Left\",\"37\",\"5\",\"5\",\"4\",\"S\",\"J\",\"69\"
\"\",\"\",\"approach-retreat\",\"73\",\"622274\",\"0.0-73.0\",\"\",\"\",\"3-4\",\"4638\",\"37\",\"1\",\"Training\",\"Stims/Figures/44-C-30-3.bmp\",\"ma:la:la\",\"Left\",\"37\",\"5\",\"6\",\"4\",\"S\",\"J\",\"70\"
\"\",\"\",\"approach-retreat\",\"74\",\"628932\",\"0.0-74.0\",\"\",\"\",\"3-4\",\"5147\",\"37\",\"1\",\"Training\",\"Stims/Figures/27-C-30-1.bmp\",\"ma:lana\",\"Left\",\"37\",\"5\",\"7\",\"4\",\"S\",\"J\",\"71\"
\"\",\"\",\"approach-retreat\",\"75\",\"635720\",\"0.0-75.0\",\"\",\"\",\"3-4\",\"5275\",\"40\",\"1\",\"Training\",\"Stims/Figures/86-J-0-1.bmp\",\"tapa:ta\",\"Up\",\"40\",\"5\",\"8\",\"4\",\"P\",\"J\",\"72\"
\"\",\"\",\"approach-retreat\",\"76\",\"643040\",\"0.0-76.0\",\"\",\"\",\"3-4\",\"5807\",\"40\",\"1\",\"Training\",\"Stims/Figures/19-J-10-4.bmp\",\"pa:pa:ka\",\"Up\",\"40\",\"5\",\"9\",\"4\",\"P\",\"J\",\"73\"
\"\",\"\",\"approach-retreat\",\"77\",\"649031\",\"0.0-77.0\",\"\",\"\",\"3-4\",\"4480\",\"38\",\"1\",\"Training\",\"Stims/Figures/86-C-30-1.bmp\",\"malala\",\"Up\",\"38\",\"5\",\"10\",\"4\",\"S\",\"J\",\"74\"
\"\",\"\",\"approach-retreat\",\"78\",\"657752\",\"0.0-78.0\",\"\",\"\",\"3-4\",\"7208\",\"38\",\"1\",\"Training\",\"Stims/Figures/84-J-0-2.bmp\",\"paka:ta\",\"Down\",\"38\",\"5\",\"11\",\"4\",\"P\",\"J\",\"75\"
\"\",\"\",\"approach-retreat\",\"79\",\"664236\",\"0.0-79.0\",\"\",\"\",\"3-4\",\"4972\",\"37\",\"1\",\"Training\",\"Stims/Figures/128-J-10-3.bmp\",\"papa:ka\",\"Right\",\"37\",\"5\",\"12\",\"4\",\"P\",\"J\",\"76\"
\"\",\"\",\"approach-retreat\",\"80\",\"671175\",\"0.0-80.0\",\"\",\"\",\"3-4\",\"5425\",\"39\",\"1\",\"Training\",\"Stims/Figures/102-C-20-4.bmp\",\"nala:la\",\"Right\",\"39\",\"5\",\"13\",\"4\",\"S\",\"J\",\"77\"
\"\",\"\",\"approach-retreat\",\"81\",\"677188\",\"0.0-81.0\",\"\",\"\",\"3-4\",\"4501\",\"37\",\"1\",\"Training\",\"Stims/Figures/85-C-20-2.bmp\",\"ma:mana\",\"Left\",\"37\",\"5\",\"14\",\"4\",\"S\",\"J\",\"78\"
\"\",\"\",\"approach-retreat\",\"82\",\"683392\",\"0.0-82.0\",\"\",\"\",\"3-4\",\"4691\",\"38\",\"1\",\"Training\",\"Stims/Figures/84-C-20-2.bmp\",\"na:la:na\",\"Up\",\"38\",\"5\",\"15\",\"4\",\"S\",\"J\",\"79\"
\"\",\"\",\"approach-retreat\",\"83\",\"689527\",\"0.0-83.0\",\"\",\"\",\"3-4\",\"4621\",\"37\",\"1\",\"Training\",\"Stims/Figures/102-J-10-4.bmp\",\"papa:ta\",\"Right\",\"37\",\"5\",\"16\",\"4\",\"P\",\"J\",\"80\"
\"\",\"\",\"approach-retreat\",\"84\",\"696458\",\"0.0-84.0\",\"\",\"\",\"3-4\",\"5419\",\"39\",\"1\",\"Training\",\"Stims/Figures/19-J-10-4.bmp\",\"pa:pa:ka\",\"Left\",\"39\",\"6\",\"1\",\"4\",\"P\",\"J\",\"81\"
\"\",\"\",\"approach-retreat\",\"85\",\"702953\",\"0.0-85.0\",\"\",\"\",\"3-4\",\"4983\",\"38\",\"1\",\"Training\",\"Stims/Figures/86-J-0-1.bmp\",\"tapa:ta\",\"Down\",\"38\",\"6\",\"2\",\"4\",\"P\",\"J\",\"82\"
\"\",\"\",\"approach-retreat\",\"86\",\"709359\",\"0.0-86.0\",\"\",\"\",\"3-4\",\"4893\",\"38\",\"1\",\"Training\",\"Stims/Figures/27-C-30-1.bmp\",\"ma:lana\",\"Up\",\"38\",\"6\",\"3\",\"4\",\"S\",\"J\",\"83\"
\"\",\"\",\"approach-retreat\",\"87\",\"715858\",\"0.0-87.0\",\"\",\"\",\"3-4\",\"4987\",\"38\",\"1\",\"Training\",\"Stims/Figures/19-C-20-4.bmp\",\"ma:la:na\",\"Up\",\"38\",\"6\",\"4\",\"4\",\"S\",\"J\",\"84\"
\"\",\"\",\"approach-retreat\",\"88\",\"722574\",\"0.0-88.0\",\"\",\"\",\"3-4\",\"5203\",\"38\",\"1\",\"Training\",\"Stims/Figures/128-C-30-3.bmp\",\"mala:na\",\"Up\",\"38\",\"6\",\"5\",\"4\",\"S\",\"J\",\"85\"
\"\",\"\",\"approach-retreat\",\"89\",\"729017\",\"0.0-89.0\",\"\",\"\",\"3-4\",\"4930\",\"40\",\"1\",\"Training\",\"Stims/Figures/85-C-20-2.bmp\",\"ma:mana\",\"Down\",\"40\",\"6\",\"6\",\"4\",\"S\",\"J\",\"86\"
\"\",\"\",\"approach-retreat\",\"90\",\"735142\",\"0.0-90.0\",\"\",\"\",\"3-4\",\"4613\",\"38\",\"1\",\"Training\",\"Stims/Figures/44-J-10-3.bmp\",\"papata\",\"Down\",\"38\",\"6\",\"7\",\"4\",\"P\",\"J\",\"87\"
\"\",\"\",\"approach-retreat\",\"91\",\"741293\",\"0.0-91.0\",\"\",\"\",\"3-4\",\"4638\",\"39\",\"1\",\"Training\",\"Stims/Figures/85-J-0-2.bmp\",\"tapata\",\"Left\",\"39\",\"6\",\"8\",\"4\",\"P\",\"J\",\"88\"
\"\",\"\",\"approach-retreat\",\"92\",\"747196\",\"0.0-92.0\",\"\",\"\",\"3-4\",\"4389\",\"37\",\"1\",\"Training\",\"Stims/Figures/44-C-30-3.bmp\",\"ma:la:la\",\"Left\",\"37\",\"6\",\"9\",\"4\",\"S\",\"J\",\"89\"
\"\",\"\",\"approach-retreat\",\"93\",\"753319\",\"0.0-93.0\",\"\",\"\",\"3-4\",\"4610\",\"37\",\"1\",\"Training\",\"Stims/Figures/128-J-10-3.bmp\",\"papa:ka\",\"Right\",\"37\",\"6\",\"10\",\"4\",\"P\",\"J\",\"90\"
\"\",\"\",\"approach-retreat\",\"94\",\"759846\",\"0.0-94.0\",\"\",\"\",\"3-4\",\"5014\",\"38\",\"1\",\"Training\",\"Stims/Figures/102-J-10-4.bmp\",\"papa:ta\",\"Down\",\"38\",\"6\",\"11\",\"4\",\"P\",\"J\",\"91\"
\"\",\"\",\"approach-retreat\",\"95\",\"765546\",\"0.0-95.0\",\"\",\"\",\"3-4\",\"4187\",\"37\",\"1\",\"Training\",\"Stims/Figures/86-C-30-1.bmp\",\"malala\",\"Left\",\"37\",\"6\",\"12\",\"4\",\"S\",\"J\",\"92\"
\"\",\"\",\"approach-retreat\",\"96\",\"772077\",\"0.0-96.0\",\"\",\"\",\"3-4\",\"5020\",\"38\",\"1\",\"Training\",\"Stims/Figures/84-C-20-2.bmp\",\"na:la:na\",\"Up\",\"38\",\"6\",\"13\",\"4\",\"S\",\"J\",\"93\"
\"\",\"\",\"approach-retreat\",\"97\",\"779414\",\"0.0-97.0\",\"\",\"\",\"3-4\",\"5826\",\"37\",\"1\",\"Training\",\"Stims/Figures/84-J-0-2.bmp\",\"paka:ta\",\"Right\",\"37\",\"6\",\"14\",\"4\",\"P\",\"J\",\"94\"
\"\",\"\",\"approach-retreat\",\"98\",\"786565\",\"0.0-98.0\",\"\",\"\",\"3-4\",\"5639\",\"37\",\"0\",\"Training\",\"Stims/Figures/102-C-20-4.bmp\",\"nala:la\",\"Right\",\"39\",\"6\",\"15\",\"4\",\"S\",\"J\",\"95\"
\"\",\"\",\"approach-retreat\",\"99\",\"792497\",\"0.0-99.0\",\"\",\"\",\"3-4\",\"4420\",\"37\",\"1\",\"Training\",\"Stims/Figures/27-J-0-1.bmp\",\"pakata\",\"Right\",\"37\",\"6\",\"16\",\"4\",\"P\",\"J\",\"96\"
\"\",\"\",\"approach-retreat\",\"100\",\"798268\",\"0.0-100.0\",\"\",\"\",\"3-4\",\"4258\",\"39\",\"1\",\"Training\",\"Stims/Figures/85-C-20-2.bmp\",\"ma:mana\",\"Right\",\"39\",\"7\",\"1\",\"4\",\"S\",\"J\",\"97\"
\"\",\"\",\"approach-retreat\",\"101\",\"805687\",\"0.0-101.0\",\"\",\"\",\"3-4\",\"5907\",\"40\",\"1\",\"Training\",\"Stims/Figures/128-J-10-3.bmp\",\"papa:ka\",\"Up\",\"40\",\"7\",\"2\",\"4\",\"P\",\"J\",\"98\"
\"\",\"\",\"approach-retreat\",\"102\",\"813242\",\"0.0-102.0\",\"\",\"\",\"3-4\",\"6041\",\"38\",\"1\",\"Training\",\"Stims/Figures/84-J-0-2.bmp\",\"paka:ta\",\"Down\",\"38\",\"7\",\"3\",\"4\",\"P\",\"J\",\"99\"
\"\",\"\",\"approach-retreat\",\"103\",\"819624\",\"0.0-103.0\",\"\",\"\",\"3-4\",\"4871\",\"37\",\"1\",\"Training\",\"Stims/Figures/19-J-10-4.bmp\",\"pa:pa:ka\",\"Right\",\"37\",\"7\",\"4\",\"4\",\"P\",\"J\",\"100\"
\"\",\"\",\"approach-retreat\",\"104\",\"826051\",\"0.0-104.0\",\"\",\"\",\"3-4\",\"4915\",\"40\",\"1\",\"Training\",\"Stims/Figures/85-J-0-2.bmp\",\"tapata\",\"Up\",\"40\",\"7\",\"5\",\"4\",\"P\",\"J\",\"101\"
\"\",\"\",\"approach-retreat\",\"105\",\"832446\",\"0.0-105.0\",\"\",\"\",\"3-4\",\"4881\",\"39\",\"1\",\"Training\",\"Stims/Figures/44-J-10-3.bmp\",\"papata\",\"Left\",\"39\",\"7\",\"6\",\"4\",\"P\",\"J\",\"102\"
\"\",\"\",\"approach-retreat\",\"106\",\"838267\",\"0.0-106.0\",\"\",\"\",\"3-4\",\"4310\",\"37\",\"1\",\"Training\",\"Stims/Figures/84-C-20-2.bmp\",\"na:la:na\",\"Left\",\"37\",\"7\",\"7\",\"4\",\"S\",\"J\",\"103\"
\"\",\"\",\"approach-retreat\",\"107\",\"844582\",\"0.0-107.0\",\"\",\"\",\"3-4\",\"4803\",\"38\",\"1\",\"Training\",\"Stims/Figures/27-J-0-1.bmp\",\"pakata\",\"Down\",\"38\",\"7\",\"8\",\"4\",\"P\",\"J\",\"104\"
\"\",\"\",\"approach-retreat\",\"108\",\"851351\",\"0.0-108.0\",\"\",\"\",\"3-4\",\"5257\",\"40\",\"1\",\"Training\",\"Stims/Figures/102-C-20-4.bmp\",\"nala:la\",\"Down\",\"40\",\"7\",\"9\",\"4\",\"S\",\"J\",\"105\"
\"\",\"\",\"approach-retreat\",\"109\",\"857273\",\"0.0-109.0\",\"\",\"\",\"3-4\",\"4409\",\"37\",\"1\",\"Training\",\"Stims/Figures/44-C-30-3.bmp\",\"ma:la:la\",\"Left\",\"37\",\"7\",\"10\",\"4\",\"S\",\"J\",\"106\"
\"\",\"\",\"approach-retreat\",\"110\",\"865399\",\"0.0-110.0\",\"\",\"\",\"3-4\",\"6612\",\"40\",\"1\",\"Training\",\"Stims/Figures/102-J-10-4.bmp\",\"papa:ta\",\"Up\",\"40\",\"7\",\"11\",\"4\",\"P\",\"J\",\"107\"
\"\",\"\",\"approach-retreat\",\"111\",\"871551\",\"0.0-111.0\",\"\",\"\",\"3-4\",\"4638\",\"39\",\"1\",\"Training\",\"Stims/Figures/128-C-30-3.bmp\",\"mala:na\",\"Right\",\"39\",\"7\",\"12\",\"4\",\"S\",\"J\",\"108\"
\"\",\"\",\"approach-retreat\",\"112\",\"877696\",\"0.0-112.0\",\"\",\"\",\"3-4\",\"4630\",\"40\",\"1\",\"Training\",\"Stims/Figures/27-C-30-1.bmp\",\"ma:lana\",\"Down\",\"40\",\"7\",\"13\",\"4\",\"S\",\"J\",\"109\"
\"\",\"\",\"approach-retreat\",\"113\",\"884049\",\"0.0-113.0\",\"\",\"\",\"3-4\",\"4843\",\"38\",\"1\",\"Training\",\"Stims/Figures/86-C-30-1.bmp\",\"malala\",\"Up\",\"38\",\"7\",\"14\",\"4\",\"S\",\"J\",\"110\"
\"\",\"\",\"approach-retreat\",\"114\",\"890228\",\"0.0-114.0\",\"\",\"\",\"3-4\",\"4666\",\"37\",\"1\",\"Training\",\"Stims/Figures/19-C-20-4.bmp\",\"ma:la:na\",\"Left\",\"37\",\"7\",\"15\",\"4\",\"S\",\"J\",\"111\"
\"\",\"\",\"approach-retreat\",\"115\",\"897091\",\"0.0-115.0\",\"\",\"\",\"3-4\",\"5351\",\"37\",\"1\",\"Training\",\"Stims/Figures/86-J-0-1.bmp\",\"tapa:ta\",\"Right\",\"37\",\"7\",\"16\",\"4\",\"P\",\"J\",\"112\"
\"\",\"\",\"approach-retreat\",\"116\",\"904314\",\"0.0-116.0\",\"\",\"\",\"3-4\",\"5709\",\"40\",\"1\",\"Training\",\"Stims/Figures/85-C-20-2.bmp\",\"ma:mana\",\"Down\",\"40\",\"8\",\"1\",\"4\",\"S\",\"J\",\"113\"
\"\",\"\",\"approach-retreat\",\"117\",\"910355\",\"0.0-117.0\",\"\",\"\",\"3-4\",\"4530\",\"37\",\"1\",\"Training\",\"Stims/Figures/86-C-30-1.bmp\",\"malala\",\"Left\",\"37\",\"8\",\"2\",\"4\",\"S\",\"J\",\"114\"
\"\",\"\",\"approach-retreat\",\"118\",\"918451\",\"0.0-118.0\",\"\",\"\",\"3-4\",\"6583\",\"38\",\"1\",\"Training\",\"Stims/Figures/85-J-0-2.bmp\",\"tapata\",\"Down\",\"38\",\"8\",\"3\",\"4\",\"P\",\"J\",\"115\"
\"\",\"\",\"approach-retreat\",\"119\",\"925911\",\"0.0-119.0\",\"\",\"\",\"3-4\",\"5947\",\"38\",\"1\",\"Training\",\"Stims/Figures/84-J-0-2.bmp\",\"paka:ta\",\"Down\",\"38\",\"8\",\"4\",\"4\",\"P\",\"J\",\"116\"
\"\",\"\",\"approach-retreat\",\"120\",\"933564\",\"0.0-120.0\",\"\",\"\",\"3-4\",\"6139\",\"39\",\"1\",\"Training\",\"Stims/Figures/19-J-10-4.bmp\",\"pa:pa:ka\",\"Left\",\"39\",\"8\",\"5\",\"4\",\"P\",\"J\",\"117\"
\"\",\"\",\"approach-retreat\",\"121\",\"939848\",\"0.0-121.0\",\"\",\"\",\"3-4\",\"4771\",\"37\",\"1\",\"Training\",\"Stims/Figures/44-J-10-3.bmp\",\"papata\",\"Right\",\"37\",\"8\",\"6\",\"4\",\"P\",\"J\",\"118\"
\"\",\"\",\"approach-retreat\",\"122\",\"947334\",\"0.0-122.0\",\"\",\"\",\"3-4\",\"5972\",\"40\",\"1\",\"Training\",\"Stims/Figures/86-J-0-1.bmp\",\"tapa:ta\",\"Up\",\"40\",\"8\",\"7\",\"4\",\"P\",\"J\",\"119\"
\"\",\"\",\"approach-retreat\",\"123\",\"954207\",\"0.0-123.0\",\"\",\"\",\"3-4\",\"5362\",\"37\",\"1\",\"Training\",\"Stims/Figures/27-J-0-1.bmp\",\"pakata\",\"Right\",\"37\",\"8\",\"8\",\"4\",\"P\",\"J\",\"120\"
\"\",\"\",\"approach-retreat\",\"124\",\"962358\",\"0.0-124.0\",\"\",\"\",\"3-4\",\"6638\",\"38\",\"1\",\"Training\",\"Stims/Figures/27-C-30-1.bmp\",\"ma:lana\",\"Up\",\"38\",\"8\",\"9\",\"4\",\"S\",\"J\",\"121\"
\"\",\"\",\"approach-retreat\",\"125\",\"968659\",\"0.0-125.0\",\"\",\"\",\"3-4\",\"4789\",\"38\",\"1\",\"Training\",\"Stims/Figures/84-C-20-2.bmp\",\"na:la:na\",\"Up\",\"38\",\"8\",\"10\",\"4\",\"S\",\"J\",\"122\"
\"\",\"\",\"approach-retreat\",\"126\",\"974745\",\"0.0-126.0\",\"\",\"\",\"3-4\",\"4571\",\"37\",\"1\",\"Training\",\"Stims/Figures/128-C-30-3.bmp\",\"mala:na\",\"Left\",\"37\",\"8\",\"11\",\"4\",\"S\",\"J\",\"123\"
\"\",\"\",\"approach-retreat\",\"127\",\"981017\",\"0.0-127.0\",\"\",\"\",\"3-4\",\"4761\",\"39\",\"1\",\"Training\",\"Stims/Figures/44-C-30-3.bmp\",\"ma:la:la\",\"Right\",\"39\",\"8\",\"12\",\"4\",\"S\",\"J\",\"124\"
\"\",\"\",\"approach-retreat\",\"128\",\"986890\",\"0.0-128.0\",\"\",\"\",\"3-4\",\"4361\",\"38\",\"1\",\"Training\",\"Stims/Figures/19-C-20-4.bmp\",\"ma:la:na\",\"Up\",\"38\",\"8\",\"13\",\"4\",\"S\",\"J\",\"125\"
\"\",\"\",\"approach-retreat\",\"129\",\"992890\",\"0.0-129.0\",\"\",\"\",\"3-4\",\"4488\",\"37\",\"1\",\"Training\",\"Stims/Figures/102-C-20-4.bmp\",\"nala:la\",\"Left\",\"37\",\"8\",\"14\",\"4\",\"S\",\"J\",\"126\"
\"\",\"\",\"approach-retreat\",\"130\",\"999850\",\"0.0-130.0\",\"\",\"\",\"3-4\",\"5448\",\"37\",\"1\",\"Training\",\"Stims/Figures/102-J-10-4.bmp\",\"papa:ta\",\"Right\",\"37\",\"8\",\"15\",\"4\",\"P\",\"J\",\"127\"
\"\",\"\",\"approach-retreat\",\"131\",\"1006162\",\"0.0-131.0\",\"\",\"\",\"3-4\",\"4799\",\"38\",\"1\",\"Training\",\"Stims/Figures/128-J-10-3.bmp\",\"papa:ka\",\"Down\",\"38\",\"8\",\"16\",\"4\",\"P\",\"J\",\"128\"
\"\",\"\",\"approach-retreat\",\"132\",\"1012376\",\"0.0-132.0\",\"\",\"\",\"3-4\",\"4701\",\"37\",\"1\",\"Training\",\"Stims/Figures/128-C-30-3.bmp\",\"mala:na\",\"Left\",\"37\",\"9\",\"1\",\"4\",\"S\",\"J\",\"129\"
\"\",\"\",\"approach-retreat\",\"133\",\"1019165\",\"0.0-133.0\",\"\",\"\",\"3-4\",\"5275\",\"39\",\"1\",\"Training\",\"Stims/Figures/44-C-30-3.bmp\",\"ma:la:la\",\"Right\",\"39\",\"9\",\"2\",\"4\",\"S\",\"J\",\"130\"
\"\",\"\",\"approach-retreat\",\"134\",\"1025550\",\"0.0-134.0\",\"\",\"\",\"3-4\",\"4873\",\"38\",\"1\",\"Training\",\"Stims/Figures/44-J-10-3.bmp\",\"papata\",\"Down\",\"38\",\"9\",\"3\",\"4\",\"P\",\"J\",\"131\"
\"\",\"\",\"approach-retreat\",\"135\",\"1031481\",\"0.0-135.0\",\"\",\"\",\"3-4\",\"4416\",\"37\",\"1\",\"Training\",\"Stims/Figures/27-C-30-1.bmp\",\"ma:lana\",\"Left\",\"37\",\"9\",\"4\",\"4\",\"S\",\"J\",\"132\"
\"\",\"\",\"approach-retreat\",\"136\",\"1037729\",\"0.0-136.0\",\"\",\"\",\"3-4\",\"4734\",\"39\",\"1\",\"Training\",\"Stims/Figures/128-J-10-3.bmp\",\"papa:ka\",\"Left\",\"39\",\"9\",\"5\",\"4\",\"P\",\"J\",\"133\"
\"\",\"\",\"approach-retreat\",\"137\",\"1043808\",\"0.0-137.0\",\"\",\"\",\"3-4\",\"4568\",\"38\",\"1\",\"Training\",\"Stims/Figures/85-J-0-2.bmp\",\"tapata\",\"Down\",\"38\",\"9\",\"6\",\"4\",\"P\",\"J\",\"134\"
\"\",\"\",\"approach-retreat\",\"138\",\"1049753\",\"0.0-138.0\",\"\",\"\",\"3-4\",\"4433\",\"40\",\"1\",\"Training\",\"Stims/Figures/86-C-30-1.bmp\",\"malala\",\"Down\",\"40\",\"9\",\"7\",\"4\",\"S\",\"J\",\"135\"
\"\",\"\",\"approach-retreat\",\"139\",\"1057656\",\"0.0-139.0\",\"\",\"\",\"3-4\",\"6390\",\"40\",\"1\",\"Training\",\"Stims/Figures/27-J-0-1.bmp\",\"pakata\",\"Up\",\"40\",\"9\",\"8\",\"4\",\"P\",\"J\",\"136\"
\"\",\"\",\"approach-retreat\",\"140\",\"1065831\",\"0.0-140.0\",\"\",\"\",\"3-4\",\"6661\",\"39\",\"1\",\"Training\",\"Stims/Figures/102-C-20-4.bmp\",\"nala:la\",\"Right\",\"39\",\"9\",\"9\",\"4\",\"S\",\"J\",\"137\"
\"\",\"\",\"approach-retreat\",\"141\",\"1073289\",\"0.0-141.0\",\"\",\"\",\"3-4\",\"5945\",\"38\",\"1\",\"Training\",\"Stims/Figures/84-C-20-2.bmp\",\"na:la:na\",\"Up\",\"38\",\"9\",\"10\",\"4\",\"S\",\"J\",\"138\"
\"\",\"\",\"approach-retreat\",\"142\",\"1080641\",\"0.0-142.0\",\"\",\"\",\"3-4\",\"5839\",\"39\",\"1\",\"Training\",\"Stims/Figures/84-J-0-2.bmp\",\"paka:ta\",\"Left\",\"39\",\"9\",\"11\",\"4\",\"P\",\"J\",\"139\"
\"\",\"\",\"approach-retreat\",\"143\",\"1087398\",\"0.0-143.0\",\"\",\"\",\"3-4\",\"5245\",\"39\",\"1\",\"Training\",\"Stims/Figures/19-C-20-4.bmp\",\"ma:la:na\",\"Right\",\"39\",\"9\",\"12\",\"4\",\"S\",\"J\",\"140\"
\"\",\"\",\"approach-retreat\",\"144\",\"1093682\",\"0.0-144.0\",\"\",\"\",\"3-4\",\"4770\",\"37\",\"1\",\"Training\",\"Stims/Figures/102-J-10-4.bmp\",\"papa:ta\",\"Right\",\"37\",\"9\",\"13\",\"4\",\"P\",\"J\",\"141\"
\"\",\"\",\"approach-retreat\",\"145\",\"1100188\",\"0.0-145.0\",\"\",\"\",\"3-4\",\"4994\",\"40\",\"1\",\"Training\",\"Stims/Figures/85-C-20-2.bmp\",\"ma:mana\",\"Down\",\"40\",\"9\",\"14\",\"4\",\"S\",\"J\",\"142\"
\"\",\"\",\"approach-retreat\",\"146\",\"1107118\",\"0.0-146.0\",\"\",\"\",\"3-4\",\"5418\",\"40\",\"1\",\"Training\",\"Stims/Figures/19-J-10-4.bmp\",\"pa:pa:ka\",\"Up\",\"40\",\"9\",\"15\",\"4\",\"P\",\"J\",\"143\"
\"\",\"\",\"approach-retreat\",\"147\",\"1114800\",\"0.0-147.0\",\"\",\"\",\"3-4\",\"6169\",\"40\",\"1\",\"Training\",\"Stims/Figures/86-J-0-1.bmp\",\"tapa:ta\",\"Up\",\"40\",\"9\",\"16\",\"4\",\"P\",\"J\",\"144\"
\"160955\",\"\",\"instructions\",\"148\",\"1275756\",\"0.0-148.0\",\"[{\"\"page_index\"\":0,\"\"viewing_time\"\":160954}]\",\"\",\"\",\"\",\"\",\"\",\"\",\"\",\"\",\"\",\"\",\"\",\"\",\"\",\"\",\"\",\"\"
\"\",\"\",\"approach-retreat\",\"149\",\"1284512\",\"0.0-149.0\",\"\",\"\",\"3-4\",\"7250\",\"40\",\"1\",\"Testing\",\"Stims/Figures/27-C-30-1.bmp\",\"ma:lana\",\"Down\",\"40\",\"1\",\"1\",\"4\",\"S\",\"J\",\"1\"
\"\",\"\",\"approach-retreat\",\"150\",\"1293282\",\"0.0-150.0\",\"\",\"\",\"3-4\",\"7260\",\"37\",\"1\",\"Testing\",\"Stims/Figures/100-C-30-3.bmp\",\"nama:na\",\"Left\",\"37\",\"1\",\"2\",\"4\",\"S\",\"J\",\"2\"
\"\",\"\",\"approach-retreat\",\"151\",\"1299383\",\"0.0-151.0\",\"\",\"\",\"3-4\",\"4591\",\"38\",\"1\",\"Testing\",\"Stims/Figures/94-C-20-2.bmp\",\"mamana\",\"Up\",\"38\",\"1\",\"3\",\"4\",\"S\",\"J\",\"3\"
\"\",\"\",\"approach-retreat\",\"152\",\"1305609\",\"0.0-152.0\",\"\",\"\",\"3-4\",\"4715\",\"38\",\"1\",\"Testing\",\"Stims/Figures/86-C-30-1.bmp\",\"malala\",\"Up\",\"38\",\"1\",\"4\",\"4\",\"S\",\"J\",\"4\"
\"\",\"\",\"approach-retreat\",\"153\",\"1311469\",\"0.0-153.0\",\"\",\"\",\"3-4\",\"4350\",\"37\",\"0\",\"Testing\",\"Stims/Figures/57-J-0-1.bmp\",\"takaka\",\"Left\",\"39\",\"1\",\"5\",\"4\",\"P\",\"J\",\"5\"
\"\",\"\",\"approach-retreat\",\"154\",\"1317322\",\"0.0-154.0\",\"\",\"\",\"3-4\",\"4343\",\"38\",\"0\",\"Testing\",\"Stims/Figures/85-J-0-2.bmp\",\"tapata\",\"Up\",\"40\",\"1\",\"6\",\"4\",\"P\",\"J\",\"6\"
\"\",\"\",\"approach-retreat\",\"155\",\"1324411\",\"0.0-155.0\",\"\",\"\",\"3-4\",\"5579\",\"40\",\"0\",\"Testing\",\"Stims/Figures/100-J-10-3.bmp\",\"ta:ka:ka\",\"Down\",\"38\",\"1\",\"7\",\"4\",\"P\",\"J\",\"7\"
\"\",\"\",\"approach-retreat\",\"156\",\"1330159\",\"0.0-156.0\",\"\",\"\",\"3-4\",\"4237\",\"37\",\"1\",\"Testing\",\"Stims/Figures/128-C-30-3.bmp\",\"mala:na\",\"Left\",\"37\",\"1\",\"8\",\"4\",\"S\",\"J\",\"8\"
\"\",\"\",\"approach-retreat\",\"157\",\"1336506\",\"0.0-157.0\",\"\",\"\",\"3-4\",\"4837\",\"38\",\"0\",\"Testing\",\"Stims/Figures/94-J-0-2.bmp\",\"ta:ka:ta\",\"Up\",\"40\",\"1\",\"9\",\"4\",\"P\",\"J\",\"9\"
\"\",\"\",\"approach-retreat\",\"158\",\"1342580\",\"0.0-158.0\",\"\",\"\",\"3-4\",\"4565\",\"39\",\"0\",\"Testing\",\"Stims/Figures/44-J-10-3.bmp\",\"papata\",\"Right\",\"37\",\"1\",\"10\",\"4\",\"P\",\"J\",\"10\"
\"\",\"\",\"approach-retreat\",\"159\",\"1349074\",\"0.0-159.0\",\"\",\"\",\"3-4\",\"4984\",\"39\",\"0\",\"Testing\",\"Stims/Figures/84-J-0-2.bmp\",\"paka:ta\",\"Right\",\"37\",\"1\",\"11\",\"4\",\"P\",\"J\",\"11\"
\"\",\"\",\"approach-retreat\",\"160\",\"1354877\",\"0.0-160.0\",\"\",\"\",\"3-4\",\"4295\",\"37\",\"0\",\"Testing\",\"Stims/Figures/27-J-0-1.bmp\",\"pakata\",\"Left\",\"39\",\"1\",\"12\",\"4\",\"P\",\"J\",\"12\"
\"\",\"\",\"approach-retreat\",\"161\",\"1360569\",\"0.0-161.0\",\"\",\"\",\"3-4\",\"4185\",\"38\",\"0\",\"Testing\",\"Stims/Figures/102-J-10-4.bmp\",\"papa:ta\",\"Up\",\"40\",\"1\",\"13\",\"4\",\"P\",\"J\",\"13\"
\"\",\"\",\"approach-retreat\",\"162\",\"1366845\",\"0.0-162.0\",\"\",\"\",\"3-4\",\"4768\",\"40\",\"1\",\"Testing\",\"Stims/Figures/57-C-30-1.bmp\",\"malana\",\"Down\",\"40\",\"1\",\"14\",\"4\",\"S\",\"J\",\"14\"
\"\",\"\",\"approach-retreat\",\"163\",\"1372666\",\"0.0-163.0\",\"\",\"\",\"3-4\",\"4310\",\"40\",\"1\",\"Testing\",\"Stims/Figures/19-C-20-4.bmp\",\"ma:la:na\",\"Down\",\"40\",\"1\",\"15\",\"4\",\"S\",\"J\",\"15\"
\"\",\"\",\"approach-retreat\",\"164\",\"1378570\",\"0.0-164.0\",\"\",\"\",\"3-4\",\"4395\",\"39\",\"0\",\"Testing\",\"Stims/Figures/19-J-10-4.bmp\",\"pa:pa:ka\",\"Right\",\"37\",\"1\",\"16\",\"4\",\"P\",\"J\",\"16\"
\"\",\"\",\"approach-retreat\",\"165\",\"1384553\",\"0.0-165.0\",\"\",\"\",\"3-4\",\"4469\",\"39\",\"1\",\"Testing\",\"Stims/Figures/84-C-20-2.bmp\",\"na:la:na\",\"Right\",\"39\",\"1\",\"17\",\"4\",\"S\",\"J\",\"17\"
\"\",\"\",\"approach-retreat\",\"166\",\"1390331\",\"0.0-166.0\",\"\",\"\",\"3-4\",\"4269\",\"38\",\"1\",\"Testing\",\"Stims/Figures/102-C-20-4.bmp\",\"nala:la\",\"Up\",\"38\",\"1\",\"18\",\"4\",\"S\",\"J\",\"18\"
\"\",\"\",\"approach-retreat\",\"167\",\"1396026\",\"0.0-167.0\",\"\",\"\",\"3-4\",\"4176\",\"39\",\"0\",\"Testing\",\"Stims/Figures/87-J-10-4.bmp\",\"taka:ta\",\"Right\",\"37\",\"1\",\"19\",\"4\",\"P\",\"J\",\"19\"
\"\",\"\",\"approach-retreat\",\"168\",\"1401729\",\"0.0-168.0\",\"\",\"\",\"3-4\",\"4195\",\"39\",\"1\",\"Testing\",\"Stims/Figures/87-C-20-4.bmp\",\"nalana\",\"Right\",\"39\",\"1\",\"20\",\"4\",\"S\",\"J\",\"20\"
\"\",\"\",\"approach-retreat\",\"169\",\"1407690\",\"0.0-169.0\",\"\",\"\",\"3-4\",\"4451\",\"40\",\"1\",\"Testing\",\"Stims/Figures/44-C-30-3.bmp\",\"ma:la:la\",\"Down\",\"40\",\"1\",\"21\",\"4\",\"S\",\"J\",\"21\"
\"\",\"\",\"approach-retreat\",\"170\",\"1413606\",\"0.0-170.0\",\"\",\"\",\"3-4\",\"4407\",\"40\",\"1\",\"Testing\",\"Stims/Figures/85-C-20-2.bmp\",\"ma:mana\",\"Down\",\"40\",\"1\",\"22\",\"4\",\"S\",\"J\",\"22\"
\"\",\"\",\"approach-retreat\",\"171\",\"1419889\",\"0.0-171.0\",\"\",\"\",\"3-4\",\"4772\",\"37\",\"0\",\"Testing\",\"Stims/Figures/128-J-10-3.bmp\",\"papa:ka\",\"Left\",\"39\",\"1\",\"23\",\"4\",\"P\",\"J\",\"23\"
\"\",\"\",\"approach-retreat\",\"172\",\"1425932\",\"0.0-172.0\",\"\",\"\",\"3-4\",\"4534\",\"37\",\"0\",\"Testing\",\"Stims/Figures/86-J-0-1.bmp\",\"tapa:ta\",\"Left\",\"39\",\"1\",\"24\",\"4\",\"P\",\"J\",\"24\"
\"\",\"\",\"approach-retreat\",\"173\",\"1431626\",\"0.0-173.0\",\"\",\"\",\"3-4\",\"4184\",\"39\",\"0\",\"Testing\",\"Stims/Figures/100-J-10-3.bmp\",\"ta:ka:ka\",\"Right\",\"37\",\"2\",\"1\",\"4\",\"P\",\"J\",\"25\"
\"\",\"\",\"approach-retreat\",\"174\",\"1437408\",\"0.0-174.0\",\"\",\"\",\"3-4\",\"4272\",\"37\",\"1\",\"Testing\",\"Stims/Figures/27-C-30-1.bmp\",\"ma:lana\",\"Left\",\"37\",\"2\",\"2\",\"4\",\"S\",\"J\",\"26\"
\"\",\"\",\"approach-retreat\",\"175\",\"1443049\",\"0.0-175.0\",\"\",\"\",\"3-4\",\"4130\",\"38\",\"0\",\"Testing\",\"Stims/Figures/19-J-10-4.bmp\",\"pa:pa:ka\",\"Up\",\"40\",\"2\",\"3\",\"4\",\"P\",\"J\",\"27\"
\"\",\"\",\"approach-retreat\",\"176\",\"1448774\",\"0.0-176.0\",\"\",\"\",\"3-4\",\"4215\",\"38\",\"0\",\"Testing\",\"Stims/Figures/102-J-10-4.bmp\",\"papa:ta\",\"Up\",\"40\",\"2\",\"4\",\"4\",\"P\",\"J\",\"28\"
\"\",\"\",\"approach-retreat\",\"177\",\"1454322\",\"0.0-177.0\",\"\",\"\",\"3-4\",\"4038\",\"39\",\"0\",\"Testing\",\"Stims/Figures/27-J-0-1.bmp\",\"pakata\",\"Right\",\"37\",\"2\",\"5\",\"4\",\"P\",\"J\",\"29\"
\"\",\"\",\"approach-retreat\",\"178\",\"1459896\",\"0.0-178.0\",\"\",\"\",\"3-4\",\"4066\",\"39\",\"0\",\"Testing\",\"Stims/Figures/84-J-0-2.bmp\",\"paka:ta\",\"Right\",\"37\",\"2\",\"6\",\"4\",\"P\",\"J\",\"30\"
\"\",\"\",\"approach-retreat\",\"179\",\"1465688\",\"0.0-179.0\",\"\",\"\",\"3-4\",\"4282\",\"40\",\"0\",\"Testing\",\"Stims/Figures/57-J-0-1.bmp\",\"takaka\",\"Down\",\"38\",\"2\",\"7\",\"4\",\"P\",\"J\",\"31\"
\"\",\"\",\"approach-retreat\",\"180\",\"1471560\",\"0.0-180.0\",\"\",\"\",\"3-4\",\"4363\",\"37\",\"0\",\"Testing\",\"Stims/Figures/94-J-0-2.bmp\",\"ta:ka:ta\",\"Left\",\"39\",\"2\",\"8\",\"4\",\"P\",\"J\",\"32\"
\"\",\"\",\"approach-retreat\",\"181\",\"1477282\",\"0.0-181.0\",\"\",\"\",\"3-4\",\"4211\",\"38\",\"1\",\"Testing\",\"Stims/Figures/87-C-20-4.bmp\",\"nalana\",\"Up\",\"38\",\"2\",\"9\",\"4\",\"S\",\"J\",\"33\"
\"\",\"\",\"approach-retreat\",\"182\",\"1482872\",\"0.0-182.0\",\"\",\"\",\"3-4\",\"4081\",\"39\",\"1\",\"Testing\",\"Stims/Figures/44-C-30-3.bmp\",\"ma:la:la\",\"Right\",\"39\",\"2\",\"10\",\"4\",\"S\",\"J\",\"34\"
\"\",\"\",\"approach-retreat\",\"183\",\"1488666\",\"0.0-183.0\",\"\",\"\",\"3-4\",\"4282\",\"37\",\"0\",\"Testing\",\"Stims/Figures/86-J-0-1.bmp\",\"tapa:ta\",\"Left\",\"39\",\"2\",\"11\",\"4\",\"P\",\"J\",\"35\"
\"\",\"\",\"approach-retreat\",\"184\",\"1494770\",\"0.0-184.0\",\"\",\"\",\"3-4\",\"4595\",\"38\",\"0\",\"Testing\",\"Stims/Figures/128-J-10-3.bmp\",\"papa:ka\",\"Up\",\"40\",\"2\",\"12\",\"4\",\"P\",\"J\",\"36\"
\"\",\"\",\"approach-retreat\",\"185\",\"1500812\",\"0.0-185.0\",\"\",\"\",\"3-4\",\"4532\",\"37\",\"1\",\"Testing\",\"Stims/Figures/85-C-20-2.bmp\",\"ma:mana\",\"Left\",\"37\",\"2\",\"13\",\"4\",\"S\",\"J\",\"37\"
\"\",\"\",\"approach-retreat\",\"186\",\"1506696\",\"0.0-186.0\",\"\",\"\",\"3-4\",\"4374\",\"37\",\"0\",\"Testing\",\"Stims/Figures/87-J-10-4.bmp\",\"taka:ta\",\"Left\",\"39\",\"2\",\"14\",\"4\",\"P\",\"J\",\"38\"
\"\",\"\",\"approach-retreat\",\"187\",\"1513090\",\"0.0-187.0\",\"\",\"\",\"3-4\",\"4885\",\"40\",\"0\",\"Testing\",\"Stims/Figures/44-J-10-3.bmp\",\"papata\",\"Down\",\"38\",\"2\",\"15\",\"4\",\"P\",\"J\",\"39\"
\"\",\"\",\"approach-retreat\",\"188\",\"1519406\",\"0.0-188.0\",\"\",\"\",\"3-4\",\"4805\",\"40\",\"1\",\"Testing\",\"Stims/Figures/57-C-30-1.bmp\",\"malana\",\"Down\",\"40\",\"2\",\"16\",\"4\",\"S\",\"J\",\"40\"
\"\",\"\",\"approach-retreat\",\"189\",\"1525075\",\"0.0-189.0\",\"\",\"\",\"3-4\",\"4159\",\"40\",\"1\",\"Testing\",\"Stims/Figures/128-C-30-3.bmp\",\"mala:na\",\"Down\",\"40\",\"2\",\"17\",\"4\",\"S\",\"J\",\"41\"
\"\",\"\",\"approach-retreat\",\"190\",\"1531340\",\"0.0-190.0\",\"\",\"\",\"3-4\",\"4754\",\"38\",\"1\",\"Testing\",\"Stims/Figures/100-C-30-3.bmp\",\"nama:na\",\"Up\",\"38\",\"2\",\"18\",\"4\",\"S\",\"J\",\"42\"
\"\",\"\",\"approach-retreat\",\"191\",\"1537123\",\"0.0-191.0\",\"\",\"\",\"3-4\",\"4273\",\"39\",\"1\",\"Testing\",\"Stims/Figures/94-C-20-2.bmp\",\"mamana\",\"Right\",\"39\",\"2\",\"19\",\"4\",\"S\",\"J\",\"43\"
\"\",\"\",\"approach-retreat\",\"192\",\"1542885\",\"0.0-192.0\",\"\",\"\",\"3-4\",\"4251\",\"39\",\"0\",\"Testing\",\"Stims/Figures/85-J-0-2.bmp\",\"tapata\",\"Right\",\"37\",\"2\",\"20\",\"4\",\"P\",\"J\",\"44\"
\"\",\"\",\"approach-retreat\",\"193\",\"1549567\",\"0.0-193.0\",\"\",\"\",\"3-4\",\"5173\",\"38\",\"1\",\"Testing\",\"Stims/Figures/86-C-30-1.bmp\",\"malala\",\"Up\",\"38\",\"2\",\"21\",\"4\",\"S\",\"J\",\"45\"
\"\",\"\",\"approach-retreat\",\"194\",\"1555472\",\"0.0-194.0\",\"\",\"\",\"3-4\",\"4396\",\"40\",\"1\",\"Testing\",\"Stims/Figures/19-C-20-4.bmp\",\"ma:la:na\",\"Down\",\"40\",\"2\",\"22\",\"4\",\"S\",\"J\",\"46\"
\"\",\"\",\"approach-retreat\",\"195\",\"1561927\",\"0.0-195.0\",\"\",\"\",\"3-4\",\"4945\",\"37\",\"1\",\"Testing\",\"Stims/Figures/102-C-20-4.bmp\",\"nala:la\",\"Left\",\"37\",\"2\",\"23\",\"4\",\"S\",\"J\",\"47\"
\"\",\"\",\"approach-retreat\",\"196\",\"1568452\",\"0.0-196.0\",\"\",\"\",\"3-4\",\"5014\",\"40\",\"1\",\"Testing\",\"Stims/Figures/84-C-20-2.bmp\",\"na:la:na\",\"Down\",\"40\",\"2\",\"24\",\"4\",\"S\",\"J\",\"48\"
\"\",\"\",\"approach-retreat\",\"197\",\"1574284\",\"0.0-197.0\",\"\",\"\",\"3-4\",\"4323\",\"38\",\"0\",\"Testing\",\"Stims/Figures/44-J-10-3.bmp\",\"papata\",\"Up\",\"40\",\"3\",\"1\",\"4\",\"P\",\"J\",\"49\"
\"\",\"\",\"approach-retreat\",\"198\",\"1581022\",\"0.0-198.0\",\"\",\"\",\"3-4\",\"5229\",\"40\",\"1\",\"Testing\",\"Stims/Figures/94-C-20-2.bmp\",\"mamana\",\"Down\",\"40\",\"3\",\"2\",\"4\",\"S\",\"J\",\"50\"
\"\",\"\",\"approach-retreat\",\"199\",\"1587264\",\"0.0-199.0\",\"\",\"\",\"3-4\",\"4733\",\"37\",\"0\",\"Testing\",\"Stims/Figures/85-J-0-2.bmp\",\"tapata\",\"Left\",\"39\",\"3\",\"3\",\"4\",\"P\",\"J\",\"51\"
\"\",\"\",\"approach-retreat\",\"200\",\"1593783\",\"0.0-200.0\",\"\",\"\",\"3-4\",\"5006\",\"40\",\"1\",\"Testing\",\"Stims/Figures/128-C-30-3.bmp\",\"mala:na\",\"Down\",\"40\",\"3\",\"4\",\"4\",\"S\",\"J\",\"52\"
\"\",\"\",\"approach-retreat\",\"201\",\"1599863\",\"0.0-201.0\",\"\",\"\",\"3-4\",\"4572\",\"38\",\"0\",\"Testing\",\"Stims/Figures/84-J-0-2.bmp\",\"paka:ta\",\"Up\",\"40\",\"3\",\"5\",\"4\",\"P\",\"J\",\"53\"
\"\",\"\",\"approach-retreat\",\"202\",\"1605708\",\"0.0-202.0\",\"\",\"\",\"3-4\",\"4333\",\"38\",\"1\",\"Testing\",\"Stims/Figures/86-C-30-1.bmp\",\"malala\",\"Up\",\"38\",\"3\",\"6\",\"4\",\"S\",\"J\",\"54\"
\"\",\"\",\"approach-retreat\",\"203\",\"1612991\",\"0.0-203.0\",\"\",\"\",\"3-4\",\"5773\",\"40\",\"0\",\"Testing\",\"Stims/Figures/19-J-10-4.bmp\",\"pa:pa:ka\",\"Down\",\"38\",\"3\",\"7\",\"4\",\"P\",\"J\",\"55\"
\"\",\"\",\"approach-retreat\",\"204\",\"1618622\",\"0.0-204.0\",\"\",\"\",\"3-4\",\"4119\",\"38\",\"1\",\"Testing\",\"Stims/Figures/44-C-30-3.bmp\",\"ma:la:la\",\"Up\",\"38\",\"3\",\"8\",\"4\",\"S\",\"J\",\"56\"
\"\",\"\",\"approach-retreat\",\"205\",\"1625369\",\"0.0-205.0\",\"\",\"\",\"3-4\",\"5235\",\"39\",\"0\",\"Testing\",\"Stims/Figures/94-J-0-2.bmp\",\"ta:ka:ta\",\"Right\",\"37\",\"3\",\"9\",\"4\",\"P\",\"J\",\"57\"
\"\",\"\",\"approach-retreat\",\"206\",\"1631715\",\"0.0-206.0\",\"\",\"\",\"3-4\",\"4834\",\"37\",\"1\",\"Testing\",\"Stims/Figures/27-C-30-1.bmp\",\"ma:lana\",\"Left\",\"37\",\"3\",\"10\",\"4\",\"S\",\"J\",\"58\"
\"\",\"\",\"approach-retreat\",\"207\",\"1638131\",\"0.0-207.0\",\"\",\"\",\"3-4\",\"4908\",\"38\",\"1\",\"Testing\",\"Stims/Figures/102-C-20-4.bmp\",\"nala:la\",\"Up\",\"38\",\"3\",\"11\",\"4\",\"S\",\"J\",\"59\"
\"\",\"\",\"approach-retreat\",\"208\",\"1644347\",\"0.0-208.0\",\"\",\"\",\"3-4\",\"4707\",\"40\",\"0\",\"Testing\",\"Stims/Figures/87-J-10-4.bmp\",\"taka:ta\",\"Down\",\"38\",\"3\",\"12\",\"4\",\"P\",\"J\",\"60\"
\"\",\"\",\"approach-retreat\",\"209\",\"1650369\",\"0.0-209.0\",\"\",\"\",\"3-4\",\"4511\",\"37\",\"1\",\"Testing\",\"Stims/Figures/19-C-20-4.bmp\",\"ma:la:na\",\"Left\",\"37\",\"3\",\"13\",\"4\",\"S\",\"J\",\"61\"
\"\",\"\",\"approach-retreat\",\"210\",\"1656192\",\"0.0-210.0\",\"\",\"\",\"3-4\",\"4313\",\"39\",\"0\",\"Testing\",\"Stims/Figures/102-J-10-4.bmp\",\"papa:ta\",\"Right\",\"37\",\"3\",\"14\",\"4\",\"P\",\"J\",\"62\"
\"\",\"\",\"approach-retreat\",\"211\",\"1663493\",\"0.0-211.0\",\"\",\"\",\"3-4\",\"5791\",\"38\",\"0\",\"Testing\",\"Stims/Figures/86-J-0-1.bmp\",\"tapa:ta\",\"Up\",\"40\",\"3\",\"15\",\"4\",\"P\",\"J\",\"63\"
\"\",\"\",\"approach-retreat\",\"212\",\"1669799\",\"0.0-212.0\",\"\",\"\",\"3-4\",\"4797\",\"39\",\"1\",\"Testing\",\"Stims/Figures/85-C-20-2.bmp\",\"ma:mana\",\"Right\",\"39\",\"3\",\"16\",\"4\",\"S\",\"J\",\"64\"
\"\",\"\",\"approach-retreat\",\"213\",\"1677151\",\"0.0-213.0\",\"\",\"\",\"3-4\",\"5841\",\"37\",\"0\",\"Testing\",\"Stims/Figures/57-J-0-1.bmp\",\"takaka\",\"Left\",\"39\",\"3\",\"17\",\"4\",\"P\",\"J\",\"65\"
\"\",\"\",\"approach-retreat\",\"214\",\"1683032\",\"0.0-214.0\",\"\",\"\",\"3-4\",\"4372\",\"40\",\"1\",\"Testing\",\"Stims/Figures/84-C-20-2.bmp\",\"na:la:na\",\"Down\",\"40\",\"3\",\"18\",\"4\",\"S\",\"J\",\"66\"
\"\",\"\",\"approach-retreat\",\"215\",\"1689810\",\"0.0-215.0\",\"\",\"\",\"3-4\",\"5268\",\"39\",\"0\",\"Testing\",\"Stims/Figures/27-J-0-1.bmp\",\"pakata\",\"Right\",\"37\",\"3\",\"19\",\"4\",\"P\",\"J\",\"67\"
\"\",\"\",\"approach-retreat\",\"216\",\"1696409\",\"0.0-216.0\",\"\",\"\",\"3-4\",\"5090\",\"40\",\"1\",\"Testing\",\"Stims/Figures/87-C-20-4.bmp\",\"nalana\",\"Down\",\"40\",\"3\",\"20\",\"4\",\"S\",\"J\",\"68\"
\"\",\"\",\"approach-retreat\",\"217\",\"1703398\",\"0.0-217.0\",\"\",\"\",\"3-4\",\"5479\",\"37\",\"1\",\"Testing\",\"Stims/Figures/57-C-30-1.bmp\",\"malana\",\"Left\",\"37\",\"3\",\"21\",\"4\",\"S\",\"J\",\"69\"
\"\",\"\",\"approach-retreat\",\"218\",\"1710447\",\"0.0-218.0\",\"\",\"\",\"3-4\",\"5538\",\"39\",\"0\",\"Testing\",\"Stims/Figures/128-J-10-3.bmp\",\"papa:ka\",\"Right\",\"37\",\"3\",\"22\",\"4\",\"P\",\"J\",\"70\"
\"\",\"\",\"approach-retreat\",\"219\",\"1718663\",\"0.0-219.0\",\"\",\"\",\"3-4\",\"6706\",\"39\",\"0\",\"Testing\",\"Stims/Figures/100-J-10-3.bmp\",\"ta:ka:ka\",\"Right\",\"37\",\"3\",\"23\",\"4\",\"P\",\"J\",\"71\"
\"\",\"\",\"approach-retreat\",\"220\",\"1726154\",\"0.0-220.0\",\"\",\"\",\"3-4\",\"5984\",\"37\",\"1\",\"Testing\",\"Stims/Figures/100-C-30-3.bmp\",\"nama:na\",\"Left\",\"37\",\"3\",\"24\",\"4\",\"S\",\"J\",\"72\"
\"\",\"\",\"approach-retreat\",\"221\",\"1732552\",\"0.0-221.0\",\"\",\"\",\"3-4\",\"4887\",\"39\",\"1\",\"Testing\",\"Stims/Figures/19-C-20-4.bmp\",\"ma:la:na\",\"Right\",\"39\",\"4\",\"1\",\"4\",\"S\",\"J\",\"73\"
\"\",\"\",\"approach-retreat\",\"222\",\"1738211\",\"0.0-222.0\",\"\",\"\",\"3-4\",\"4148\",\"40\",\"0\",\"Testing\",\"Stims/Figures/100-J-10-3.bmp\",\"ta:ka:ka\",\"Down\",\"38\",\"4\",\"2\",\"4\",\"P\",\"J\",\"74\"
\"\",\"\",\"approach-retreat\",\"223\",\"1745345\",\"0.0-223.0\",\"\",\"\",\"3-4\",\"5624\",\"38\",\"1\",\"Testing\",\"Stims/Figures/84-C-20-2.bmp\",\"na:la:na\",\"Up\",\"38\",\"4\",\"3\",\"4\",\"S\",\"J\",\"75\"
\"\",\"\",\"approach-retreat\",\"224\",\"1751598\",\"0.0-224.0\",\"\",\"\",\"3-4\",\"4744\",\"37\",\"1\",\"Testing\",\"Stims/Figures/86-C-30-1.bmp\",\"malala\",\"Left\",\"37\",\"4\",\"4\",\"4\",\"S\",\"J\",\"76\"
\"\",\"\",\"approach-retreat\",\"225\",\"1757821\",\"0.0-225.0\",\"\",\"\",\"3-4\",\"4710\",\"39\",\"1\",\"Testing\",\"Stims/Figures/57-C-30-1.bmp\",\"malana\",\"Right\",\"39\",\"4\",\"5\",\"4\",\"S\",\"J\",\"77\"
\"\",\"\",\"approach-retreat\",\"226\",\"1764329\",\"0.0-226.0\",\"\",\"\",\"3-4\",\"4999\",\"40\",\"1\",\"Testing\",\"Stims/Figures/94-C-20-2.bmp\",\"mamana\",\"Down\",\"40\",\"4\",\"6\",\"4\",\"S\",\"J\",\"78\"
\"\",\"\",\"approach-retreat\",\"227\",\"1771010\",\"0.0-227.0\",\"\",\"\",\"3-4\",\"5172\",\"37\",\"0\",\"Testing\",\"Stims/Figures/57-J-0-1.bmp\",\"takaka\",\"Left\",\"39\",\"4\",\"7\",\"4\",\"P\",\"J\",\"79\"
\"\",\"\",\"approach-retreat\",\"228\",\"1776613\",\"0.0-228.0\",\"\",\"\",\"3-4\",\"4093\",\"38\",\"1\",\"Testing\",\"Stims/Figures/128-C-30-3.bmp\",\"mala:na\",\"Up\",\"38\",\"4\",\"8\",\"4\",\"S\",\"J\",\"80\"
\"\",\"\",\"approach-retreat\",\"229\",\"1783138\",\"0.0-229.0\",\"\",\"\",\"3-4\",\"5015\",\"38\",\"0\",\"Testing\",\"Stims/Figures/44-J-10-3.bmp\",\"papata\",\"Up\",\"40\",\"4\",\"9\",\"4\",\"P\",\"J\",\"81\"
\"\",\"\",\"approach-retreat\",\"230\",\"1788689\",\"0.0-230.0\",\"\",\"\",\"3-4\",\"4042\",\"39\",\"0\",\"Testing\",\"Stims/Figures/84-J-0-2.bmp\",\"paka:ta\",\"Right\",\"37\",\"4\",\"10\",\"4\",\"P\",\"J\",\"82\"
\"\",\"\",\"approach-retreat\",\"231\",\"1796248\",\"0.0-231.0\",\"\",\"\",\"3-4\",\"6049\",\"38\",\"0\",\"Testing\",\"Stims/Figures/19-J-10-4.bmp\",\"pa:pa:ka\",\"Up\",\"40\",\"4\",\"11\",\"4\",\"P\",\"J\",\"83\"
\"\",\"\",\"approach-retreat\",\"232\",\"1802826\",\"0.0-232.0\",\"\",\"\",\"3-4\",\"5070\",\"38\",\"1\",\"Testing\",\"Stims/Figures/27-C-30-1.bmp\",\"ma:lana\",\"Up\",\"38\",\"4\",\"12\",\"4\",\"S\",\"J\",\"84\"
\"\",\"\",\"approach-retreat\",\"233\",\"1810548\",\"0.0-233.0\",\"\",\"\",\"3-4\",\"6209\",\"40\",\"0\",\"Testing\",\"Stims/Figures/102-J-10-4.bmp\",\"papa:ta\",\"Down\",\"38\",\"4\",\"13\",\"4\",\"P\",\"J\",\"85\"
\"\",\"\",\"approach-retreat\",\"234\",\"1816852\",\"0.0-234.0\",\"\",\"\",\"3-4\",\"4795\",\"40\",\"1\",\"Testing\",\"Stims/Figures/44-C-30-3.bmp\",\"ma:la:la\",\"Down\",\"40\",\"4\",\"14\",\"4\",\"S\",\"J\",\"86\"
\"\",\"\",\"approach-retreat\",\"235\",\"1822876\",\"0.0-235.0\",\"\",\"\",\"3-4\",\"4513\",\"37\",\"0\",\"Testing\",\"Stims/Figures/86-J-0-1.bmp\",\"tapa:ta\",\"Left\",\"39\",\"4\",\"15\",\"4\",\"P\",\"J\",\"87\"
\"\",\"\",\"approach-retreat\",\"236\",\"1829220\",\"0.0-236.0\",\"\",\"\",\"3-4\",\"4834\",\"39\",\"1\",\"Testing\",\"Stims/Figures/100-C-30-3.bmp\",\"nama:na\",\"Right\",\"39\",\"4\",\"16\",\"4\",\"S\",\"J\",\"88\"
\"\",\"\",\"approach-retreat\",\"237\",\"1835224\",\"0.0-237.0\",\"\",\"\",\"3-4\",\"4495\",\"40\",\"1\",\"Testing\",\"Stims/Figures/102-C-20-4.bmp\",\"nala:la\",\"Down\",\"40\",\"4\",\"17\",\"4\",\"S\",\"J\",\"89\"
\"\",\"\",\"approach-retreat\",\"238\",\"1840950\",\"0.0-238.0\",\"\",\"\",\"3-4\",\"4214\",\"37\",\"1\",\"Testing\",\"Stims/Figures/87-C-20-4.bmp\",\"nalana\",\"Left\",\"37\",\"4\",\"18\",\"4\",\"S\",\"J\",\"90\"
\"\",\"\",\"approach-retreat\",\"239\",\"1846870\",\"0.0-239.0\",\"\",\"\",\"3-4\",\"4411\",\"40\",\"0\",\"Testing\",\"Stims/Figures/85-J-0-2.bmp\",\"tapata\",\"Down\",\"38\",\"4\",\"19\",\"4\",\"P\",\"J\",\"91\"
\"\",\"\",\"approach-retreat\",\"240\",\"1853096\",\"0.0-240.0\",\"\",\"\",\"3-4\",\"4716\",\"39\",\"0\",\"Testing\",\"Stims/Figures/27-J-0-1.bmp\",\"pakata\",\"Right\",\"37\",\"4\",\"20\",\"4\",\"P\",\"J\",\"92\"
\"\",\"\",\"approach-retreat\",\"241\",\"1859009\",\"0.0-241.0\",\"\",\"\",\"3-4\",\"4402\",\"37\",\"0\",\"Testing\",\"Stims/Figures/94-J-0-2.bmp\",\"ta:ka:ta\",\"Left\",\"39\",\"4\",\"21\",\"4\",\"P\",\"J\",\"93\"
\"\",\"\",\"approach-retreat\",\"242\",\"1865393\",\"0.0-242.0\",\"\",\"\",\"3-4\",\"4874\",\"38\",\"0\",\"Testing\",\"Stims/Figures/87-J-10-4.bmp\",\"taka:ta\",\"Up\",\"40\",\"4\",\"22\",\"4\",\"P\",\"J\",\"94\"
\"\",\"\",\"approach-retreat\",\"243\",\"1871164\",\"0.0-243.0\",\"\",\"\",\"3-4\",\"4262\",\"37\",\"1\",\"Testing\",\"Stims/Figures/85-C-20-2.bmp\",\"ma:mana\",\"Left\",\"37\",\"4\",\"23\",\"4\",\"S\",\"J\",\"95\"
\"\",\"\",\"approach-retreat\",\"244\",\"1878264\",\"0.0-244.0\",\"\",\"\",\"3-4\",\"5589\",\"39\",\"0\",\"Testing\",\"Stims/Figures/128-J-10-3.bmp\",\"papa:ka\",\"Right\",\"37\",\"4\",\"24\",\"4\",\"P\",\"J\",\"96\"
\"46294\",\"\",\"survey-text\",\"245\",\"1924568\",\"0.0-245.0\",\"\",\"{\"\"Q0\"\":\"\"1267/17\"\"}\",\"\",\"\",\"\",\"\",\"\",\"\",\"\",\"\",\"\",\"\",\"\",\"\",\"\",\"\",\"\"
