\"rt\",\"key_press\",\"trial_type\",\"trial_index\",\"time_elapsed\",\"internal_node_id\",\"view_history\",\"responses\",\"Id\",\"Rt\",\"ResKeyCode\",\"ResCorr\",\"TrialType2\",\"Image\",\"Label\",\"Location\",\"CorrectResponse\",\"Block\",\"BlockTrial\",\"Condition\",\"LabelType\",\"Subcondition\",\"trialNum\"
\"21764\",\"32\",\"text\",\"0\",\"21769\",\"0.0-0.0-0.0\",\"\",\"\",\"\",\"\",\"\",\"\",\"\",\"\",\"\",\"\",\"\",\"\",\"\",\"\",\"\",\"\",\"\"
\"51556\",\"\",\"instructions\",\"1\",\"73327\",\"0.0-1.0\",\"[{\"\"page_index\"\":0,\"\"viewing_time\"\":51554}]\",\"\",\"\",\"\",\"\",\"\",\"\",\"\",\"\",\"\",\"\",\"\",\"\",\"\",\"\",\"\",\"\"
\"22350\",\"\",\"survey-multi-choice\",\"2\",\"95724\",\"0.0-2.0\",\"\",\"{\"\"Q0\"\":\"\"Da\"\",\"\"Q1\"\":\"\"Da\"\",\"\"Q2\"\":\"\"Da\"\",\"\"Q3\"\":\"\"Da\"\",\"\"Q4\"\":\"\"Da\"\",\"\"Q5\"\":\"\"Da\"\"}\",\"\",\"\",\"\",\"\",\"\",\"\",\"\",\"\",\"\",\"\",\"\",\"\",\"\",\"\",\"\"
\"\",\"\",\"bio\",\"3\",\"104239\",\"0.0-3.0\",\"\",\"{\"\"age\"\":\"\"23\"\",\"\"gender\"\":\"\"f\"\",\"\"specify\"\":\"\"\"\"}\",\"\",\"\",\"\",\"\",\"\",\"\",\"\",\"\",\"\",\"\",\"\",\"\",\"\",\"\",\"\"
\"\",\"\",\"approach-retreat\",\"4\",\"116789\",\"0.0-4.0\",\"\",\"\",\"1-2\",\"11041\",\"39\",\"0\",\"Training\",\"Stims/Figures/19-C-20-4.bmp\",\"ta:ka:ka\",\"Left\",\"37\",\"1\",\"1\",\"5\",\"P\",\"J\",\"1\"
\"\",\"\",\"approach-retreat\",\"5\",\"123475\",\"0.0-5.0\",\"\",\"\",\"1-2\",\"5179\",\"40\",\"1\",\"Training\",\"Stims/Figures/71-J-0-1.bmp\",\"nalala\",\"Up\",\"40\",\"1\",\"2\",\"5\",\"S\",\"J\",\"2\"
\"\",\"\",\"approach-retreat\",\"6\",\"134080\",\"0.0-6.0\",\"\",\"\",\"1-2\",\"9098\",\"37\",\"0\",\"Training\",\"Stims/Figures/84-J-0-2.bmp\",\"na:lana\",\"Left\",\"39\",\"1\",\"3\",\"5\",\"S\",\"J\",\"3\"
\"\",\"\",\"approach-retreat\",\"7\",\"141812\",\"0.0-7.0\",\"\",\"\",\"1-2\",\"6225\",\"40\",\"0\",\"Training\",\"Stims/Figures/86-C-30-1.bmp\",\"pakata\",\"Up\",\"38\",\"1\",\"4\",\"5\",\"P\",\"J\",\"4\"
\"\",\"\",\"approach-retreat\",\"8\",\"149013\",\"0.0-8.0\",\"\",\"\",\"1-2\",\"5696\",\"39\",\"1\",\"Training\",\"Stims/Figures/84-C-20-2.bmp\",\"tapaka\",\"Right\",\"39\",\"1\",\"5\",\"5\",\"P\",\"J\",\"5\"
\"\",\"\",\"approach-retreat\",\"9\",\"156748\",\"0.0-9.0\",\"\",\"\",\"1-2\",\"6228\",\"39\",\"1\",\"Training\",\"Stims/Figures/7-J-10-4.bmp\",\"na:mala\",\"Left\",\"39\",\"1\",\"6\",\"5\",\"S\",\"J\",\"6\"
\"\",\"\",\"approach-retreat\",\"10\",\"164879\",\"0.0-10.0\",\"\",\"\",\"1-2\",\"6627\",\"38\",\"0\",\"Training\",\"Stims/Figures/139-J-0-2.bmp\",\"namala\",\"Up\",\"40\",\"1\",\"7\",\"5\",\"S\",\"J\",\"7\"
\"\",\"\",\"approach-retreat\",\"11\",\"175217\",\"0.0-11.0\",\"\",\"\",\"1-2\",\"8832\",\"39\",\"1\",\"Training\",\"Stims/Figures/139-C-20-2.bmp\",\"ta:pa:ta\",\"Right\",\"39\",\"1\",\"8\",\"5\",\"P\",\"J\",\"8\"
\"\",\"\",\"approach-retreat\",\"12\",\"181941\",\"0.0-12.0\",\"\",\"\",\"1-2\",\"5218\",\"39\",\"0\",\"Training\",\"Stims/Figures/7-C-20-4.bmp\",\"tapata\",\"Left\",\"37\",\"1\",\"9\",\"5\",\"P\",\"J\",\"9\"
\"\",\"\",\"approach-retreat\",\"13\",\"189047\",\"0.0-13.0\",\"\",\"\",\"1-2\",\"5601\",\"38\",\"0\",\"Training\",\"Stims/Figures/71-C-30-1.bmp\",\"ta:pata\",\"Down\",\"40\",\"1\",\"10\",\"5\",\"P\",\"J\",\"10\"
\"\",\"\",\"approach-retreat\",\"14\",\"195425\",\"0.0-14.0\",\"\",\"\",\"1-2\",\"4873\",\"40\",\"0\",\"Training\",\"Stims/Figures/86-J-0-1.bmp\",\"ma:lala\",\"Down\",\"38\",\"1\",\"11\",\"5\",\"S\",\"J\",\"11\"
\"\",\"\",\"approach-retreat\",\"15\",\"201424\",\"0.0-15.0\",\"\",\"\",\"1-2\",\"4492\",\"38\",\"0\",\"Training\",\"Stims/Figures/111-C-30-3.bmp\",\"pa:ka:ta\",\"Down\",\"40\",\"1\",\"12\",\"5\",\"P\",\"J\",\"12\"
\"\",\"\",\"approach-retreat\",\"16\",\"207186\",\"0.0-16.0\",\"\",\"\",\"1-2\",\"4255\",\"40\",\"0\",\"Training\",\"Stims/Figures/19-J-10-4.bmp\",\"malana\",\"Down\",\"38\",\"1\",\"13\",\"5\",\"S\",\"J\",\"13\"
\"\",\"\",\"approach-retreat\",\"17\",\"213266\",\"0.0-17.0\",\"\",\"\",\"1-2\",\"4576\",\"37\",\"1\",\"Training\",\"Stims/Figures/111-J-10-3.bmp\",\"nalana\",\"Right\",\"37\",\"1\",\"14\",\"5\",\"S\",\"J\",\"14\"
\"\",\"\",\"approach-retreat\",\"18\",\"219712\",\"0.0-18.0\",\"\",\"\",\"1-2\",\"4940\",\"37\",\"0\",\"Training\",\"Stims/Figures/44-C-30-3.bmp\",\"pa:ka:ka\",\"Right\",\"39\",\"1\",\"15\",\"5\",\"P\",\"J\",\"15\"
\"\",\"\",\"approach-retreat\",\"19\",\"228462\",\"0.0-19.0\",\"\",\"\",\"1-2\",\"7246\",\"40\",\"1\",\"Training\",\"Stims/Figures/44-J-10-3.bmp\",\"nama:la\",\"Up\",\"40\",\"1\",\"16\",\"5\",\"S\",\"J\",\"16\"
\"\",\"\",\"approach-retreat\",\"20\",\"235265\",\"0.0-20.0\",\"\",\"\",\"1-2\",\"5298\",\"39\",\"1\",\"Training\",\"Stims/Figures/86-C-30-1.bmp\",\"pakata\",\"Right\",\"39\",\"2\",\"1\",\"5\",\"P\",\"J\",\"17\"
\"\",\"\",\"approach-retreat\",\"21\",\"241248\",\"0.0-21.0\",\"\",\"\",\"1-2\",\"4478\",\"40\",\"0\",\"Training\",\"Stims/Figures/44-C-30-3.bmp\",\"pa:ka:ka\",\"Up\",\"38\",\"2\",\"2\",\"5\",\"P\",\"J\",\"18\"
\"\",\"\",\"approach-retreat\",\"22\",\"248094\",\"0.0-22.0\",\"\",\"\",\"1-2\",\"5339\",\"39\",\"1\",\"Training\",\"Stims/Figures/111-C-30-3.bmp\",\"pa:ka:ta\",\"Right\",\"39\",\"2\",\"3\",\"5\",\"P\",\"J\",\"19\"
\"\",\"\",\"approach-retreat\",\"23\",\"255610\",\"0.0-23.0\",\"\",\"\",\"1-2\",\"6013\",\"38\",\"0\",\"Training\",\"Stims/Figures/139-C-20-2.bmp\",\"ta:pa:ta\",\"Down\",\"40\",\"2\",\"4\",\"5\",\"P\",\"J\",\"20\"
\"\",\"\",\"approach-retreat\",\"24\",\"262424\",\"0.0-24.0\",\"\",\"\",\"1-2\",\"5308\",\"38\",\"1\",\"Training\",\"Stims/Figures/7-C-20-4.bmp\",\"tapata\",\"Up\",\"38\",\"2\",\"5\",\"5\",\"P\",\"J\",\"21\"
\"\",\"\",\"approach-retreat\",\"25\",\"269010\",\"0.0-25.0\",\"\",\"\",\"1-2\",\"5080\",\"38\",\"1\",\"Training\",\"Stims/Figures/84-J-0-2.bmp\",\"na:lana\",\"Down\",\"38\",\"2\",\"6\",\"5\",\"S\",\"J\",\"22\"
\"\",\"\",\"approach-retreat\",\"26\",\"275283\",\"0.0-26.0\",\"\",\"\",\"1-2\",\"4741\",\"39\",\"1\",\"Training\",\"Stims/Figures/111-J-10-3.bmp\",\"nalana\",\"Left\",\"39\",\"2\",\"7\",\"5\",\"S\",\"J\",\"23\"
\"\",\"\",\"approach-retreat\",\"27\",\"284603\",\"0.0-27.0\",\"\",\"\",\"1-2\",\"7815\",\"38\",\"0\",\"Training\",\"Stims/Figures/86-J-0-1.bmp\",\"ma:lala\",\"Up\",\"40\",\"2\",\"8\",\"5\",\"S\",\"J\",\"24\"
\"\",\"\",\"approach-retreat\",\"28\",\"292749\",\"0.0-28.0\",\"\",\"\",\"1-2\",\"6642\",\"37\",\"1\",\"Training\",\"Stims/Figures/71-C-30-1.bmp\",\"ta:pata\",\"Left\",\"37\",\"2\",\"9\",\"5\",\"P\",\"J\",\"25\"
\"\",\"\",\"approach-retreat\",\"29\",\"300983\",\"0.0-29.0\",\"\",\"\",\"1-2\",\"6727\",\"37\",\"0\",\"Training\",\"Stims/Figures/44-J-10-3.bmp\",\"nama:la\",\"Left\",\"39\",\"2\",\"10\",\"5\",\"S\",\"J\",\"26\"
\"\",\"\",\"approach-retreat\",\"30\",\"307807\",\"0.0-30.0\",\"\",\"\",\"1-2\",\"5314\",\"39\",\"0\",\"Training\",\"Stims/Figures/19-J-10-4.bmp\",\"malana\",\"Right\",\"37\",\"2\",\"11\",\"5\",\"S\",\"J\",\"27\"
\"\",\"\",\"approach-retreat\",\"31\",\"332054\",\"0.0-31.0\",\"\",\"\",\"1-2\",\"22736\",\"39\",\"1\",\"Training\",\"Stims/Figures/139-J-0-2.bmp\",\"namala\",\"Left\",\"39\",\"2\",\"12\",\"5\",\"S\",\"J\",\"28\"
\"\",\"\",\"approach-retreat\",\"32\",\"339791\",\"0.0-32.0\",\"\",\"\",\"1-2\",\"6229\",\"40\",\"1\",\"Training\",\"Stims/Figures/71-J-0-1.bmp\",\"nalala\",\"Up\",\"40\",\"2\",\"13\",\"5\",\"S\",\"J\",\"29\"
\"\",\"\",\"approach-retreat\",\"33\",\"348294\",\"0.0-33.0\",\"\",\"\",\"1-2\",\"6997\",\"38\",\"0\",\"Training\",\"Stims/Figures/19-C-20-4.bmp\",\"ta:ka:ka\",\"Down\",\"40\",\"2\",\"14\",\"5\",\"P\",\"J\",\"30\"
\"\",\"\",\"approach-retreat\",\"34\",\"355024\",\"0.0-34.0\",\"\",\"\",\"1-2\",\"5226\",\"37\",\"1\",\"Training\",\"Stims/Figures/7-J-10-4.bmp\",\"na:mala\",\"Right\",\"37\",\"2\",\"15\",\"5\",\"S\",\"J\",\"31\"
\"\",\"\",\"approach-retreat\",\"35\",\"362890\",\"0.0-35.0\",\"\",\"\",\"1-2\",\"6356\",\"40\",\"1\",\"Training\",\"Stims/Figures/84-C-20-2.bmp\",\"tapaka\",\"Down\",\"40\",\"2\",\"16\",\"5\",\"P\",\"J\",\"32\"
\"\",\"\",\"approach-retreat\",\"36\",\"369419\",\"0.0-36.0\",\"\",\"\",\"1-2\",\"5024\",\"38\",\"1\",\"Training\",\"Stims/Figures/71-C-30-1.bmp\",\"ta:pata\",\"Up\",\"38\",\"3\",\"1\",\"5\",\"P\",\"J\",\"33\"
\"\",\"\",\"approach-retreat\",\"37\",\"375599\",\"0.0-37.0\",\"\",\"\",\"1-2\",\"4671\",\"40\",\"1\",\"Training\",\"Stims/Figures/19-J-10-4.bmp\",\"malana\",\"Up\",\"40\",\"3\",\"2\",\"5\",\"S\",\"J\",\"34\"
\"\",\"\",\"approach-retreat\",\"38\",\"385644\",\"0.0-38.0\",\"\",\"\",\"1-2\",\"8540\",\"39\",\"0\",\"Training\",\"Stims/Figures/19-C-20-4.bmp\",\"ta:ka:ka\",\"Left\",\"37\",\"3\",\"3\",\"5\",\"P\",\"J\",\"35\"
\"\",\"\",\"approach-retreat\",\"39\",\"391785\",\"0.0-39.0\",\"\",\"\",\"1-2\",\"4634\",\"38\",\"1\",\"Training\",\"Stims/Figures/139-C-20-2.bmp\",\"ta:pa:ta\",\"Up\",\"38\",\"3\",\"4\",\"5\",\"P\",\"J\",\"36\"
\"\",\"\",\"approach-retreat\",\"40\",\"398525\",\"0.0-40.0\",\"\",\"\",\"1-2\",\"5235\",\"38\",\"1\",\"Training\",\"Stims/Figures/111-J-10-3.bmp\",\"nalana\",\"Down\",\"38\",\"3\",\"5\",\"5\",\"S\",\"J\",\"37\"
\"\",\"\",\"approach-retreat\",\"41\",\"404584\",\"0.0-41.0\",\"\",\"\",\"1-2\",\"4554\",\"37\",\"1\",\"Training\",\"Stims/Figures/111-C-30-3.bmp\",\"pa:ka:ta\",\"Left\",\"37\",\"3\",\"6\",\"5\",\"P\",\"J\",\"38\"
\"\",\"\",\"approach-retreat\",\"42\",\"410714\",\"0.0-42.0\",\"\",\"\",\"1-2\",\"4625\",\"39\",\"1\",\"Training\",\"Stims/Figures/86-J-0-1.bmp\",\"ma:lala\",\"Left\",\"39\",\"3\",\"7\",\"5\",\"S\",\"J\",\"39\"
\"\",\"\",\"approach-retreat\",\"43\",\"417090\",\"0.0-43.0\",\"\",\"\",\"1-2\",\"4869\",\"39\",\"1\",\"Training\",\"Stims/Figures/44-C-30-3.bmp\",\"pa:ka:ka\",\"Right\",\"39\",\"3\",\"8\",\"5\",\"P\",\"J\",\"40\"
\"\",\"\",\"approach-retreat\",\"44\",\"422974\",\"0.0-44.0\",\"\",\"\",\"1-2\",\"4376\",\"37\",\"1\",\"Training\",\"Stims/Figures/44-J-10-3.bmp\",\"nama:la\",\"Right\",\"37\",\"3\",\"9\",\"5\",\"S\",\"J\",\"41\"
\"\",\"\",\"approach-retreat\",\"45\",\"430585\",\"0.0-45.0\",\"\",\"\",\"1-2\",\"6107\",\"39\",\"1\",\"Training\",\"Stims/Figures/84-J-0-2.bmp\",\"na:lana\",\"Left\",\"39\",\"3\",\"10\",\"5\",\"S\",\"J\",\"42\"
\"\",\"\",\"approach-retreat\",\"46\",\"437340\",\"0.0-46.0\",\"\",\"\",\"1-2\",\"5246\",\"39\",\"1\",\"Training\",\"Stims/Figures/7-C-20-4.bmp\",\"tapata\",\"Right\",\"39\",\"3\",\"11\",\"5\",\"P\",\"J\",\"43\"
\"\",\"\",\"approach-retreat\",\"47\",\"443954\",\"0.0-47.0\",\"\",\"\",\"1-2\",\"5105\",\"37\",\"1\",\"Training\",\"Stims/Figures/7-J-10-4.bmp\",\"na:mala\",\"Right\",\"37\",\"3\",\"12\",\"5\",\"S\",\"J\",\"44\"
\"\",\"\",\"approach-retreat\",\"48\",\"450173\",\"0.0-48.0\",\"\",\"\",\"1-2\",\"4708\",\"38\",\"1\",\"Training\",\"Stims/Figures/139-J-0-2.bmp\",\"namala\",\"Down\",\"38\",\"3\",\"13\",\"5\",\"S\",\"J\",\"45\"
\"\",\"\",\"approach-retreat\",\"49\",\"457495\",\"0.0-49.0\",\"\",\"\",\"1-2\",\"5817\",\"40\",\"1\",\"Training\",\"Stims/Figures/86-C-30-1.bmp\",\"pakata\",\"Down\",\"40\",\"3\",\"14\",\"5\",\"P\",\"J\",\"46\"
\"\",\"\",\"approach-retreat\",\"50\",\"463488\",\"0.0-50.0\",\"\",\"\",\"1-2\",\"4485\",\"38\",\"1\",\"Training\",\"Stims/Figures/71-J-0-1.bmp\",\"nalala\",\"Down\",\"38\",\"3\",\"15\",\"5\",\"S\",\"J\",\"47\"
\"\",\"\",\"approach-retreat\",\"51\",\"469452\",\"0.0-51.0\",\"\",\"\",\"1-2\",\"4458\",\"40\",\"0\",\"Training\",\"Stims/Figures/84-C-20-2.bmp\",\"tapaka\",\"Up\",\"38\",\"3\",\"16\",\"5\",\"P\",\"J\",\"48\"
\"\",\"\",\"approach-retreat\",\"52\",\"476314\",\"0.0-52.0\",\"\",\"\",\"1-2\",\"5356\",\"38\",\"1\",\"Training\",\"Stims/Figures/86-C-30-1.bmp\",\"pakata\",\"Up\",\"38\",\"4\",\"1\",\"5\",\"P\",\"J\",\"49\"
\"\",\"\",\"approach-retreat\",\"53\",\"482267\",\"0.0-53.0\",\"\",\"\",\"1-2\",\"4443\",\"38\",\"1\",\"Training\",\"Stims/Figures/44-C-30-3.bmp\",\"pa:ka:ka\",\"Up\",\"38\",\"4\",\"2\",\"5\",\"P\",\"J\",\"50\"
\"\",\"\",\"approach-retreat\",\"54\",\"488665\",\"0.0-54.0\",\"\",\"\",\"1-2\",\"4893\",\"39\",\"1\",\"Training\",\"Stims/Figures/139-C-20-2.bmp\",\"ta:pa:ta\",\"Right\",\"39\",\"4\",\"3\",\"5\",\"P\",\"J\",\"51\"
\"\",\"\",\"approach-retreat\",\"55\",\"494738\",\"0.0-55.0\",\"\",\"\",\"1-2\",\"4566\",\"38\",\"1\",\"Training\",\"Stims/Figures/71-J-0-1.bmp\",\"nalala\",\"Down\",\"38\",\"4\",\"4\",\"5\",\"S\",\"J\",\"52\"
\"\",\"\",\"approach-retreat\",\"56\",\"500681\",\"0.0-56.0\",\"\",\"\",\"1-2\",\"4437\",\"37\",\"1\",\"Training\",\"Stims/Figures/139-J-0-2.bmp\",\"namala\",\"Right\",\"37\",\"4\",\"5\",\"5\",\"S\",\"J\",\"53\"
\"\",\"\",\"approach-retreat\",\"57\",\"508432\",\"0.0-57.0\",\"\",\"\",\"1-2\",\"6246\",\"38\",\"1\",\"Training\",\"Stims/Figures/19-C-20-4.bmp\",\"ta:ka:ka\",\"Up\",\"38\",\"4\",\"6\",\"5\",\"P\",\"J\",\"54\"
\"\",\"\",\"approach-retreat\",\"58\",\"514240\",\"0.0-58.0\",\"\",\"\",\"1-2\",\"4302\",\"40\",\"1\",\"Training\",\"Stims/Figures/44-J-10-3.bmp\",\"nama:la\",\"Up\",\"40\",\"4\",\"7\",\"5\",\"S\",\"J\",\"55\"
\"\",\"\",\"approach-retreat\",\"59\",\"520818\",\"0.0-59.0\",\"\",\"\",\"1-2\",\"5072\",\"37\",\"1\",\"Training\",\"Stims/Figures/71-C-30-1.bmp\",\"ta:pata\",\"Left\",\"37\",\"4\",\"8\",\"5\",\"P\",\"J\",\"56\"
\"\",\"\",\"approach-retreat\",\"60\",\"527522\",\"0.0-60.0\",\"\",\"\",\"1-2\",\"5199\",\"39\",\"1\",\"Training\",\"Stims/Figures/84-C-20-2.bmp\",\"tapaka\",\"Right\",\"39\",\"4\",\"9\",\"5\",\"P\",\"J\",\"57\"
\"\",\"\",\"approach-retreat\",\"61\",\"533948\",\"0.0-61.0\",\"\",\"\",\"1-2\",\"4921\",\"39\",\"1\",\"Training\",\"Stims/Figures/84-J-0-2.bmp\",\"na:lana\",\"Left\",\"39\",\"4\",\"10\",\"5\",\"S\",\"J\",\"58\"
\"\",\"\",\"approach-retreat\",\"62\",\"542533\",\"0.0-62.0\",\"\",\"\",\"1-2\",\"7076\",\"38\",\"1\",\"Training\",\"Stims/Figures/111-J-10-3.bmp\",\"nalana\",\"Down\",\"38\",\"4\",\"11\",\"5\",\"S\",\"J\",\"59\"
\"\",\"\",\"approach-retreat\",\"63\",\"548967\",\"0.0-63.0\",\"\",\"\",\"1-2\",\"4927\",\"39\",\"1\",\"Training\",\"Stims/Figures/111-C-30-3.bmp\",\"pa:ka:ta\",\"Right\",\"39\",\"4\",\"12\",\"5\",\"P\",\"J\",\"60\"
\"\",\"\",\"approach-retreat\",\"64\",\"556345\",\"0.0-64.0\",\"\",\"\",\"1-2\",\"5871\",\"40\",\"1\",\"Training\",\"Stims/Figures/7-C-20-4.bmp\",\"tapata\",\"Down\",\"40\",\"4\",\"13\",\"5\",\"P\",\"J\",\"61\"
\"\",\"\",\"approach-retreat\",\"65\",\"562291\",\"0.0-65.0\",\"\",\"\",\"1-2\",\"4441\",\"38\",\"1\",\"Training\",\"Stims/Figures/19-J-10-4.bmp\",\"malana\",\"Down\",\"38\",\"4\",\"14\",\"5\",\"S\",\"J\",\"62\"
\"\",\"\",\"approach-retreat\",\"66\",\"568180\",\"0.0-66.0\",\"\",\"\",\"1-2\",\"4384\",\"39\",\"1\",\"Training\",\"Stims/Figures/7-J-10-4.bmp\",\"na:mala\",\"Left\",\"39\",\"4\",\"15\",\"5\",\"S\",\"J\",\"63\"
\"\",\"\",\"approach-retreat\",\"67\",\"574061\",\"0.0-67.0\",\"\",\"\",\"1-2\",\"4371\",\"39\",\"1\",\"Training\",\"Stims/Figures/86-J-0-1.bmp\",\"ma:lala\",\"Left\",\"39\",\"4\",\"16\",\"5\",\"S\",\"J\",\"64\"
\"\",\"\",\"approach-retreat\",\"68\",\"580162\",\"0.0-68.0\",\"\",\"\",\"1-2\",\"4591\",\"37\",\"1\",\"Training\",\"Stims/Figures/86-J-0-1.bmp\",\"ma:lala\",\"Right\",\"37\",\"5\",\"1\",\"5\",\"S\",\"J\",\"65\"
\"\",\"\",\"approach-retreat\",\"69\",\"586648\",\"0.0-69.0\",\"\",\"\",\"1-2\",\"4979\",\"38\",\"1\",\"Training\",\"Stims/Figures/7-J-10-4.bmp\",\"na:mala\",\"Down\",\"38\",\"5\",\"2\",\"5\",\"S\",\"J\",\"66\"
\"\",\"\",\"approach-retreat\",\"70\",\"592540\",\"0.0-70.0\",\"\",\"\",\"1-2\",\"4383\",\"38\",\"1\",\"Training\",\"Stims/Figures/111-J-10-3.bmp\",\"nalana\",\"Down\",\"38\",\"5\",\"3\",\"5\",\"S\",\"J\",\"67\"
\"\",\"\",\"approach-retreat\",\"71\",\"598602\",\"0.0-71.0\",\"\",\"\",\"1-2\",\"4557\",\"40\",\"1\",\"Training\",\"Stims/Figures/139-C-20-2.bmp\",\"ta:pa:ta\",\"Down\",\"40\",\"5\",\"4\",\"5\",\"P\",\"J\",\"68\"
\"\",\"\",\"approach-retreat\",\"72\",\"606154\",\"0.0-72.0\",\"\",\"\",\"1-2\",\"6040\",\"39\",\"1\",\"Training\",\"Stims/Figures/139-J-0-2.bmp\",\"namala\",\"Left\",\"39\",\"5\",\"5\",\"5\",\"S\",\"J\",\"69\"
\"\",\"\",\"approach-retreat\",\"73\",\"611953\",\"0.0-73.0\",\"\",\"\",\"1-2\",\"4289\",\"37\",\"1\",\"Training\",\"Stims/Figures/86-C-30-1.bmp\",\"pakata\",\"Left\",\"37\",\"5\",\"6\",\"5\",\"P\",\"J\",\"70\"
\"\",\"\",\"approach-retreat\",\"74\",\"619139\",\"0.0-74.0\",\"\",\"\",\"1-2\",\"5674\",\"38\",\"1\",\"Training\",\"Stims/Figures/19-C-20-4.bmp\",\"ta:ka:ka\",\"Up\",\"38\",\"5\",\"7\",\"5\",\"P\",\"J\",\"71\"
\"\",\"\",\"approach-retreat\",\"75\",\"624890\",\"0.0-75.0\",\"\",\"\",\"1-2\",\"4244\",\"39\",\"1\",\"Training\",\"Stims/Figures/111-C-30-3.bmp\",\"pa:ka:ta\",\"Right\",\"39\",\"5\",\"8\",\"5\",\"P\",\"J\",\"72\"
\"\",\"\",\"approach-retreat\",\"76\",\"631301\",\"0.0-76.0\",\"\",\"\",\"1-2\",\"4901\",\"37\",\"1\",\"Training\",\"Stims/Figures/84-C-20-2.bmp\",\"tapaka\",\"Left\",\"37\",\"5\",\"9\",\"5\",\"P\",\"J\",\"73\"
\"\",\"\",\"approach-retreat\",\"77\",\"638700\",\"0.0-77.0\",\"\",\"\",\"1-2\",\"5889\",\"39\",\"1\",\"Training\",\"Stims/Figures/44-C-30-3.bmp\",\"pa:ka:ka\",\"Right\",\"39\",\"5\",\"10\",\"5\",\"P\",\"J\",\"74\"
\"\",\"\",\"approach-retreat\",\"78\",\"644863\",\"0.0-78.0\",\"\",\"\",\"1-2\",\"4654\",\"40\",\"1\",\"Training\",\"Stims/Figures/44-J-10-3.bmp\",\"nama:la\",\"Up\",\"40\",\"5\",\"11\",\"5\",\"S\",\"J\",\"75\"
\"\",\"\",\"approach-retreat\",\"79\",\"650742\",\"0.0-79.0\",\"\",\"\",\"1-2\",\"4374\",\"37\",\"1\",\"Training\",\"Stims/Figures/7-C-20-4.bmp\",\"tapata\",\"Left\",\"37\",\"5\",\"12\",\"5\",\"P\",\"J\",\"76\"
\"\",\"\",\"approach-retreat\",\"80\",\"657910\",\"0.0-80.0\",\"\",\"\",\"1-2\",\"5661\",\"39\",\"1\",\"Training\",\"Stims/Figures/71-C-30-1.bmp\",\"ta:pata\",\"Right\",\"39\",\"5\",\"13\",\"5\",\"P\",\"J\",\"77\"
\"\",\"\",\"approach-retreat\",\"81\",\"664247\",\"0.0-81.0\",\"\",\"\",\"1-2\",\"4827\",\"40\",\"1\",\"Training\",\"Stims/Figures/71-J-0-1.bmp\",\"nalala\",\"Up\",\"40\",\"5\",\"14\",\"5\",\"S\",\"J\",\"78\"
\"\",\"\",\"approach-retreat\",\"82\",\"671507\",\"0.0-82.0\",\"\",\"\",\"1-2\",\"5753\",\"40\",\"1\",\"Training\",\"Stims/Figures/84-J-0-2.bmp\",\"na:lana\",\"Up\",\"40\",\"5\",\"15\",\"5\",\"S\",\"J\",\"79\"
\"\",\"\",\"approach-retreat\",\"83\",\"678289\",\"0.0-83.0\",\"\",\"\",\"1-2\",\"5274\",\"38\",\"1\",\"Training\",\"Stims/Figures/19-J-10-4.bmp\",\"malana\",\"Down\",\"38\",\"5\",\"16\",\"5\",\"S\",\"J\",\"80\"
\"\",\"\",\"approach-retreat\",\"84\",\"684182\",\"0.0-84.0\",\"\",\"\",\"1-2\",\"4387\",\"38\",\"1\",\"Training\",\"Stims/Figures/44-C-30-3.bmp\",\"pa:ka:ka\",\"Up\",\"38\",\"6\",\"1\",\"5\",\"P\",\"J\",\"81\"
\"\",\"\",\"approach-retreat\",\"85\",\"690701\",\"0.0-85.0\",\"\",\"\",\"1-2\",\"5012\",\"40\",\"1\",\"Training\",\"Stims/Figures/7-C-20-4.bmp\",\"tapata\",\"Down\",\"40\",\"6\",\"2\",\"5\",\"P\",\"J\",\"82\"
\"\",\"\",\"approach-retreat\",\"86\",\"697543\",\"0.0-86.0\",\"\",\"\",\"1-2\",\"5336\",\"38\",\"1\",\"Training\",\"Stims/Figures/139-C-20-2.bmp\",\"ta:pa:ta\",\"Up\",\"38\",\"6\",\"3\",\"5\",\"P\",\"J\",\"83\"
\"\",\"\",\"approach-retreat\",\"87\",\"703728\",\"0.0-87.0\",\"\",\"\",\"1-2\",\"4679\",\"37\",\"1\",\"Training\",\"Stims/Figures/7-J-10-4.bmp\",\"na:mala\",\"Right\",\"37\",\"6\",\"4\",\"5\",\"S\",\"J\",\"84\"
\"\",\"\",\"approach-retreat\",\"88\",\"710086\",\"0.0-88.0\",\"\",\"\",\"1-2\",\"4851\",\"38\",\"1\",\"Training\",\"Stims/Figures/84-C-20-2.bmp\",\"tapaka\",\"Up\",\"38\",\"6\",\"5\",\"5\",\"P\",\"J\",\"85\"
\"\",\"\",\"approach-retreat\",\"89\",\"715921\",\"0.0-89.0\",\"\",\"\",\"1-2\",\"4329\",\"39\",\"1\",\"Training\",\"Stims/Figures/44-J-10-3.bmp\",\"nama:la\",\"Left\",\"39\",\"6\",\"6\",\"5\",\"S\",\"J\",\"86\"
\"\",\"\",\"approach-retreat\",\"90\",\"723037\",\"0.0-90.0\",\"\",\"\",\"1-2\",\"5610\",\"37\",\"1\",\"Training\",\"Stims/Figures/19-J-10-4.bmp\",\"malana\",\"Right\",\"37\",\"6\",\"7\",\"5\",\"S\",\"J\",\"87\"
\"\",\"\",\"approach-retreat\",\"91\",\"728775\",\"0.0-91.0\",\"\",\"\",\"1-2\",\"4232\",\"38\",\"1\",\"Training\",\"Stims/Figures/84-J-0-2.bmp\",\"na:lana\",\"Down\",\"38\",\"6\",\"8\",\"5\",\"S\",\"J\",\"88\"
\"\",\"\",\"approach-retreat\",\"92\",\"734354\",\"0.0-92.0\",\"\",\"\",\"1-2\",\"4071\",\"39\",\"1\",\"Training\",\"Stims/Figures/139-J-0-2.bmp\",\"namala\",\"Left\",\"39\",\"6\",\"9\",\"5\",\"S\",\"J\",\"89\"
\"\",\"\",\"approach-retreat\",\"93\",\"740244\",\"0.0-93.0\",\"\",\"\",\"1-2\",\"4384\",\"38\",\"1\",\"Training\",\"Stims/Figures/71-J-0-1.bmp\",\"nalala\",\"Down\",\"38\",\"6\",\"10\",\"5\",\"S\",\"J\",\"90\"
\"\",\"\",\"approach-retreat\",\"94\",\"746872\",\"0.0-94.0\",\"\",\"\",\"1-2\",\"5122\",\"40\",\"1\",\"Training\",\"Stims/Figures/86-C-30-1.bmp\",\"pakata\",\"Down\",\"40\",\"6\",\"11\",\"5\",\"P\",\"J\",\"91\"
\"\",\"\",\"approach-retreat\",\"95\",\"754195\",\"0.0-95.0\",\"\",\"\",\"1-2\",\"5817\",\"39\",\"1\",\"Training\",\"Stims/Figures/71-C-30-1.bmp\",\"ta:pata\",\"Right\",\"39\",\"6\",\"12\",\"5\",\"P\",\"J\",\"92\"
\"\",\"\",\"approach-retreat\",\"96\",\"761012\",\"0.0-96.0\",\"\",\"\",\"1-2\",\"5308\",\"37\",\"1\",\"Training\",\"Stims/Figures/111-C-30-3.bmp\",\"pa:ka:ta\",\"Left\",\"37\",\"6\",\"13\",\"5\",\"P\",\"J\",\"93\"
\"\",\"\",\"approach-retreat\",\"97\",\"766734\",\"0.0-97.0\",\"\",\"\",\"1-2\",\"4216\",\"40\",\"1\",\"Training\",\"Stims/Figures/86-J-0-1.bmp\",\"ma:lala\",\"Up\",\"40\",\"6\",\"14\",\"5\",\"S\",\"J\",\"94\"
\"\",\"\",\"approach-retreat\",\"98\",\"774526\",\"0.0-98.0\",\"\",\"\",\"1-2\",\"6284\",\"37\",\"1\",\"Training\",\"Stims/Figures/111-J-10-3.bmp\",\"nalana\",\"Right\",\"37\",\"6\",\"15\",\"5\",\"S\",\"J\",\"95\"
\"\",\"\",\"approach-retreat\",\"99\",\"780726\",\"0.0-99.0\",\"\",\"\",\"1-2\",\"4693\",\"37\",\"1\",\"Training\",\"Stims/Figures/19-C-20-4.bmp\",\"ta:ka:ka\",\"Left\",\"37\",\"6\",\"16\",\"5\",\"P\",\"J\",\"96\"
\"\",\"\",\"approach-retreat\",\"100\",\"787515\",\"0.0-100.0\",\"\",\"\",\"1-2\",\"5283\",\"37\",\"1\",\"Training\",\"Stims/Figures/7-J-10-4.bmp\",\"na:mala\",\"Right\",\"37\",\"7\",\"1\",\"5\",\"S\",\"J\",\"97\"
\"\",\"\",\"approach-retreat\",\"101\",\"794938\",\"0.0-101.0\",\"\",\"\",\"1-2\",\"5916\",\"40\",\"1\",\"Training\",\"Stims/Figures/19-C-20-4.bmp\",\"ta:ka:ka\",\"Down\",\"40\",\"7\",\"2\",\"5\",\"P\",\"J\",\"98\"
\"\",\"\",\"approach-retreat\",\"102\",\"801363\",\"0.0-102.0\",\"\",\"\",\"1-2\",\"4920\",\"38\",\"1\",\"Training\",\"Stims/Figures/44-J-10-3.bmp\",\"nama:la\",\"Down\",\"38\",\"7\",\"3\",\"5\",\"S\",\"J\",\"99\"
\"\",\"\",\"approach-retreat\",\"103\",\"806901\",\"0.0-103.0\",\"\",\"\",\"1-2\",\"4032\",\"40\",\"1\",\"Training\",\"Stims/Figures/71-C-30-1.bmp\",\"ta:pata\",\"Down\",\"40\",\"7\",\"4\",\"5\",\"P\",\"J\",\"100\"
\"\",\"\",\"approach-retreat\",\"104\",\"812824\",\"0.0-104.0\",\"\",\"\",\"1-2\",\"4418\",\"39\",\"1\",\"Training\",\"Stims/Figures/44-C-30-3.bmp\",\"pa:ka:ka\",\"Right\",\"39\",\"7\",\"5\",\"5\",\"P\",\"J\",\"101\"
\"\",\"\",\"approach-retreat\",\"105\",\"818785\",\"0.0-105.0\",\"\",\"\",\"1-2\",\"4454\",\"38\",\"1\",\"Training\",\"Stims/Figures/84-C-20-2.bmp\",\"tapaka\",\"Up\",\"38\",\"7\",\"6\",\"5\",\"P\",\"J\",\"102\"
\"\",\"\",\"approach-retreat\",\"106\",\"825165\",\"0.0-106.0\",\"\",\"\",\"1-2\",\"4869\",\"40\",\"1\",\"Training\",\"Stims/Figures/19-J-10-4.bmp\",\"malana\",\"Up\",\"40\",\"7\",\"7\",\"5\",\"S\",\"J\",\"103\"
\"\",\"\",\"approach-retreat\",\"107\",\"831478\",\"0.0-107.0\",\"\",\"\",\"1-2\",\"4808\",\"37\",\"1\",\"Training\",\"Stims/Figures/86-C-30-1.bmp\",\"pakata\",\"Left\",\"37\",\"7\",\"8\",\"5\",\"P\",\"J\",\"104\"
\"\",\"\",\"approach-retreat\",\"108\",\"838842\",\"0.0-108.0\",\"\",\"\",\"1-2\",\"5858\",\"38\",\"1\",\"Training\",\"Stims/Figures/139-C-20-2.bmp\",\"ta:pa:ta\",\"Up\",\"38\",\"7\",\"9\",\"5\",\"P\",\"J\",\"105\"
\"\",\"\",\"approach-retreat\",\"109\",\"845570\",\"0.0-109.0\",\"\",\"\",\"1-2\",\"5220\",\"39\",\"1\",\"Training\",\"Stims/Figures/111-C-30-3.bmp\",\"pa:ka:ta\",\"Right\",\"39\",\"7\",\"10\",\"5\",\"P\",\"J\",\"106\"
\"\",\"\",\"approach-retreat\",\"110\",\"851377\",\"0.0-110.0\",\"\",\"\",\"1-2\",\"4301\",\"40\",\"1\",\"Training\",\"Stims/Figures/71-J-0-1.bmp\",\"nalala\",\"Up\",\"40\",\"7\",\"11\",\"5\",\"S\",\"J\",\"107\"
\"\",\"\",\"approach-retreat\",\"111\",\"857342\",\"0.0-111.0\",\"\",\"\",\"1-2\",\"4459\",\"39\",\"1\",\"Training\",\"Stims/Figures/84-J-0-2.bmp\",\"na:lana\",\"Left\",\"39\",\"7\",\"12\",\"5\",\"S\",\"J\",\"108\"
\"\",\"\",\"approach-retreat\",\"112\",\"863501\",\"0.0-112.0\",\"\",\"\",\"1-2\",\"4648\",\"39\",\"1\",\"Training\",\"Stims/Figures/111-J-10-3.bmp\",\"nalana\",\"Left\",\"39\",\"7\",\"13\",\"5\",\"S\",\"J\",\"109\"
\"\",\"\",\"approach-retreat\",\"113\",\"869594\",\"0.0-113.0\",\"\",\"\",\"1-2\",\"4582\",\"40\",\"1\",\"Training\",\"Stims/Figures/7-C-20-4.bmp\",\"tapata\",\"Down\",\"40\",\"7\",\"14\",\"5\",\"P\",\"J\",\"110\"
\"\",\"\",\"approach-retreat\",\"114\",\"875221\",\"0.0-114.0\",\"\",\"\",\"1-2\",\"4122\",\"39\",\"1\",\"Training\",\"Stims/Figures/139-J-0-2.bmp\",\"namala\",\"Left\",\"39\",\"7\",\"15\",\"5\",\"S\",\"J\",\"111\"
\"\",\"\",\"approach-retreat\",\"115\",\"881404\",\"0.0-115.0\",\"\",\"\",\"1-2\",\"4676\",\"37\",\"1\",\"Training\",\"Stims/Figures/86-J-0-1.bmp\",\"ma:lala\",\"Right\",\"37\",\"7\",\"16\",\"5\",\"S\",\"J\",\"112\"
\"\",\"\",\"approach-retreat\",\"116\",\"887459\",\"0.0-116.0\",\"\",\"\",\"1-2\",\"4546\",\"38\",\"1\",\"Training\",\"Stims/Figures/44-C-30-3.bmp\",\"pa:ka:ka\",\"Up\",\"38\",\"8\",\"1\",\"5\",\"P\",\"J\",\"113\"
\"\",\"\",\"approach-retreat\",\"117\",\"893264\",\"0.0-117.0\",\"\",\"\",\"1-2\",\"4296\",\"39\",\"1\",\"Training\",\"Stims/Figures/19-J-10-4.bmp\",\"malana\",\"Left\",\"39\",\"8\",\"2\",\"5\",\"S\",\"J\",\"114\"
\"\",\"\",\"approach-retreat\",\"118\",\"899049\",\"0.0-118.0\",\"\",\"\",\"1-2\",\"4279\",\"40\",\"1\",\"Training\",\"Stims/Figures/86-J-0-1.bmp\",\"ma:lala\",\"Up\",\"40\",\"8\",\"3\",\"5\",\"S\",\"J\",\"115\"
\"\",\"\",\"approach-retreat\",\"119\",\"904836\",\"0.0-119.0\",\"\",\"\",\"1-2\",\"4279\",\"37\",\"1\",\"Training\",\"Stims/Figures/86-C-30-1.bmp\",\"pakata\",\"Left\",\"37\",\"8\",\"4\",\"5\",\"P\",\"J\",\"116\"
\"\",\"\",\"approach-retreat\",\"120\",\"910413\",\"0.0-120.0\",\"\",\"\",\"1-2\",\"4071\",\"37\",\"1\",\"Training\",\"Stims/Figures/139-C-20-2.bmp\",\"ta:pa:ta\",\"Left\",\"37\",\"8\",\"5\",\"5\",\"P\",\"J\",\"117\"
\"\",\"\",\"approach-retreat\",\"121\",\"915973\",\"0.0-121.0\",\"\",\"\",\"1-2\",\"4054\",\"37\",\"1\",\"Training\",\"Stims/Figures/71-C-30-1.bmp\",\"ta:pata\",\"Left\",\"37\",\"8\",\"6\",\"5\",\"P\",\"J\",\"118\"
\"\",\"\",\"approach-retreat\",\"122\",\"921676\",\"0.0-122.0\",\"\",\"\",\"1-2\",\"4198\",\"40\",\"1\",\"Training\",\"Stims/Figures/44-J-10-3.bmp\",\"nama:la\",\"Up\",\"40\",\"8\",\"7\",\"5\",\"S\",\"J\",\"119\"
\"\",\"\",\"approach-retreat\",\"123\",\"927487\",\"0.0-123.0\",\"\",\"\",\"1-2\",\"4303\",\"40\",\"1\",\"Training\",\"Stims/Figures/7-C-20-4.bmp\",\"tapata\",\"Down\",\"40\",\"8\",\"8\",\"5\",\"P\",\"J\",\"120\"
\"\",\"\",\"approach-retreat\",\"124\",\"933333\",\"0.0-124.0\",\"\",\"\",\"1-2\",\"4335\",\"40\",\"1\",\"Training\",\"Stims/Figures/111-C-30-3.bmp\",\"pa:ka:ta\",\"Down\",\"40\",\"8\",\"9\",\"5\",\"P\",\"J\",\"121\"
\"\",\"\",\"approach-retreat\",\"125\",\"940007\",\"0.0-125.0\",\"\",\"\",\"1-2\",\"5167\",\"37\",\"1\",\"Training\",\"Stims/Figures/7-J-10-4.bmp\",\"na:mala\",\"Right\",\"37\",\"8\",\"10\",\"5\",\"S\",\"J\",\"122\"
\"\",\"\",\"approach-retreat\",\"126\",\"946064\",\"0.0-126.0\",\"\",\"\",\"1-2\",\"4544\",\"39\",\"1\",\"Training\",\"Stims/Figures/84-C-20-2.bmp\",\"tapaka\",\"Right\",\"39\",\"8\",\"11\",\"5\",\"P\",\"J\",\"123\"
\"\",\"\",\"approach-retreat\",\"127\",\"951971\",\"0.0-127.0\",\"\",\"\",\"1-2\",\"4395\",\"37\",\"1\",\"Training\",\"Stims/Figures/84-J-0-2.bmp\",\"na:lana\",\"Right\",\"37\",\"8\",\"12\",\"5\",\"S\",\"J\",\"124\"
\"\",\"\",\"approach-retreat\",\"128\",\"957562\",\"0.0-128.0\",\"\",\"\",\"1-2\",\"4085\",\"37\",\"1\",\"Training\",\"Stims/Figures/111-J-10-3.bmp\",\"nalana\",\"Right\",\"37\",\"8\",\"13\",\"5\",\"S\",\"J\",\"125\"
\"\",\"\",\"approach-retreat\",\"129\",\"963792\",\"0.0-129.0\",\"\",\"\",\"1-2\",\"4720\",\"38\",\"1\",\"Training\",\"Stims/Figures/139-J-0-2.bmp\",\"namala\",\"Down\",\"38\",\"8\",\"14\",\"5\",\"S\",\"J\",\"126\"
\"\",\"\",\"approach-retreat\",\"130\",\"970463\",\"0.0-130.0\",\"\",\"\",\"1-2\",\"5165\",\"38\",\"1\",\"Training\",\"Stims/Figures/71-J-0-1.bmp\",\"nalala\",\"Down\",\"38\",\"8\",\"15\",\"5\",\"S\",\"J\",\"127\"
\"\",\"\",\"approach-retreat\",\"131\",\"976931\",\"0.0-131.0\",\"\",\"\",\"1-2\",\"4957\",\"38\",\"1\",\"Training\",\"Stims/Figures/19-C-20-4.bmp\",\"ta:ka:ka\",\"Up\",\"38\",\"8\",\"16\",\"5\",\"P\",\"J\",\"128\"
\"\",\"\",\"approach-retreat\",\"132\",\"982812\",\"0.0-132.0\",\"\",\"\",\"1-2\",\"4370\",\"38\",\"1\",\"Training\",\"Stims/Figures/71-J-0-1.bmp\",\"nalala\",\"Down\",\"38\",\"9\",\"1\",\"5\",\"S\",\"J\",\"129\"
\"\",\"\",\"approach-retreat\",\"133\",\"988407\",\"0.0-133.0\",\"\",\"\",\"1-2\",\"4085\",\"38\",\"1\",\"Training\",\"Stims/Figures/139-J-0-2.bmp\",\"namala\",\"Down\",\"38\",\"9\",\"2\",\"5\",\"S\",\"J\",\"130\"
\"\",\"\",\"approach-retreat\",\"134\",\"996121\",\"0.0-134.0\",\"\",\"\",\"1-2\",\"6208\",\"38\",\"0\",\"Training\",\"Stims/Figures/44-J-10-3.bmp\",\"nama:la\",\"Up\",\"40\",\"9\",\"3\",\"5\",\"S\",\"J\",\"131\"
\"\",\"\",\"approach-retreat\",\"135\",\"1002159\",\"0.0-135.0\",\"\",\"\",\"1-2\",\"4528\",\"37\",\"1\",\"Training\",\"Stims/Figures/86-J-0-1.bmp\",\"ma:lala\",\"Right\",\"37\",\"9\",\"4\",\"5\",\"S\",\"J\",\"132\"
\"\",\"\",\"approach-retreat\",\"136\",\"1008001\",\"0.0-136.0\",\"\",\"\",\"1-2\",\"4330\",\"37\",\"1\",\"Training\",\"Stims/Figures/111-J-10-3.bmp\",\"nalana\",\"Right\",\"37\",\"9\",\"5\",\"5\",\"S\",\"J\",\"133\"
\"\",\"\",\"approach-retreat\",\"137\",\"1013996\",\"0.0-137.0\",\"\",\"\",\"1-2\",\"4484\",\"38\",\"1\",\"Training\",\"Stims/Figures/44-C-30-3.bmp\",\"pa:ka:ka\",\"Up\",\"38\",\"9\",\"6\",\"5\",\"P\",\"J\",\"134\"
\"\",\"\",\"approach-retreat\",\"138\",\"1021050\",\"0.0-138.0\",\"\",\"\",\"1-2\",\"5544\",\"37\",\"1\",\"Training\",\"Stims/Figures/19-C-20-4.bmp\",\"ta:ka:ka\",\"Left\",\"37\",\"9\",\"7\",\"5\",\"P\",\"J\",\"135\"
\"\",\"\",\"approach-retreat\",\"139\",\"1027623\",\"0.0-139.0\",\"\",\"\",\"1-2\",\"5064\",\"37\",\"1\",\"Training\",\"Stims/Figures/7-J-10-4.bmp\",\"na:mala\",\"Right\",\"37\",\"9\",\"8\",\"5\",\"S\",\"J\",\"136\"
\"\",\"\",\"approach-retreat\",\"140\",\"1033333\",\"0.0-140.0\",\"\",\"\",\"1-2\",\"4199\",\"39\",\"1\",\"Training\",\"Stims/Figures/111-C-30-3.bmp\",\"pa:ka:ta\",\"Right\",\"39\",\"9\",\"9\",\"5\",\"P\",\"J\",\"137\"
\"\",\"\",\"approach-retreat\",\"141\",\"1040369\",\"0.0-141.0\",\"\",\"\",\"1-2\",\"5527\",\"39\",\"1\",\"Training\",\"Stims/Figures/19-J-10-4.bmp\",\"malana\",\"Left\",\"39\",\"9\",\"10\",\"5\",\"S\",\"J\",\"138\"
\"\",\"\",\"approach-retreat\",\"142\",\"1047483\",\"0.0-142.0\",\"\",\"\",\"1-2\",\"5605\",\"40\",\"1\",\"Training\",\"Stims/Figures/71-C-30-1.bmp\",\"ta:pata\",\"Down\",\"40\",\"9\",\"11\",\"5\",\"P\",\"J\",\"139\"
\"\",\"\",\"approach-retreat\",\"143\",\"1054670\",\"0.0-143.0\",\"\",\"\",\"1-2\",\"5675\",\"38\",\"1\",\"Training\",\"Stims/Figures/139-C-20-2.bmp\",\"ta:pa:ta\",\"Up\",\"38\",\"9\",\"12\",\"5\",\"P\",\"J\",\"140\"
\"\",\"\",\"approach-retreat\",\"144\",\"1061047\",\"0.0-144.0\",\"\",\"\",\"1-2\",\"4867\",\"37\",\"1\",\"Training\",\"Stims/Figures/86-C-30-1.bmp\",\"pakata\",\"Left\",\"37\",\"9\",\"13\",\"5\",\"P\",\"J\",\"141\"
\"\",\"\",\"approach-retreat\",\"145\",\"1066892\",\"0.0-145.0\",\"\",\"\",\"1-2\",\"4335\",\"38\",\"1\",\"Training\",\"Stims/Figures/84-C-20-2.bmp\",\"tapaka\",\"Up\",\"38\",\"9\",\"14\",\"5\",\"P\",\"J\",\"142\"
\"\",\"\",\"approach-retreat\",\"146\",\"1072886\",\"0.0-146.0\",\"\",\"\",\"1-2\",\"4482\",\"40\",\"1\",\"Training\",\"Stims/Figures/7-C-20-4.bmp\",\"tapata\",\"Down\",\"40\",\"9\",\"15\",\"5\",\"P\",\"J\",\"143\"
\"\",\"\",\"approach-retreat\",\"147\",\"1078538\",\"0.0-147.0\",\"\",\"\",\"1-2\",\"4143\",\"39\",\"1\",\"Training\",\"Stims/Figures/84-J-0-2.bmp\",\"na:lana\",\"Left\",\"39\",\"9\",\"16\",\"5\",\"S\",\"J\",\"144\"
\"18587\",\"\",\"instructions\",\"148\",\"1097125\",\"0.0-148.0\",\"[{\"\"page_index\"\":0,\"\"viewing_time\"\":18586}]\",\"\",\"\",\"\",\"\",\"\",\"\",\"\",\"\",\"\",\"\",\"\",\"\",\"\",\"\",\"\",\"\"
\"\",\"\",\"approach-retreat\",\"149\",\"1105347\",\"0.0-149.0\",\"\",\"\",\"1-2\",\"6713\",\"38\",\"0\",\"Testing\",\"Stims/Figures/102-J-10-4.bmp\",\"mala:na\",\"Up\",\"40\",\"1\",\"1\",\"5\",\"S\",\"J\",\"1\"
\"\",\"\",\"approach-retreat\",\"150\",\"1112254\",\"0.0-150.0\",\"\",\"\",\"1-2\",\"5398\",\"40\",\"0\",\"Testing\",\"Stims/Figures/139-J-0-2.bmp\",\"namala\",\"Down\",\"38\",\"1\",\"2\",\"5\",\"S\",\"J\",\"2\"
\"\",\"\",\"approach-retreat\",\"151\",\"1119279\",\"0.0-151.0\",\"\",\"\",\"1-2\",\"5516\",\"38\",\"0\",\"Testing\",\"Stims/Figures/71-C-30-1.bmp\",\"ta:pata\",\"Down\",\"40\",\"1\",\"3\",\"5\",\"P\",\"J\",\"3\"
\"\",\"\",\"approach-retreat\",\"152\",\"1126061\",\"0.0-152.0\",\"\",\"\",\"1-2\",\"5274\",\"39\",\"1\",\"Testing\",\"Stims/Figures/85-C-20-2.bmp\",\"paka:ka\",\"Right\",\"39\",\"1\",\"4\",\"5\",\"P\",\"J\",\"4\"
\"\",\"\",\"approach-retreat\",\"153\",\"1132998\",\"0.0-153.0\",\"\",\"\",\"1-2\",\"5429\",\"37\",\"1\",\"Testing\",\"Stims/Figures/111-C-30-3.bmp\",\"pa:ka:ta\",\"Left\",\"37\",\"1\",\"5\",\"5\",\"P\",\"J\",\"5\"
\"\",\"\",\"approach-retreat\",\"154\",\"1139417\",\"0.0-154.0\",\"\",\"\",\"1-2\",\"4906\",\"39\",\"1\",\"Testing\",\"Stims/Figures/139-C-20-2.bmp\",\"ta:pa:ta\",\"Right\",\"39\",\"1\",\"6\",\"5\",\"P\",\"J\",\"6\"
\"\",\"\",\"approach-retreat\",\"155\",\"1146410\",\"0.0-155.0\",\"\",\"\",\"1-2\",\"5484\",\"38\",\"0\",\"Testing\",\"Stims/Figures/7-J-10-4.bmp\",\"na:mala\",\"Up\",\"40\",\"1\",\"7\",\"5\",\"S\",\"J\",\"7\"
\"\",\"\",\"approach-retreat\",\"156\",\"1153684\",\"0.0-156.0\",\"\",\"\",\"1-2\",\"5764\",\"40\",\"0\",\"Testing\",\"Stims/Figures/19-C-20-4.bmp\",\"ta:ka:ka\",\"Up\",\"38\",\"1\",\"8\",\"5\",\"P\",\"J\",\"8\"
\"\",\"\",\"approach-retreat\",\"157\",\"1160404\",\"0.0-157.0\",\"\",\"\",\"1-2\",\"5211\",\"37\",\"0\",\"Testing\",\"Stims/Figures/44-C-30-3.bmp\",\"pa:ka:ka\",\"Right\",\"39\",\"1\",\"9\",\"5\",\"P\",\"J\",\"9\"
\"\",\"\",\"approach-retreat\",\"158\",\"1166508\",\"0.0-158.0\",\"\",\"\",\"1-2\",\"4595\",\"38\",\"0\",\"Testing\",\"Stims/Figures/86-C-30-1.bmp\",\"pakata\",\"Down\",\"40\",\"1\",\"10\",\"5\",\"P\",\"J\",\"10\"
\"\",\"\",\"approach-retreat\",\"159\",\"1173622\",\"0.0-159.0\",\"\",\"\",\"1-2\",\"5605\",\"40\",\"0\",\"Testing\",\"Stims/Figures/27-C-30-1.bmp\",\"taka:ta\",\"Up\",\"38\",\"1\",\"11\",\"5\",\"P\",\"J\",\"11\"
\"\",\"\",\"approach-retreat\",\"160\",\"1179565\",\"0.0-160.0\",\"\",\"\",\"1-2\",\"4435\",\"37\",\"1\",\"Testing\",\"Stims/Figures/27-J-0-1.bmp\",\"ma:la:la\",\"Right\",\"37\",\"1\",\"12\",\"5\",\"S\",\"J\",\"12\"
\"\",\"\",\"approach-retreat\",\"161\",\"1185860\",\"0.0-161.0\",\"\",\"\",\"1-2\",\"4787\",\"37\",\"0\",\"Testing\",\"Stims/Figures/85-J-0-2.bmp\",\"mama:la\",\"Left\",\"39\",\"1\",\"13\",\"5\",\"S\",\"J\",\"13\"
\"\",\"\",\"approach-retreat\",\"162\",\"1191834\",\"0.0-162.0\",\"\",\"\",\"1-2\",\"4466\",\"38\",\"0\",\"Testing\",\"Stims/Figures/19-J-10-4.bmp\",\"malana\",\"Up\",\"40\",\"1\",\"14\",\"5\",\"S\",\"J\",\"14\"
\"\",\"\",\"approach-retreat\",\"163\",\"1198521\",\"0.0-163.0\",\"\",\"\",\"1-2\",\"5179\",\"37\",\"1\",\"Testing\",\"Stims/Figures/7-C-20-4.bmp\",\"tapata\",\"Left\",\"37\",\"1\",\"15\",\"5\",\"P\",\"J\",\"15\"
\"\",\"\",\"approach-retreat\",\"164\",\"1204663\",\"0.0-164.0\",\"\",\"\",\"1-2\",\"4627\",\"40\",\"1\",\"Testing\",\"Stims/Figures/144-J-10-3.bmp\",\"ma:ma:na\",\"Up\",\"40\",\"1\",\"16\",\"5\",\"S\",\"J\",\"16\"
\"\",\"\",\"approach-retreat\",\"165\",\"1210261\",\"0.0-165.0\",\"\",\"\",\"1-2\",\"4085\",\"37\",\"1\",\"Testing\",\"Stims/Figures/84-C-20-2.bmp\",\"tapaka\",\"Left\",\"37\",\"1\",\"17\",\"5\",\"P\",\"J\",\"17\"
\"\",\"\",\"approach-retreat\",\"166\",\"1215661\",\"0.0-166.0\",\"\",\"\",\"1-2\",\"3893\",\"39\",\"1\",\"Testing\",\"Stims/Figures/71-J-0-1.bmp\",\"nalala\",\"Left\",\"39\",\"1\",\"18\",\"5\",\"S\",\"J\",\"18\"
\"\",\"\",\"approach-retreat\",\"167\",\"1221485\",\"0.0-167.0\",\"\",\"\",\"1-2\",\"4308\",\"38\",\"1\",\"Testing\",\"Stims/Figures/111-J-10-3.bmp\",\"nalana\",\"Down\",\"38\",\"1\",\"19\",\"5\",\"S\",\"J\",\"19\"
\"\",\"\",\"approach-retreat\",\"168\",\"1227091\",\"0.0-168.0\",\"\",\"\",\"1-2\",\"4097\",\"37\",\"0\",\"Testing\",\"Stims/Figures/86-J-0-1.bmp\",\"ma:lala\",\"Left\",\"39\",\"1\",\"20\",\"5\",\"S\",\"J\",\"20\"
\"\",\"\",\"approach-retreat\",\"169\",\"1232827\",\"0.0-169.0\",\"\",\"\",\"1-2\",\"4226\",\"39\",\"0\",\"Testing\",\"Stims/Figures/44-J-10-3.bmp\",\"nama:la\",\"Right\",\"37\",\"1\",\"21\",\"5\",\"S\",\"J\",\"21\"
\"\",\"\",\"approach-retreat\",\"170\",\"1239655\",\"0.0-170.0\",\"\",\"\",\"1-2\",\"5319\",\"38\",\"0\",\"Testing\",\"Stims/Figures/102-C-20-4.bmp\",\"taka:ka\",\"Down\",\"40\",\"1\",\"22\",\"5\",\"P\",\"J\",\"22\"
\"\",\"\",\"approach-retreat\",\"171\",\"1245243\",\"0.0-171.0\",\"\",\"\",\"1-2\",\"4081\",\"39\",\"1\",\"Testing\",\"Stims/Figures/144-C-30-3.bmp\",\"pa:kaka\",\"Right\",\"39\",\"1\",\"23\",\"5\",\"P\",\"J\",\"23\"
\"\",\"\",\"approach-retreat\",\"172\",\"1250823\",\"0.0-172.0\",\"\",\"\",\"1-2\",\"4073\",\"40\",\"0\",\"Testing\",\"Stims/Figures/84-J-0-2.bmp\",\"na:lana\",\"Down\",\"38\",\"1\",\"24\",\"5\",\"S\",\"J\",\"24\"
\"\",\"\",\"approach-retreat\",\"173\",\"1256336\",\"0.0-173.0\",\"\",\"\",\"1-2\",\"4003\",\"37\",\"0\",\"Testing\",\"Stims/Figures/44-J-10-3.bmp\",\"nama:la\",\"Left\",\"39\",\"2\",\"1\",\"5\",\"S\",\"J\",\"25\"
\"\",\"\",\"approach-retreat\",\"174\",\"1261807\",\"0.0-174.0\",\"\",\"\",\"1-2\",\"3962\",\"39\",\"1\",\"Testing\",\"Stims/Figures/44-C-30-3.bmp\",\"pa:ka:ka\",\"Right\",\"39\",\"2\",\"2\",\"5\",\"P\",\"J\",\"26\"
\"\",\"\",\"approach-retreat\",\"175\",\"1267551\",\"0.0-175.0\",\"\",\"\",\"1-2\",\"4235\",\"38\",\"0\",\"Testing\",\"Stims/Figures/71-J-0-1.bmp\",\"nalala\",\"Up\",\"40\",\"2\",\"3\",\"5\",\"S\",\"J\",\"27\"
\"\",\"\",\"approach-retreat\",\"176\",\"1273628\",\"0.0-176.0\",\"\",\"\",\"1-2\",\"4569\",\"37\",\"0\",\"Testing\",\"Stims/Figures/71-C-30-1.bmp\",\"ta:pata\",\"Right\",\"39\",\"2\",\"4\",\"5\",\"P\",\"J\",\"28\"
\"\",\"\",\"approach-retreat\",\"177\",\"1279228\",\"0.0-177.0\",\"\",\"\",\"1-2\",\"4091\",\"39\",\"1\",\"Testing\",\"Stims/Figures/111-C-30-3.bmp\",\"pa:ka:ta\",\"Right\",\"39\",\"2\",\"5\",\"5\",\"P\",\"J\",\"29\"
\"\",\"\",\"approach-retreat\",\"178\",\"1285082\",\"0.0-178.0\",\"\",\"\",\"1-2\",\"4345\",\"40\",\"0\",\"Testing\",\"Stims/Figures/111-J-10-3.bmp\",\"nalana\",\"Down\",\"38\",\"2\",\"6\",\"5\",\"S\",\"J\",\"30\"
\"\",\"\",\"approach-retreat\",\"179\",\"1292109\",\"0.0-179.0\",\"\",\"\",\"1-2\",\"5519\",\"38\",\"1\",\"Testing\",\"Stims/Figures/84-C-20-2.bmp\",\"tapaka\",\"Up\",\"38\",\"2\",\"7\",\"5\",\"P\",\"J\",\"31\"
\"\",\"\",\"approach-retreat\",\"180\",\"1297893\",\"0.0-180.0\",\"\",\"\",\"1-2\",\"4274\",\"39\",\"0\",\"Testing\",\"Stims/Figures/84-J-0-2.bmp\",\"na:lana\",\"Right\",\"37\",\"2\",\"8\",\"5\",\"S\",\"J\",\"32\"
\"\",\"\",\"approach-retreat\",\"181\",\"1303593\",\"0.0-181.0\",\"\",\"\",\"1-2\",\"4192\",\"40\",\"1\",\"Testing\",\"Stims/Figures/86-C-30-1.bmp\",\"pakata\",\"Down\",\"40\",\"2\",\"9\",\"5\",\"P\",\"J\",\"33\"
\"\",\"\",\"approach-retreat\",\"182\",\"1309225\",\"0.0-182.0\",\"\",\"\",\"1-2\",\"4125\",\"37\",\"0\",\"Testing\",\"Stims/Figures/86-J-0-1.bmp\",\"ma:lala\",\"Left\",\"39\",\"2\",\"10\",\"5\",\"S\",\"J\",\"34\"
\"\",\"\",\"approach-retreat\",\"183\",\"1314745\",\"0.0-183.0\",\"\",\"\",\"1-2\",\"4012\",\"40\",\"0\",\"Testing\",\"Stims/Figures/19-C-20-4.bmp\",\"ta:ka:ka\",\"Up\",\"38\",\"2\",\"11\",\"5\",\"P\",\"J\",\"35\"
\"\",\"\",\"approach-retreat\",\"184\",\"1320480\",\"0.0-184.0\",\"\",\"\",\"1-2\",\"4226\",\"40\",\"1\",\"Testing\",\"Stims/Figures/139-J-0-2.bmp\",\"namala\",\"Up\",\"40\",\"2\",\"12\",\"5\",\"S\",\"J\",\"36\"
\"\",\"\",\"approach-retreat\",\"185\",\"1326386\",\"0.0-185.0\",\"\",\"\",\"1-2\",\"4398\",\"38\",\"0\",\"Testing\",\"Stims/Figures/7-J-10-4.bmp\",\"na:mala\",\"Up\",\"40\",\"2\",\"13\",\"5\",\"S\",\"J\",\"37\"
\"\",\"\",\"approach-retreat\",\"186\",\"1332151\",\"0.0-186.0\",\"\",\"\",\"1-2\",\"4256\",\"37\",\"0\",\"Testing\",\"Stims/Figures/85-J-0-2.bmp\",\"mama:la\",\"Left\",\"39\",\"2\",\"14\",\"5\",\"S\",\"J\",\"38\"
\"\",\"\",\"approach-retreat\",\"187\",\"1337976\",\"0.0-187.0\",\"\",\"\",\"1-2\",\"4318\",\"37\",\"0\",\"Testing\",\"Stims/Figures/139-C-20-2.bmp\",\"ta:pa:ta\",\"Right\",\"39\",\"2\",\"15\",\"5\",\"P\",\"J\",\"39\"
\"\",\"\",\"approach-retreat\",\"188\",\"1344893\",\"0.0-188.0\",\"\",\"\",\"1-2\",\"5409\",\"39\",\"1\",\"Testing\",\"Stims/Figures/19-J-10-4.bmp\",\"malana\",\"Left\",\"39\",\"2\",\"16\",\"5\",\"S\",\"J\",\"40\"
\"\",\"\",\"approach-retreat\",\"189\",\"1351468\",\"0.0-189.0\",\"\",\"\",\"1-2\",\"5064\",\"40\",\"0\",\"Testing\",\"Stims/Figures/27-C-30-1.bmp\",\"taka:ta\",\"Up\",\"38\",\"2\",\"17\",\"5\",\"P\",\"J\",\"41\"
\"\",\"\",\"approach-retreat\",\"190\",\"1357316\",\"0.0-190.0\",\"\",\"\",\"1-2\",\"4340\",\"37\",\"0\",\"Testing\",\"Stims/Figures/144-C-30-3.bmp\",\"pa:kaka\",\"Right\",\"39\",\"2\",\"18\",\"5\",\"P\",\"J\",\"42\"
\"\",\"\",\"approach-retreat\",\"191\",\"1363221\",\"0.0-191.0\",\"\",\"\",\"1-2\",\"4395\",\"38\",\"0\",\"Testing\",\"Stims/Figures/102-C-20-4.bmp\",\"taka:ka\",\"Down\",\"40\",\"2\",\"19\",\"5\",\"P\",\"J\",\"43\"
\"\",\"\",\"approach-retreat\",\"192\",\"1370837\",\"0.0-192.0\",\"\",\"\",\"1-2\",\"6108\",\"37\",\"0\",\"Testing\",\"Stims/Figures/144-J-10-3.bmp\",\"ma:ma:na\",\"Left\",\"39\",\"2\",\"20\",\"5\",\"S\",\"J\",\"44\"
\"\",\"\",\"approach-retreat\",\"193\",\"1377944\",\"0.0-193.0\",\"\",\"\",\"1-2\",\"5599\",\"38\",\"0\",\"Testing\",\"Stims/Figures/85-C-20-2.bmp\",\"paka:ka\",\"Down\",\"40\",\"2\",\"21\",\"5\",\"P\",\"J\",\"45\"
\"\",\"\",\"approach-retreat\",\"194\",\"1384673\",\"0.0-194.0\",\"\",\"\",\"1-2\",\"5221\",\"39\",\"1\",\"Testing\",\"Stims/Figures/27-J-0-1.bmp\",\"ma:la:la\",\"Left\",\"39\",\"2\",\"22\",\"5\",\"S\",\"J\",\"46\"
\"\",\"\",\"approach-retreat\",\"195\",\"1390717\",\"0.0-195.0\",\"\",\"\",\"1-2\",\"4537\",\"38\",\"1\",\"Testing\",\"Stims/Figures/102-J-10-4.bmp\",\"mala:na\",\"Down\",\"38\",\"2\",\"23\",\"5\",\"S\",\"J\",\"47\"
\"\",\"\",\"approach-retreat\",\"196\",\"1398300\",\"0.0-196.0\",\"\",\"\",\"1-2\",\"6075\",\"40\",\"1\",\"Testing\",\"Stims/Figures/7-C-20-4.bmp\",\"tapata\",\"Down\",\"40\",\"2\",\"24\",\"5\",\"P\",\"J\",\"48\"
\"\",\"\",\"approach-retreat\",\"197\",\"1404437\",\"0.0-197.0\",\"\",\"\",\"1-2\",\"4628\",\"38\",\"0\",\"Testing\",\"Stims/Figures/84-C-20-2.bmp\",\"tapaka\",\"Down\",\"40\",\"3\",\"1\",\"5\",\"P\",\"J\",\"49\"
\"\",\"\",\"approach-retreat\",\"198\",\"1410869\",\"0.0-198.0\",\"\",\"\",\"1-2\",\"4923\",\"39\",\"1\",\"Testing\",\"Stims/Figures/111-C-30-3.bmp\",\"pa:ka:ta\",\"Right\",\"39\",\"3\",\"2\",\"5\",\"P\",\"J\",\"50\"
\"\",\"\",\"approach-retreat\",\"199\",\"1416875\",\"0.0-199.0\",\"\",\"\",\"1-2\",\"4497\",\"38\",\"0\",\"Testing\",\"Stims/Figures/19-J-10-4.bmp\",\"malana\",\"Up\",\"40\",\"3\",\"3\",\"5\",\"S\",\"J\",\"51\"
\"\",\"\",\"approach-retreat\",\"200\",\"1422644\",\"0.0-200.0\",\"\",\"\",\"1-2\",\"4262\",\"38\",\"0\",\"Testing\",\"Stims/Figures/144-J-10-3.bmp\",\"ma:ma:na\",\"Up\",\"40\",\"3\",\"4\",\"5\",\"S\",\"J\",\"52\"
\"\",\"\",\"approach-retreat\",\"201\",\"1429826\",\"0.0-201.0\",\"\",\"\",\"1-2\",\"5674\",\"40\",\"1\",\"Testing\",\"Stims/Figures/7-C-20-4.bmp\",\"tapata\",\"Down\",\"40\",\"3\",\"5\",\"5\",\"P\",\"J\",\"53\"
\"\",\"\",\"approach-retreat\",\"202\",\"1439777\",\"0.0-202.0\",\"\",\"\",\"1-2\",\"8442\",\"38\",\"0\",\"Testing\",\"Stims/Figures/84-J-0-2.bmp\",\"na:lana\",\"Up\",\"40\",\"3\",\"6\",\"5\",\"S\",\"J\",\"54\"
\"\",\"\",\"approach-retreat\",\"203\",\"1446635\",\"0.0-203.0\",\"\",\"\",\"1-2\",\"5349\",\"37\",\"1\",\"Testing\",\"Stims/Figures/139-C-20-2.bmp\",\"ta:pa:ta\",\"Left\",\"37\",\"3\",\"7\",\"5\",\"P\",\"J\",\"55\"
\"\",\"\",\"approach-retreat\",\"204\",\"1453703\",\"0.0-204.0\",\"\",\"\",\"1-2\",\"5561\",\"37\",\"1\",\"Testing\",\"Stims/Figures/19-C-20-4.bmp\",\"ta:ka:ka\",\"Left\",\"37\",\"3\",\"8\",\"5\",\"P\",\"J\",\"56\"
\"\",\"\",\"approach-retreat\",\"205\",\"1459889\",\"0.0-205.0\",\"\",\"\",\"1-2\",\"4678\",\"37\",\"1\",\"Testing\",\"Stims/Figures/71-J-0-1.bmp\",\"nalala\",\"Right\",\"37\",\"3\",\"9\",\"5\",\"S\",\"J\",\"57\"
\"\",\"\",\"approach-retreat\",\"206\",\"1465965\",\"0.0-206.0\",\"\",\"\",\"1-2\",\"4567\",\"40\",\"0\",\"Testing\",\"Stims/Figures/7-J-10-4.bmp\",\"na:mala\",\"Down\",\"38\",\"3\",\"10\",\"5\",\"S\",\"J\",\"58\"
\"\",\"\",\"approach-retreat\",\"207\",\"1472950\",\"0.0-207.0\",\"\",\"\",\"1-2\",\"5477\",\"40\",\"0\",\"Testing\",\"Stims/Figures/85-J-0-2.bmp\",\"mama:la\",\"Down\",\"38\",\"3\",\"11\",\"5\",\"S\",\"J\",\"59\"
\"\",\"\",\"approach-retreat\",\"208\",\"1479699\",\"0.0-208.0\",\"\",\"\",\"1-2\",\"5240\",\"37\",\"1\",\"Testing\",\"Stims/Figures/111-J-10-3.bmp\",\"nalana\",\"Right\",\"37\",\"3\",\"12\",\"5\",\"S\",\"J\",\"60\"
\"\",\"\",\"approach-retreat\",\"209\",\"1485222\",\"0.0-209.0\",\"\",\"\",\"1-2\",\"4015\",\"40\",\"0\",\"Testing\",\"Stims/Figures/86-C-30-1.bmp\",\"pakata\",\"Up\",\"38\",\"3\",\"13\",\"5\",\"P\",\"J\",\"61\"
\"\",\"\",\"approach-retreat\",\"210\",\"1490765\",\"0.0-210.0\",\"\",\"\",\"1-2\",\"4034\",\"39\",\"0\",\"Testing\",\"Stims/Figures/144-C-30-3.bmp\",\"pa:kaka\",\"Left\",\"37\",\"3\",\"14\",\"5\",\"P\",\"J\",\"62\"
\"\",\"\",\"approach-retreat\",\"211\",\"1497146\",\"0.0-211.0\",\"\",\"\",\"1-2\",\"4873\",\"39\",\"1\",\"Testing\",\"Stims/Figures/71-C-30-1.bmp\",\"ta:pata\",\"Right\",\"39\",\"3\",\"15\",\"5\",\"P\",\"J\",\"63\"
\"\",\"\",\"approach-retreat\",\"212\",\"1502738\",\"0.0-212.0\",\"\",\"\",\"1-2\",\"4085\",\"40\",\"0\",\"Testing\",\"Stims/Figures/27-C-30-1.bmp\",\"taka:ta\",\"Up\",\"38\",\"3\",\"16\",\"5\",\"P\",\"J\",\"64\"
\"\",\"\",\"approach-retreat\",\"213\",\"1508273\",\"0.0-213.0\",\"\",\"\",\"1-2\",\"4027\",\"40\",\"0\",\"Testing\",\"Stims/Figures/44-C-30-3.bmp\",\"pa:ka:ka\",\"Up\",\"38\",\"3\",\"17\",\"5\",\"P\",\"J\",\"65\"
\"\",\"\",\"approach-retreat\",\"214\",\"1515113\",\"0.0-214.0\",\"\",\"\",\"1-2\",\"5330\",\"37\",\"1\",\"Testing\",\"Stims/Figures/44-J-10-3.bmp\",\"nama:la\",\"Right\",\"37\",\"3\",\"18\",\"5\",\"S\",\"J\",\"66\"
\"\",\"\",\"approach-retreat\",\"215\",\"1521627\",\"0.0-215.0\",\"\",\"\",\"1-2\",\"5006\",\"39\",\"1\",\"Testing\",\"Stims/Figures/27-J-0-1.bmp\",\"ma:la:la\",\"Left\",\"39\",\"3\",\"19\",\"5\",\"S\",\"J\",\"67\"
\"\",\"\",\"approach-retreat\",\"216\",\"1528566\",\"0.0-216.0\",\"\",\"\",\"1-2\",\"5431\",\"38\",\"1\",\"Testing\",\"Stims/Figures/102-J-10-4.bmp\",\"mala:na\",\"Down\",\"38\",\"3\",\"20\",\"5\",\"S\",\"J\",\"68\"
\"\",\"\",\"approach-retreat\",\"217\",\"1534294\",\"0.0-217.0\",\"\",\"\",\"1-2\",\"4220\",\"37\",\"0\",\"Testing\",\"Stims/Figures/85-C-20-2.bmp\",\"paka:ka\",\"Right\",\"39\",\"3\",\"21\",\"5\",\"P\",\"J\",\"69\"
\"\",\"\",\"approach-retreat\",\"218\",\"1541406\",\"0.0-218.0\",\"\",\"\",\"1-2\",\"5604\",\"37\",\"0\",\"Testing\",\"Stims/Figures/139-J-0-2.bmp\",\"namala\",\"Left\",\"39\",\"3\",\"22\",\"5\",\"S\",\"J\",\"70\"
\"\",\"\",\"approach-retreat\",\"219\",\"1548116\",\"0.0-219.0\",\"\",\"\",\"1-2\",\"5201\",\"37\",\"0\",\"Testing\",\"Stims/Figures/86-J-0-1.bmp\",\"ma:lala\",\"Left\",\"39\",\"3\",\"23\",\"5\",\"S\",\"J\",\"71\"
\"\",\"\",\"approach-retreat\",\"220\",\"1553719\",\"0.0-220.0\",\"\",\"\",\"1-2\",\"4095\",\"40\",\"1\",\"Testing\",\"Stims/Figures/102-C-20-4.bmp\",\"taka:ka\",\"Down\",\"40\",\"3\",\"24\",\"5\",\"P\",\"J\",\"72\"
\"\",\"\",\"approach-retreat\",\"221\",\"1560522\",\"0.0-221.0\",\"\",\"\",\"1-2\",\"5294\",\"40\",\"1\",\"Testing\",\"Stims/Figures/27-J-0-1.bmp\",\"ma:la:la\",\"Up\",\"40\",\"4\",\"1\",\"5\",\"S\",\"J\",\"73\"
\"\",\"\",\"approach-retreat\",\"222\",\"1566209\",\"0.0-222.0\",\"\",\"\",\"1-2\",\"4177\",\"38\",\"0\",\"Testing\",\"Stims/Figures/7-J-10-4.bmp\",\"na:mala\",\"Up\",\"40\",\"4\",\"2\",\"5\",\"S\",\"J\",\"74\"
\"\",\"\",\"approach-retreat\",\"223\",\"1572105\",\"0.0-223.0\",\"\",\"\",\"1-2\",\"4387\",\"37\",\"1\",\"Testing\",\"Stims/Figures/71-J-0-1.bmp\",\"nalala\",\"Right\",\"37\",\"4\",\"3\",\"5\",\"S\",\"J\",\"75\"
\"\",\"\",\"approach-retreat\",\"224\",\"1577815\",\"0.0-224.0\",\"\",\"\",\"1-2\",\"4202\",\"40\",\"0\",\"Testing\",\"Stims/Figures/85-C-20-2.bmp\",\"paka:ka\",\"Up\",\"38\",\"4\",\"4\",\"5\",\"P\",\"J\",\"76\"
\"\",\"\",\"approach-retreat\",\"225\",\"1583895\",\"0.0-225.0\",\"\",\"\",\"1-2\",\"4571\",\"37\",\"1\",\"Testing\",\"Stims/Figures/44-J-10-3.bmp\",\"nama:la\",\"Right\",\"37\",\"4\",\"5\",\"5\",\"S\",\"J\",\"77\"
\"\",\"\",\"approach-retreat\",\"226\",\"1589887\",\"0.0-226.0\",\"\",\"\",\"1-2\",\"4484\",\"40\",\"1\",\"Testing\",\"Stims/Figures/7-C-20-4.bmp\",\"tapata\",\"Down\",\"40\",\"4\",\"6\",\"5\",\"P\",\"J\",\"78\"
\"\",\"\",\"approach-retreat\",\"227\",\"1595711\",\"0.0-227.0\",\"\",\"\",\"1-2\",\"4316\",\"37\",\"1\",\"Testing\",\"Stims/Figures/86-J-0-1.bmp\",\"ma:lala\",\"Right\",\"37\",\"4\",\"7\",\"5\",\"S\",\"J\",\"79\"
\"\",\"\",\"approach-retreat\",\"228\",\"1601410\",\"0.0-228.0\",\"\",\"\",\"1-2\",\"4188\",\"37\",\"1\",\"Testing\",\"Stims/Figures/19-J-10-4.bmp\",\"malana\",\"Right\",\"37\",\"4\",\"8\",\"5\",\"S\",\"J\",\"80\"
\"\",\"\",\"approach-retreat\",\"229\",\"1607254\",\"0.0-229.0\",\"\",\"\",\"1-2\",\"4335\",\"40\",\"1\",\"Testing\",\"Stims/Figures/27-C-30-1.bmp\",\"taka:ta\",\"Down\",\"40\",\"4\",\"9\",\"5\",\"P\",\"J\",\"81\"
\"\",\"\",\"approach-retreat\",\"230\",\"1612756\",\"0.0-230.0\",\"\",\"\",\"1-2\",\"3995\",\"37\",\"1\",\"Testing\",\"Stims/Figures/139-C-20-2.bmp\",\"ta:pa:ta\",\"Left\",\"37\",\"4\",\"10\",\"5\",\"P\",\"J\",\"82\"
\"\",\"\",\"approach-retreat\",\"231\",\"1618587\",\"0.0-231.0\",\"\",\"\",\"1-2\",\"4323\",\"40\",\"1\",\"Testing\",\"Stims/Figures/102-J-10-4.bmp\",\"mala:na\",\"Up\",\"40\",\"4\",\"11\",\"5\",\"S\",\"J\",\"83\"
\"\",\"\",\"approach-retreat\",\"232\",\"1624237\",\"0.0-232.0\",\"\",\"\",\"1-2\",\"4140\",\"37\",\"1\",\"Testing\",\"Stims/Figures/86-C-30-1.bmp\",\"pakata\",\"Left\",\"37\",\"4\",\"12\",\"5\",\"P\",\"J\",\"84\"
\"\",\"\",\"approach-retreat\",\"233\",\"1629795\",\"0.0-233.0\",\"\",\"\",\"1-2\",\"4051\",\"37\",\"1\",\"Testing\",\"Stims/Figures/102-C-20-4.bmp\",\"taka:ka\",\"Left\",\"37\",\"4\",\"13\",\"5\",\"P\",\"J\",\"85\"
\"\",\"\",\"approach-retreat\",\"234\",\"1635554\",\"0.0-234.0\",\"\",\"\",\"1-2\",\"4252\",\"40\",\"1\",\"Testing\",\"Stims/Figures/144-J-10-3.bmp\",\"ma:ma:na\",\"Up\",\"40\",\"4\",\"14\",\"5\",\"S\",\"J\",\"86\"
\"\",\"\",\"approach-retreat\",\"235\",\"1641019\",\"0.0-235.0\",\"\",\"\",\"1-2\",\"3957\",\"40\",\"1\",\"Testing\",\"Stims/Figures/84-J-0-2.bmp\",\"na:lana\",\"Up\",\"40\",\"4\",\"15\",\"5\",\"S\",\"J\",\"87\"
\"\",\"\",\"approach-retreat\",\"236\",\"1646694\",\"0.0-236.0\",\"\",\"\",\"1-2\",\"4167\",\"37\",\"1\",\"Testing\",\"Stims/Figures/111-C-30-3.bmp\",\"pa:ka:ta\",\"Left\",\"37\",\"4\",\"16\",\"5\",\"P\",\"J\",\"88\"
\"\",\"\",\"approach-retreat\",\"237\",\"1652245\",\"0.0-237.0\",\"\",\"\",\"1-2\",\"4042\",\"40\",\"1\",\"Testing\",\"Stims/Figures/84-C-20-2.bmp\",\"tapaka\",\"Down\",\"40\",\"4\",\"17\",\"5\",\"P\",\"J\",\"89\"
\"\",\"\",\"approach-retreat\",\"238\",\"1657834\",\"0.0-238.0\",\"\",\"\",\"1-2\",\"4075\",\"37\",\"1\",\"Testing\",\"Stims/Figures/44-C-30-3.bmp\",\"pa:ka:ka\",\"Left\",\"37\",\"4\",\"18\",\"5\",\"P\",\"J\",\"90\"
\"\",\"\",\"approach-retreat\",\"239\",\"1663590\",\"0.0-239.0\",\"\",\"\",\"1-2\",\"4249\",\"40\",\"1\",\"Testing\",\"Stims/Figures/71-C-30-1.bmp\",\"ta:pata\",\"Down\",\"40\",\"4\",\"19\",\"5\",\"P\",\"J\",\"91\"
\"\",\"\",\"approach-retreat\",\"240\",\"1669241\",\"0.0-240.0\",\"\",\"\",\"1-2\",\"4144\",\"39\",\"0\",\"Testing\",\"Stims/Figures/19-C-20-4.bmp\",\"ta:ka:ka\",\"Left\",\"37\",\"4\",\"20\",\"5\",\"P\",\"J\",\"92\"
\"\",\"\",\"approach-retreat\",\"241\",\"1674980\",\"0.0-241.0\",\"\",\"\",\"1-2\",\"4232\",\"40\",\"0\",\"Testing\",\"Stims/Figures/111-J-10-3.bmp\",\"nalana\",\"Down\",\"38\",\"4\",\"21\",\"5\",\"S\",\"J\",\"93\"
\"\",\"\",\"approach-retreat\",\"242\",\"1680373\",\"0.0-242.0\",\"\",\"\",\"1-2\",\"3884\",\"40\",\"0\",\"Testing\",\"Stims/Figures/139-J-0-2.bmp\",\"namala\",\"Down\",\"38\",\"4\",\"22\",\"5\",\"S\",\"J\",\"94\"
\"\",\"\",\"approach-retreat\",\"243\",\"1686021\",\"0.0-243.0\",\"\",\"\",\"1-2\",\"4138\",\"39\",\"1\",\"Testing\",\"Stims/Figures/144-C-30-3.bmp\",\"pa:kaka\",\"Right\",\"39\",\"4\",\"23\",\"5\",\"P\",\"J\",\"95\"
\"\",\"\",\"approach-retreat\",\"244\",\"1691715\",\"0.0-244.0\",\"\",\"\",\"1-2\",\"4185\",\"39\",\"0\",\"Testing\",\"Stims/Figures/85-J-0-2.bmp\",\"mama:la\",\"Right\",\"37\",\"4\",\"24\",\"5\",\"S\",\"J\",\"96\"
\"26832\",\"\",\"survey-text\",\"245\",\"1718553\",\"0.0-245.0\",\"\",\"{\"\"Q0\"\":\"\"PS140202\"\"}\",\"\",\"\",\"\",\"\",\"\",\"\",\"\",\"\",\"\",\"\",\"\",\"\",\"\",\"\",\"\"
